File: XRD:XRR/LCO/22168_LCOT/22168_LCOT_002_XRD.csv
#twotheta, yobs, ycal, bkg, diff
42.0,37.4944,1.0,1.0,1.0
42.01,38.5056,1.0,1.0,1.0
42.02,40.0,1.0,1.0,1.0
42.03,31.9889,1.0,1.0,1.0
42.04,48.5056,1.0,1.0,1.0
42.05,37.5056,1.0,1.0,1.0
42.06,32.4944,1.0,1.0,1.0
42.07,39.5056,1.0,1.0,1.0
42.08,39.4944,1.0,1.0,1.0
42.09,37.5056,1.0,1.0,1.0
42.1,43.4944,1.0,1.0,1.0
42.11,49.5056,1.0,1.0,1.0
42.12,45.4944,1.0,1.0,1.0
42.13,50.0,1.0,1.0,1.0
42.14,43.4944,1.0,1.0,1.0
42.15,40.0111,1.0,1.0,1.0
42.16,35.4944,1.0,1.0,1.0
42.17,32.9889,1.0,1.0,1.0
42.18,48.5167,1.0,1.0,1.0
42.19,46.4944,1.0,1.0,1.0
42.2,58.0,1.0,1.0,1.0
42.21,64.0,1.0,1.0,1.0
42.22,50.0,1.0,1.0,1.0
42.23,46.9889,1.0,1.0,1.0
42.24,61.0111,1.0,1.0,1.0
42.25,57.0,1.0,1.0,1.0
42.26,44.0,1.0,1.0,1.0
42.27,41.5056,1.0,1.0,1.0
42.28,41.4944,1.0,1.0,1.0
42.29,47.0,1.0,1.0,1.0
42.3,33.4944,1.0,1.0,1.0
42.31,61.0,1.0,1.0,1.0
42.32,50.0,1.0,1.0,1.0
42.33,61.5056,1.0,1.0,1.0
42.34,49.0,1.0,1.0,1.0
42.35,50.0,1.0,1.0,1.0
42.36,48.0,1.0,1.0,1.0
42.37,58.5056,1.0,1.0,1.0
42.38,36.4833,1.0,1.0,1.0
42.39,51.5167,1.0,1.0,1.0
42.4,54.0,1.0,1.0,1.0
42.41,59.4944,1.0,1.0,1.0
42.42,41.5056,1.0,1.0,1.0
42.43,62.0,1.0,1.0,1.0
42.44,32.0,1.0,1.0,1.0
42.45,58.9889,1.0,1.0,1.0
42.46,53.5056,1.0,1.0,1.0
42.47,37.5056,1.0,1.0,1.0
42.48,56.0,1.0,1.0,1.0
42.49,43.4944,1.0,1.0,1.0
42.5,56.5056,1.0,1.0,1.0
42.51,46.9778,1.0,1.0,1.0
42.52,45.0111,1.0,1.0,1.0
42.53,51.5056,1.0,1.0,1.0
42.54,42.0,1.0,1.0,1.0
42.55,47.5056,1.0,1.0,1.0
42.56,53.4944,1.0,1.0,1.0
42.57,50.0,1.0,1.0,1.0
42.58,56.0,1.0,1.0,1.0
42.59,60.0,1.0,1.0,1.0
42.6,56.9889,1.0,1.0,1.0
42.61,74.5167,1.0,1.0,1.0
42.62,61.4833,1.0,1.0,1.0
42.63,63.0111,1.0,1.0,1.0
42.64,68.0,1.0,1.0,1.0
42.65,63.4944,1.0,1.0,1.0
42.66,48.0,1.0,1.0,1.0
42.67,61.0,1.0,1.0,1.0
42.68,54.4944,1.0,1.0,1.0
42.69,65.5167,1.0,1.0,1.0
42.7,51.0,1.0,1.0,1.0
42.71,62.4944,1.0,1.0,1.0
42.72,54.9889,1.0,1.0,1.0
42.73,49.5167,1.0,1.0,1.0
42.74,50.0,1.0,1.0,1.0
42.75,34.4944,1.0,1.0,1.0
42.76,65.9889,1.0,1.0,1.0
42.77,57.5167,1.0,1.0,1.0
42.78,48.0,1.0,1.0,1.0
42.79,61.4944,1.0,1.0,1.0
42.8,72.5056,1.0,1.0,1.0
42.81,50.4944,1.0,1.0,1.0
42.82,58.0,1.0,1.0,1.0
42.83,70.0,1.0,1.0,1.0
42.84,58.4944,1.0,1.0,1.0
42.85,56.5056,1.0,1.0,1.0
42.86,65.4944,1.0,1.0,1.0
42.87,76.0111,1.0,1.0,1.0
42.88,77.9778,1.0,1.0,1.0
42.89,70.0222,1.0,1.0,1.0
42.9,67.0,1.0,1.0,1.0
42.91,50.9889,1.0,1.0,1.0
42.92,76.0111,1.0,1.0,1.0
42.93,68.9889,1.0,1.0,1.0
42.94,68.0,1.0,1.0,1.0
42.95,80.0,1.0,1.0,1.0
42.96,60.5056,1.0,1.0,1.0
42.97,72.9889,1.0,1.0,1.0
42.98,90.5167,1.0,1.0,1.0
42.99,63.4944,1.0,1.0,1.0
43.0,70.5056,1.0,1.0,1.0
43.01,57.4833,1.0,1.0,1.0
43.02,77.5167,1.0,1.0,1.0
43.03,51.4944,1.0,1.0,1.0
43.04,77.0,1.0,1.0,1.0
43.05,88.0,1.0,1.0,1.0
43.06,55.9889,1.0,1.0,1.0
43.07,63.5056,1.0,1.0,1.0
43.08,58.0111,1.0,1.0,1.0
43.09,36.0,1.0,1.0,1.0
43.1,56.0,1.0,1.0,1.0
43.11,70.4833,1.0,1.0,1.0
43.12,59.0,1.0,1.0,1.0
43.13,58.0111,1.0,1.0,1.0
43.14,51.0,1.0,1.0,1.0
43.15,73.4944,1.0,1.0,1.0
43.16,59.5056,1.0,1.0,1.0
43.17,76.0,1.0,1.0,1.0
43.18,79.0,1.0,1.0,1.0
43.19,71.9889,1.0,1.0,1.0
43.2,65.0111,1.0,1.0,1.0
43.21,66.0,1.0,1.0,1.0
43.22,59.4944,1.0,1.0,1.0
43.23,82.5056,1.0,1.0,1.0
43.24,91.5056,1.0,1.0,1.0
43.25,79.4833,1.0,1.0,1.0
43.26,86.4944,1.0,1.0,1.0
43.27,86.5167,1.0,1.0,1.0
43.28,111.5056,1.0,1.0,1.0
43.29,102.4944,1.0,1.0,1.0
43.3,135.4944,1.0,1.0,1.0
43.31,80.0,1.0,1.0,1.0
43.32,87.5056,1.0,1.0,1.0
43.33,88.4944,1.0,1.0,1.0
43.34,91.5056,1.0,1.0,1.0
43.35,66.9889,1.0,1.0,1.0
43.36,81.4944,1.0,1.0,1.0
43.37,89.0,1.0,1.0,1.0
43.38,76.0111,1.0,1.0,1.0
43.39,62.4944,1.0,1.0,1.0
43.4,67.0111,1.0,1.0,1.0
43.41,76.9889,1.0,1.0,1.0
43.42,50.5167,1.0,1.0,1.0
43.43,43.4944,1.0,1.0,1.0
43.44,61.9889,1.0,1.0,1.0
43.45,79.0111,1.0,1.0,1.0
43.46,70.4944,1.0,1.0,1.0
43.47,64.9889,1.0,1.0,1.0
43.48,57.5167,1.0,1.0,1.0
43.49,61.9889,1.0,1.0,1.0
43.5,82.5167,1.0,1.0,1.0
43.51,83.4944,1.0,1.0,1.0
43.52,78.5056,1.0,1.0,1.0
43.53,61.4944,1.0,1.0,1.0
43.54,104.4944,1.0,1.0,1.0
43.55,102.5056,1.0,1.0,1.0
43.56,94.4833,1.0,1.0,1.0
43.57,107.9889,1.0,1.0,1.0
43.58,121.0222,1.0,1.0,1.0
43.59,116.0,1.0,1.0,1.0
43.6,119.5056,1.0,1.0,1.0
43.61,111.4944,1.0,1.0,1.0
43.62,115.0111,1.0,1.0,1.0
43.63,122.9889,1.0,1.0,1.0
43.64,143.0111,1.0,1.0,1.0
43.65,114.4944,1.0,1.0,1.0
43.66,133.0,1.0,1.0,1.0
43.67,105.5056,1.0,1.0,1.0
43.68,101.4833,1.0,1.0,1.0
43.69,107.4944,1.0,1.0,1.0
43.7,98.5167,1.0,1.0,1.0
43.71,69.4944,1.0,1.0,1.0
43.72,88.5056,1.0,1.0,1.0
43.73,90.5056,1.0,1.0,1.0
43.74,102.9889,1.0,1.0,1.0
43.75,56.0111,1.0,1.0,1.0
43.76,64.0,1.0,1.0,1.0
43.77,72.0,1.0,1.0,1.0
43.78,57.4833,1.0,1.0,1.0
43.79,100.4944,1.0,1.0,1.0
43.8,90.0222,1.0,1.0,1.0
43.81,62.9778,1.0,1.0,1.0
43.82,97.0,1.0,1.0,1.0
43.83,92.0111,1.0,1.0,1.0
43.84,80.5056,1.0,1.0,1.0
43.85,90.0,1.0,1.0,1.0
43.86,123.4833,1.0,1.0,1.0
43.87,128.0111,1.0,1.0,1.0
43.88,113.0111,1.0,1.0,1.0
43.89,106.4944,1.0,1.0,1.0
43.9,143.9667,1.0,1.0,1.0
43.91,126.0111,1.0,1.0,1.0
43.92,181.0222,1.0,1.0,1.0
43.93,139.9889,1.0,1.0,1.0
43.94,149.0,1.0,1.0,1.0
43.95,194.4833,1.0,1.0,1.0
43.96,192.0222,1.0,1.0,1.0
43.97,155.9889,1.0,1.0,1.0
43.98,154.0111,1.0,1.0,1.0
43.99,157.4833,1.0,1.0,1.0
44.0,163.0111,1.0,1.0,1.0
44.01,157.0111,1.0,1.0,1.0
44.02,137.0,1.0,1.0,1.0
44.03,132.4833,1.0,1.0,1.0
44.04,132.5167,1.0,1.0,1.0
44.05,151.0,1.0,1.0,1.0
44.06,124.4944,1.0,1.0,1.0
44.07,107.4944,1.0,1.0,1.0
44.08,113.0,1.0,1.0,1.0
44.09,95.5056,1.0,1.0,1.0
44.1,89.4944,1.0,1.0,1.0
44.11,93.5056,1.0,1.0,1.0
44.12,89.0,1.0,1.0,1.0
44.13,104.5056,1.0,1.0,1.0
44.14,92.5056,1.0,1.0,1.0
44.15,110.9889,1.0,1.0,1.0
44.16,104.0111,1.0,1.0,1.0
44.17,115.9778,1.0,1.0,1.0
44.18,133.0,1.0,1.0,1.0
44.19,134.5167,1.0,1.0,1.0
44.2,155.9778,1.0,1.0,1.0
44.21,154.4944,1.0,1.0,1.0
44.22,180.0111,1.0,1.0,1.0
44.23,183.0111,1.0,1.0,1.0
44.24,198.9778,1.0,1.0,1.0
44.25,197.5056,1.0,1.0,1.0
44.26,253.0,1.0,1.0,1.0
44.27,204.5278,1.0,1.0,1.0
44.28,256.4722,1.0,1.0,1.0
44.29,241.5167,1.0,1.0,1.0
44.3,217.5056,1.0,1.0,1.0
44.31,208.4389,1.0,1.0,1.0
44.32,240.55,1.0,1.0,1.0
44.33,192.4833,1.0,1.0,1.0
44.34,223.0111,1.0,1.0,1.0
44.35,188.0111,1.0,1.0,1.0
44.36,171.9889,1.0,1.0,1.0
44.37,167.4944,1.0,1.0,1.0
44.38,138.5056,1.0,1.0,1.0
44.39,160.0222,1.0,1.0,1.0
44.4,98.4944,1.0,1.0,1.0
44.41,103.0,1.0,1.0,1.0
44.42,123.4944,1.0,1.0,1.0
44.43,87.5056,1.0,1.0,1.0
44.44,80.0,1.0,1.0,1.0
44.45,74.9889,1.0,1.0,1.0
44.46,70.0111,1.0,1.0,1.0
44.47,98.4944,1.0,1.0,1.0
44.48,92.4833,1.0,1.0,1.0
44.49,116.0111,1.0,1.0,1.0
44.5,122.5056,1.0,1.0,1.0
44.51,154.0,1.0,1.0,1.0
44.52,174.4944,1.0,1.0,1.0
44.53,219.9889,1.0,1.0,1.0
44.54,232.9889,1.0,1.0,1.0
44.55,245.5056,1.0,1.0,1.0
44.56,225.0,1.0,1.0,1.0
44.57,276.4944,1.0,1.0,1.0
44.58,329.4722,1.0,1.0,1.0
44.59,279.0,1.0,1.0,1.0
44.6,310.0111,1.0,1.0,1.0
44.61,298.0,1.0,1.0,1.0
44.62,317.0333,1.0,1.0,1.0
44.63,309.9778,1.0,1.0,1.0
44.64,293.5167,1.0,1.0,1.0
44.65,283.9889,1.0,1.0,1.0
44.66,287.5056,1.0,1.0,1.0
44.67,303.9889,1.0,1.0,1.0
44.68,279.9889,1.0,1.0,1.0
44.69,192.0333,1.0,1.0,1.0
44.7,213.5056,1.0,1.0,1.0
44.71,204.5167,1.0,1.0,1.0
44.72,171.4833,1.0,1.0,1.0
44.73,160.4944,1.0,1.0,1.0
44.74,120.5056,1.0,1.0,1.0
44.75,108.0,1.0,1.0,1.0
44.76,106.4944,1.0,1.0,1.0
44.77,132.0222,1.0,1.0,1.0
44.78,113.4833,1.0,1.0,1.0
44.79,89.5056,1.0,1.0,1.0
44.8,124.0,1.0,1.0,1.0
44.81,155.0,1.0,1.0,1.0
44.82,129.4722,1.0,1.0,1.0
44.83,195.5056,1.0,1.0,1.0
44.84,224.0,1.0,1.0,1.0
44.85,257.4944,1.0,1.0,1.0
44.86,275.0222,1.0,1.0,1.0
44.87,269.9556,1.0,1.0,1.0
44.88,314.0,1.0,1.0,1.0
44.89,334.0,1.0,1.0,1.0
44.9,399.5167,1.0,1.0,1.0
44.91,480.9889,1.0,1.0,1.0
44.92,415.9778,1.0,1.0,1.0
44.93,483.5167,1.0,1.0,1.0
44.94,456.9778,1.0,1.0,1.0
44.95,504.5278,1.0,1.0,1.0
44.96,390.5278,1.0,1.0,1.0
44.97,467.45,1.0,1.0,1.0
44.98,435.0222,1.0,1.0,1.0
44.99,429.0,1.0,1.0,1.0
45.0,378.0222,1.0,1.0,1.0
45.01,332.9889,1.0,1.0,1.0
45.02,311.5167,1.0,1.0,1.0
45.03,237.0111,1.0,1.0,1.0
45.04,262.4944,1.0,1.0,1.0
45.05,222.0222,1.0,1.0,1.0
45.06,181.9889,1.0,1.0,1.0
45.07,158.5056,1.0,1.0,1.0
45.08,160.9778,1.0,1.0,1.0
45.09,151.0111,1.0,1.0,1.0
45.1,149.5056,1.0,1.0,1.0
45.11,170.4944,1.0,1.0,1.0
45.12,189.4833,1.0,1.0,1.0
45.13,205.0111,1.0,1.0,1.0
45.14,243.4944,1.0,1.0,1.0
45.15,301.4833,1.0,1.0,1.0
45.16,297.4833,1.0,1.0,1.0
45.17,388.0444,1.0,1.0,1.0
45.18,409.4722,1.0,1.0,1.0
45.19,476.4722,1.0,1.0,1.0
45.2,562.4944,1.0,1.0,1.0
45.21,619.5056,1.0,1.0,1.0
45.22,704.9778,1.0,1.0,1.0
45.23,714.9889,1.0,1.0,1.0
45.24,851.4944,1.0,1.0,1.0
45.25,856.0333,1.0,1.0,1.0
45.26,915.0,1.0,1.0,1.0
45.27,889.9667,1.0,1.0,1.0
45.28,885.4944,1.0,1.0,1.0
45.29,920.5389,1.0,1.0,1.0
45.3,880.4722,1.0,1.0,1.0
45.31,862.0333,1.0,1.0,1.0
45.32,829.9667,1.0,1.0,1.0
45.33,742.0333,1.0,1.0,1.0
45.34,705.4833,1.0,1.0,1.0
45.35,633.0111,1.0,1.0,1.0
45.36,534.55,1.0,1.0,1.0
45.37,498.9667,1.0,1.0,1.0
45.38,432.0333,1.0,1.0,1.0
45.39,362.4722,1.0,1.0,1.0
45.4,277.5389,1.0,1.0,1.0
45.41,238.4944,1.0,1.0,1.0
45.42,217.0222,1.0,1.0,1.0
45.43,182.4833,1.0,1.0,1.0
45.44,243.4944,1.0,1.0,1.0
45.45,207.0,1.0,1.0,1.0
45.46,230.0,1.0,1.0,1.0
45.47,313.0,1.0,1.0,1.0
45.48,341.4722,1.0,1.0,1.0
45.49,527.4944,1.0,1.0,1.0
45.5,539.4611,1.0,1.0,1.0
45.51,670.0111,1.0,1.0,1.0
45.52,779.4944,1.0,1.0,1.0
45.53,1002.46,1.0,1.0,1.0
45.54,1127.51,1.0,1.0,1.0
45.55,1237.98,1.0,1.0,1.0
45.56,1426.03,1.0,1.0,1.0
45.57,1560.43,1.0,1.0,1.0
45.58,1654.52,1.0,1.0,1.0
45.59,1735.96,1.0,1.0,1.0
45.6,1813.03,1.0,1.0,1.0
45.61,1982.47,1.0,1.0,1.0
45.62,1934.94,1.0,1.0,1.0
45.63,1973.02,1.0,1.0,1.0
45.64,1920.04,1.0,1.0,1.0
45.65,1908.44,1.0,1.0,1.0
45.66,1868.08,1.0,1.0,1.0
45.67,1758.93,1.0,1.0,1.0
45.68,1696.1,1.0,1.0,1.0
45.69,1590.48,1.0,1.0,1.0
45.7,1349.99,1.0,1.0,1.0
45.71,1288.01,1.0,1.0,1.0
45.72,1076.58,1.0,1.0,1.0
45.73,873.4944,1.0,1.0,1.0
45.74,788.5167,1.0,1.0,1.0
45.75,629.0,1.0,1.0,1.0
45.76,510.5167,1.0,1.0,1.0
45.77,386.4944,1.0,1.0,1.0
45.78,382.4833,1.0,1.0,1.0
45.79,325.0444,1.0,1.0,1.0
45.8,300.4722,1.0,1.0,1.0
45.81,417.4722,1.0,1.0,1.0
45.82,469.0222,1.0,1.0,1.0
45.83,633.5056,1.0,1.0,1.0
45.84,685.4611,1.0,1.0,1.0
45.85,939.9778,1.0,1.0,1.0
45.86,1191.44,1.0,1.0,1.0
45.87,1408.53,1.0,1.0,1.0
45.88,1727.91,1.0,1.0,1.0
45.89,2013.03,1.0,1.0,1.0
45.9,2304.89,1.0,1.0,1.0
45.91,2448.49,1.0,1.0,1.0
45.92,2862.08,1.0,1.0,1.0
45.93,3050.87,1.0,1.0,1.0
45.94,3409.04,1.0,1.0,1.0
45.95,3584.89,1.0,1.0,1.0
45.96,3690.54,1.0,1.0,1.0
45.97,3819.52,1.0,1.0,1.0
45.98,3827.37,1.0,1.0,1.0
45.99,3923.07,1.0,1.0,1.0
46.0,3890.54,1.0,1.0,1.0
46.01,3746.53,1.0,1.0,1.0
46.02,3563.04,1.0,1.0,1.0
46.03,3525.46,1.0,1.0,1.0
46.04,3257.561,1.0,1.0,1.0
46.05,2902.49,1.0,1.0,1.0
46.06,2693.52,1.0,1.0,1.0
46.07,2394.09,1.0,1.0,1.0
46.08,2083.45,1.0,1.0,1.0
46.09,1826.55,1.0,1.0,1.0
46.1,1515.56,1.0,1.0,1.0
46.11,1281.01,1.0,1.0,1.0
46.12,1105.49,1.0,1.0,1.0
46.13,977.5833,1.0,1.0,1.0
46.14,917.9778,1.0,1.0,1.0
46.15,967.9889,1.0,1.0,1.0
46.16,1171.41,1.0,1.0,1.0
46.17,1351.56,1.0,1.0,1.0
46.18,1708.42,1.0,1.0,1.0
46.19,2235.99,1.0,1.0,1.0
46.2,2826.84,1.0,1.0,1.0
46.21,3509.92,1.0,1.0,1.0
46.22,4530.47,1.0,1.0,1.0
46.23,5507.89,1.0,1.0,1.0
46.24,6630.37,1.0,1.0,1.0
46.25,7844.73,1.0,1.0,1.0
46.26,9227.45,1.0,1.0,1.0
46.27,10826.3,1.0,1.0,1.0
46.28,12288.7,1.0,1.0,1.0
46.29,14483.3,1.0,1.0,1.0
46.3,16492.1,1.0,1.0,1.0
46.31,19023.666,1.0,1.0,1.0
46.32,22226.7,1.0,1.0,1.0
46.33,27334.9,1.0,1.0,1.0
46.34,38817.9,1.0,1.0,1.0
46.35,57439.5,1.0,1.0,1.0
46.36,84734.6,1.0,1.0,1.0
46.37,119888,1.0,1.0,1.0
46.38,151349,1.0,1.0,1.0
46.39,182852.0,1.0,1.0,1.0
46.4,220740,1.0,1.0,1.0
46.41,268922,1.0,1.0,1.0
46.42,333909,1.0,1.0,1.0
46.43,441221,1.0,1.0,1.0
46.44,650498,1.0,1.0,1.0
46.45,1205464.0,1.0,1.0,1.0
46.46,6455874.5,1.0,1.0,1.0
46.47,29822790.0,1.0,1.0,1.0
46.48,55496560.0,1.0,1.0,1.0
46.49,76647896.0,1.0,1.0,1.0
46.5,63930576.0,1.0,1.0,1.0
46.51,21694806.0,1.0,1.0,1.0
46.52,3447292.0,1.0,1.0,1.0
46.53,1435271.125,1.0,1.0,1.0
46.54,975902.25,1.0,1.0,1.0
46.55,762865.125,1.0,1.0,1.0
46.56,624617,1.0,1.0,1.0
46.57,521202,1.0,1.0,1.0
46.58,447972.0,1.0,1.0,1.0
46.59,392610,1.0,1.0,1.0
46.6,349569.25,1.0,1.0,1.0
46.61,314298.0,1.0,1.0,1.0
46.62,284077,1.0,1.0,1.0
46.63,263274,1.0,1.0,1.0
46.64,245234,1.0,1.0,1.0
46.65,232833,1.0,1.0,1.0
46.66,220569,1.0,1.0,1.0
46.67,208269,1.0,1.0,1.0
46.68,196698,1.0,1.0,1.0
46.69,187911,1.0,1.0,1.0
46.7,177842,1.0,1.0,1.0
46.71,169665.625,1.0,1.0,1.0
46.72,160026,1.0,1.0,1.0
46.73,151327,1.0,1.0,1.0
46.74,142635,1.0,1.0,1.0
46.75,134438,1.0,1.0,1.0
46.76,125803,1.0,1.0,1.0
46.77,117887,1.0,1.0,1.0
46.78,109756,1.0,1.0,1.0
46.79,101393,1.0,1.0,1.0
46.8,93112.6,1.0,1.0,1.0
46.81,84741,1.0,1.0,1.0
46.82,77349.8,1.0,1.0,1.0
46.83,69884.3,1.0,1.0,1.0
46.84,63318.9,1.0,1.0,1.0
46.85,56597.832,1.0,1.0,1.0
46.86,49637.9,1.0,1.0,1.0
46.87,44032.1,1.0,1.0,1.0
46.88,38311.6,1.0,1.0,1.0
46.89,32990,1.0,1.0,1.0
46.9,28226.623,1.0,1.0,1.0
46.91,24094.6,1.0,1.0,1.0
46.92,19985.2,1.0,1.0,1.0
46.93,16741,1.0,1.0,1.0
46.94,13459.917,1.0,1.0,1.0
46.95,10959.5,1.0,1.0,1.0
46.96,8690.78,1.0,1.0,1.0
46.97,6899.73,1.0,1.0,1.0
46.98,5399.16,1.0,1.0,1.0
46.99,4252.45,1.0,1.0,1.0
47.0,3595.16,1.0,1.0,1.0
47.01,2985.09,1.0,1.0,1.0
47.02,2654.53,1.0,1.0,1.0
47.03,2641.96,1.0,1.0,1.0
47.04,2831.46,1.0,1.0,1.0
47.05,3034.43,1.0,1.0,1.0
47.06,3291.04,1.0,1.0,1.0
47.07,3637.91,1.0,1.0,1.0
47.08,4321.48,1.0,1.0,1.0
47.09,4749.46,1.0,1.0,1.0
47.1,5100.98,1.0,1.0,1.0
47.11,5648.33,1.0,1.0,1.0
47.12,6004.94,1.0,1.0,1.0
47.13,6245.91,1.0,1.0,1.0
47.14,6399.189,1.0,1.0,1.0
47.15,6718.39,1.0,1.0,1.0
47.16,6734.97,1.0,1.0,1.0
47.17,6713.14,1.0,1.0,1.0
47.18,6722.83,1.0,1.0,1.0
47.19,6629.59,1.0,1.0,1.0
47.2,6315.14,1.0,1.0,1.0
47.21,5884.93,1.0,1.0,1.0
47.22,5444.14,1.0,1.0,1.0
47.23,5085.38,1.0,1.0,1.0
47.24,4689.65,1.0,1.0,1.0
47.25,4236.54,1.0,1.0,1.0
47.26,3677.57,1.0,1.0,1.0
47.27,3333.03,1.0,1.0,1.0
47.28,2818.49,1.0,1.0,1.0
47.29,2352.58,1.0,1.0,1.0
47.3,1976.04,1.0,1.0,1.0
47.31,1673.02,1.0,1.0,1.0
47.32,1411.54,1.0,1.0,1.0
47.33,1144.48,1.0,1.0,1.0
47.34,910.5278,1.0,1.0,1.0
47.35,830.0444,1.0,1.0,1.0
47.36,784.0111,1.0,1.0,1.0
47.37,835.9778,1.0,1.0,1.0
47.38,823.4944,1.0,1.0,1.0
47.39,870.4833,1.0,1.0,1.0
47.4,1078.98,1.0,1.0,1.0
47.41,1258.99,1.0,1.0,1.0
47.42,1384.97,1.0,1.0,1.0
47.43,1544.06,1.0,1.0,1.0
47.44,1820.42,1.0,1.0,1.0
47.45,2082.01,1.0,1.0,1.0
47.46,2211.43,1.0,1.0,1.0
47.47,2345.561,1.0,1.0,1.0
47.48,2523.41,1.0,1.0,1.0
47.49,2611.99,1.0,1.0,1.0
47.5,2724.439,1.0,1.0,1.0
47.51,2780.02,1.0,1.0,1.0
47.52,2976.59,1.0,1.0,1.0
47.53,3014.88,1.0,1.0,1.0
47.54,2869.08,1.0,1.0,1.0
47.55,2804.43,1.0,1.0,1.0
47.56,2624.02,1.0,1.0,1.0
47.57,2519.61,1.0,1.0,1.0
47.58,2469.06,1.0,1.0,1.0
47.59,2211.89,1.0,1.0,1.0
47.6,2152.59,1.0,1.0,1.0
47.61,1918.98,1.0,1.0,1.0
47.62,1686.04,1.0,1.0,1.0
47.63,1596.55,1.0,1.0,1.0
47.64,1385.0,1.0,1.0,1.0
47.65,1160.04,1.0,1.0,1.0
47.66,1038.52,1.0,1.0,1.0
47.67,833.9667,1.0,1.0,1.0
47.68,720.0555,1.0,1.0,1.0
47.69,621.9556,1.0,1.0,1.0
47.7,517.5278,1.0,1.0,1.0
47.71,500.0111,1.0,1.0,1.0
47.72,418.0111,1.0,1.0,1.0
47.73,422.5056,1.0,1.0,1.0
47.74,434.5167,1.0,1.0,1.0
47.75,468.4722,1.0,1.0,1.0
47.76,524.0,1.0,1.0,1.0
47.77,556.5056,1.0,1.0,1.0
47.78,632.9667,1.0,1.0,1.0
47.79,704.5389,1.0,1.0,1.0
47.8,748.9778,1.0,1.0,1.0
47.81,876.9667,1.0,1.0,1.0
47.82,918.9667,1.0,1.0,1.0
47.83,1001.01,1.0,1.0,1.0
47.84,1062.97,1.0,1.0,1.0
47.85,1135.06,1.0,1.0,1.0
47.86,1169.45,1.0,1.0,1.0
47.87,1176.52,1.0,1.0,1.0
47.88,1199.96,1.0,1.0,1.0
47.89,1200.51,1.0,1.0,1.0
47.9,1185.07,1.0,1.0,1.0
47.91,1121.48,1.0,1.0,1.0
47.92,1077.48,1.0,1.0,1.0
47.93,1014.53,1.0,1.0,1.0
47.94,1015.97,1.0,1.0,1.0
47.95,906.0555,1.0,1.0,1.0
47.96,877.5278,1.0,1.0,1.0
47.97,738.9778,1.0,1.0,1.0
47.98,683.0111,1.0,1.0,1.0
47.99,613.5056,1.0,1.0,1.0
48.0,580.9889,1.0,1.0,1.0
48.01,463.5389,1.0,1.0,1.0
48.02,396.9889,1.0,1.0,1.0
48.03,392.0,1.0,1.0,1.0
48.04,354.5167,1.0,1.0,1.0
48.05,259.0222,1.0,1.0,1.0
48.06,278.4833,1.0,1.0,1.0
48.07,237.4944,1.0,1.0,1.0
48.08,221.0111,1.0,1.0,1.0
48.09,196.5056,1.0,1.0,1.0
48.1,220.9889,1.0,1.0,1.0
48.11,273.9889,1.0,1.0,1.0
48.12,265.0333,1.0,1.0,1.0
48.13,278.9556,1.0,1.0,1.0
48.14,369.5056,1.0,1.0,1.0
48.15,352.4833,1.0,1.0,1.0
48.16,389.4944,1.0,1.0,1.0
48.17,370.55,1.0,1.0,1.0
48.18,429.4722,1.0,1.0,1.0
48.19,419.5056,1.0,1.0,1.0
48.2,463.9778,1.0,1.0,1.0
48.21,479.5056,1.0,1.0,1.0
48.22,490.0,1.0,1.0,1.0
48.23,517.9667,1.0,1.0,1.0
48.24,488.0333,1.0,1.0,1.0
48.25,467.0111,1.0,1.0,1.0
48.26,480.9778,1.0,1.0,1.0
48.27,487.0111,1.0,1.0,1.0
48.28,444.4944,1.0,1.0,1.0
48.29,438.0111,1.0,1.0,1.0
48.3,351.5167,1.0,1.0,1.0
48.31,376.0111,1.0,1.0,1.0
48.32,319.4722,1.0,1.0,1.0
48.33,272.5056,1.0,1.0,1.0
48.34,271.5056,1.0,1.0,1.0
48.35,279.5278,1.0,1.0,1.0
48.36,206.4722,1.0,1.0,1.0
48.37,196.0333,1.0,1.0,1.0
48.38,189.0,1.0,1.0,1.0
48.39,173.4722,1.0,1.0,1.0
48.4,181.0333,1.0,1.0,1.0
48.41,122.9778,1.0,1.0,1.0
48.42,135.0111,1.0,1.0,1.0
48.43,152.4944,1.0,1.0,1.0
48.44,137.4833,1.0,1.0,1.0
48.45,137.0222,1.0,1.0,1.0
48.46,131.9889,1.0,1.0,1.0
48.47,170.5056,1.0,1.0,1.0
48.48,135.5056,1.0,1.0,1.0
48.49,192.4944,1.0,1.0,1.0
48.5,190.4833,1.0,1.0,1.0
48.51,222.0111,1.0,1.0,1.0
48.52,234.4944,1.0,1.0,1.0
48.53,267.5167,1.0,1.0,1.0
48.54,245.0111,1.0,1.0,1.0
48.55,215.4944,1.0,1.0,1.0
48.56,248.4722,1.0,1.0,1.0
48.57,252.4944,1.0,1.0,1.0
48.58,240.4944,1.0,1.0,1.0
48.59,278.5278,1.0,1.0,1.0
48.6,215.4944,1.0,1.0,1.0
48.61,253.4611,1.0,1.0,1.0
48.62,209.5278,1.0,1.0,1.0
48.63,202.0222,1.0,1.0,1.0
48.64,188.0,1.0,1.0,1.0
48.65,163.9778,1.0,1.0,1.0
48.66,168.5278,1.0,1.0,1.0
48.67,149.5056,1.0,1.0,1.0
48.68,180.4833,1.0,1.0,1.0
48.69,157.0,1.0,1.0,1.0
48.7,126.0,1.0,1.0,1.0
48.71,117.0111,1.0,1.0,1.0
48.72,101.5056,1.0,1.0,1.0
48.73,92.4944,1.0,1.0,1.0
48.74,112.4833,1.0,1.0,1.0
48.75,110.5056,1.0,1.0,1.0
48.76,91.5167,1.0,1.0,1.0
48.77,86.0,1.0,1.0,1.0
48.78,81.0,1.0,1.0,1.0
48.79,113.9778,1.0,1.0,1.0
48.8,117.0111,1.0,1.0,1.0
48.81,109.9889,1.0,1.0,1.0
48.82,131.4944,1.0,1.0,1.0
48.83,120.0111,1.0,1.0,1.0
48.84,138.0,1.0,1.0,1.0
48.85,144.4944,1.0,1.0,1.0
48.86,197.4944,1.0,1.0,1.0
48.87,136.5056,1.0,1.0,1.0
48.88,148.4944,1.0,1.0,1.0
48.89,186.5056,1.0,1.0,1.0
48.9,130.5056,1.0,1.0,1.0
48.91,144.0,1.0,1.0,1.0
48.92,166.9889,1.0,1.0,1.0
48.93,143.5167,1.0,1.0,1.0
48.94,140.4833,1.0,1.0,1.0
48.95,160.0111,1.0,1.0,1.0
48.96,137.0111,1.0,1.0,1.0
48.97,149.4944,1.0,1.0,1.0
48.98,122.4944,1.0,1.0,1.0
48.99,142.0,1.0,1.0,1.0
49.0,128.5167,1.0,1.0,1.0
49.01,113.0,1.0,1.0,1.0
49.02,87.9778,1.0,1.0,1.0
49.03,106.5167,1.0,1.0,1.0
49.04,101.4833,1.0,1.0,1.0
49.05,80.0111,1.0,1.0,1.0
49.06,94.0111,1.0,1.0,1.0
49.07,83.4833,1.0,1.0,1.0
49.08,64.5056,1.0,1.0,1.0
49.09,98.0,1.0,1.0,1.0
49.1,90.5056,1.0,1.0,1.0
49.11,73.9889,1.0,1.0,1.0
49.12,101.5167,1.0,1.0,1.0
49.13,83.0,1.0,1.0,1.0
49.14,82.4944,1.0,1.0,1.0
49.15,103.0,1.0,1.0,1.0
49.16,88.0,1.0,1.0,1.0
49.17,96.5056,1.0,1.0,1.0
49.18,83.4944,1.0,1.0,1.0
49.19,88.9889,1.0,1.0,1.0
49.2,108.0,1.0,1.0,1.0
49.21,103.0111,1.0,1.0,1.0
49.22,148.9889,1.0,1.0,1.0
49.23,135.0111,1.0,1.0,1.0
49.24,92.0,1.0,1.0,1.0
49.25,116.9889,1.0,1.0,1.0
49.26,123.4944,1.0,1.0,1.0
49.27,114.0,1.0,1.0,1.0
49.28,77.0111,1.0,1.0,1.0
49.29,113.4944,1.0,1.0,1.0
49.3,97.5167,1.0,1.0,1.0
49.31,90.4833,1.0,1.0,1.0
49.32,72.4944,1.0,1.0,1.0
49.33,98.0,1.0,1.0,1.0
49.34,83.0222,1.0,1.0,1.0
49.35,65.0,1.0,1.0,1.0
49.36,97.4944,1.0,1.0,1.0
49.37,76.4944,1.0,1.0,1.0
49.38,72.5056,1.0,1.0,1.0
49.39,81.9889,1.0,1.0,1.0
49.4,85.0,1.0,1.0,1.0
49.41,61.5056,1.0,1.0,1.0
49.42,78.0111,1.0,1.0,1.0
49.43,51.0,1.0,1.0,1.0
49.44,70.4944,1.0,1.0,1.0
49.45,53.0,1.0,1.0,1.0
49.46,39.0,1.0,1.0,1.0
49.47,84.4944,1.0,1.0,1.0
49.48,62.0111,1.0,1.0,1.0
49.49,60.4944,1.0,1.0,1.0
49.5,65.5056,1.0,1.0,1.0
49.51,67.9889,1.0,1.0,1.0
49.52,85.0,1.0,1.0,1.0
49.53,49.4833,1.0,1.0,1.0
49.54,75.5056,1.0,1.0,1.0
49.55,80.0222,1.0,1.0,1.0
49.56,67.4944,1.0,1.0,1.0
49.57,71.0,1.0,1.0,1.0
49.58,79.0,1.0,1.0,1.0
49.59,72.4944,1.0,1.0,1.0
49.6,68.9889,1.0,1.0,1.0
49.61,91.5167,1.0,1.0,1.0
49.62,76.4833,1.0,1.0,1.0
49.63,53.5056,1.0,1.0,1.0
49.64,85.0,1.0,1.0,1.0
49.65,69.5167,1.0,1.0,1.0
49.66,70.9778,1.0,1.0,1.0
49.67,48.5056,1.0,1.0,1.0
49.68,67.5167,1.0,1.0,1.0
49.69,64.4833,1.0,1.0,1.0
49.7,64.5167,1.0,1.0,1.0
49.71,66.4944,1.0,1.0,1.0
49.72,61.4944,1.0,1.0,1.0
49.73,47.0,1.0,1.0,1.0
49.74,77.0111,1.0,1.0,1.0
49.75,41.4944,1.0,1.0,1.0
49.76,41.5056,1.0,1.0,1.0
49.77,43.0,1.0,1.0,1.0
49.78,56.9889,1.0,1.0,1.0
49.79,64.0,1.0,1.0,1.0
49.8,36.0111,1.0,1.0,1.0
49.81,37.4944,1.0,1.0,1.0
49.82,40.0,1.0,1.0,1.0
49.83,46.0,1.0,1.0,1.0
49.84,45.4944,1.0,1.0,1.0
49.85,42.5056,1.0,1.0,1.0
49.86,59.4944,1.0,1.0,1.0
49.87,66.0,1.0,1.0,1.0
49.88,49.0111,1.0,1.0,1.0
49.89,53.0,1.0,1.0,1.0
49.9,60.4833,1.0,1.0,1.0
49.91,62.0111,1.0,1.0,1.0
49.92,62.0,1.0,1.0,1.0
49.93,45.0,1.0,1.0,1.0
49.94,62.4944,1.0,1.0,1.0
49.95,61.0111,1.0,1.0,1.0
49.96,38.9889,1.0,1.0,1.0
49.97,56.0111,1.0,1.0,1.0
49.98,54.9889,1.0,1.0,1.0
49.99,55.5056,1.0,1.0,1.0
50.0,45.0,1.0,1.0,1.0
50.01,64.0,1.0,1.0,1.0
50.02,79.5056,1.0,1.0,1.0
50.03,47.4944,1.0,1.0,1.0
50.04,61.9889,1.0,1.0,1.0
50.05,44.5167,1.0,1.0,1.0
50.06,19.4944,1.0,1.0,1.0
50.07,30.5056,1.0,1.0,1.0
50.08,52.0,1.0,1.0,1.0
50.09,37.0,1.0,1.0,1.0
50.1,29.9889,1.0,1.0,1.0
50.11,32.5056,1.0,1.0,1.0
50.12,25.4944,1.0,1.0,1.0
50.13,47.0,1.0,1.0,1.0
50.14,33.5056,1.0,1.0,1.0
50.15,47.0,1.0,1.0,1.0
50.16,39.5056,1.0,1.0,1.0
50.17,43.9889,1.0,1.0,1.0
50.18,43.5056,1.0,1.0,1.0
50.19,41.4833,1.0,1.0,1.0
50.2,45.0222,1.0,1.0,1.0
50.21,40.0,1.0,1.0,1.0
50.22,25.0,1.0,1.0,1.0
50.23,44.9889,1.0,1.0,1.0
50.24,47.5056,1.0,1.0,1.0
50.25,50.4944,1.0,1.0,1.0
50.26,36.5056,1.0,1.0,1.0
50.27,43.5056,1.0,1.0,1.0
50.28,44.0,1.0,1.0,1.0
50.29,46.0,1.0,1.0,1.0
50.3,26.9889,1.0,1.0,1.0
50.31,27.5056,1.0,1.0,1.0
50.32,34.5056,1.0,1.0,1.0
50.33,33.0,1.0,1.0,1.0
50.34,36.0,1.0,1.0,1.0
50.35,46.4944,1.0,1.0,1.0
50.36,34.5056,1.0,1.0,1.0
50.37,29.0,1.0,1.0,1.0
50.38,45.0,1.0,1.0,1.0
50.39,41.4944,1.0,1.0,1.0
50.4,39.5056,1.0,1.0,1.0
50.41,45.0,1.0,1.0,1.0
50.42,31.4833,1.0,1.0,1.0
50.43,59.5056,1.0,1.0,1.0
50.44,47.0111,1.0,1.0,1.0
50.45,40.4944,1.0,1.0,1.0
50.46,57.0,1.0,1.0,1.0
50.47,41.9889,1.0,1.0,1.0
50.48,38.5167,1.0,1.0,1.0
50.49,37.4833,1.0,1.0,1.0
50.5,30.5167,1.0,1.0,1.0
50.51,20.0,1.0,1.0,1.0
50.52,33.0,1.0,1.0,1.0
50.53,40.0,1.0,1.0,1.0
50.54,28.4944,1.0,1.0,1.0
50.55,39.5056,1.0,1.0,1.0
50.56,21.0,1.0,1.0,1.0
50.57,38.4944,1.0,1.0,1.0
50.58,18.5056,1.0,1.0,1.0
50.59,35.0,1.0,1.0,1.0
50.6,21.4944,1.0,1.0,1.0
50.61,32.5056,1.0,1.0,1.0
50.62,29.9889,1.0,1.0,1.0
50.63,20.0111,1.0,1.0,1.0
50.64,26.0,1.0,1.0,1.0
50.65,43.0,1.0,1.0,1.0
50.66,41.0,1.0,1.0,1.0
50.67,40.4944,1.0,1.0,1.0
50.68,38.0,1.0,1.0,1.0
50.69,35.0,1.0,1.0,1.0
50.7,23.5056,1.0,1.0,1.0
50.71,32.4944,1.0,1.0,1.0
50.72,30.0,1.0,1.0,1.0
50.73,45.5056,1.0,1.0,1.0
50.74,34.0,1.0,1.0,1.0
50.75,36.4944,1.0,1.0,1.0
50.76,31.5056,1.0,1.0,1.0
50.77,26.9889,1.0,1.0,1.0
50.78,52.0111,1.0,1.0,1.0
50.79,29.4944,1.0,1.0,1.0
50.8,39.9889,1.0,1.0,1.0
50.81,35.5167,1.0,1.0,1.0
50.82,21.9889,1.0,1.0,1.0
50.83,41.5056,1.0,1.0,1.0
50.84,17.5056,1.0,1.0,1.0
50.85,37.0,1.0,1.0,1.0
50.86,34.4944,1.0,1.0,1.0
50.87,24.5056,1.0,1.0,1.0
50.88,24.0,1.0,1.0,1.0
50.89,28.9889,1.0,1.0,1.0
50.9,40.0,1.0,1.0,1.0
50.91,35.0111,1.0,1.0,1.0
50.92,31.4944,1.0,1.0,1.0
50.93,39.5056,1.0,1.0,1.0
50.94,28.0,1.0,1.0,1.0
50.95,49.9889,1.0,1.0,1.0
50.96,35.0111,1.0,1.0,1.0
50.97,27.9889,1.0,1.0,1.0
50.98,31.0,1.0,1.0,1.0
50.99,26.0111,1.0,1.0,1.0
51.0,28.0,1.0,1.0,1.0
51.01,22.0,1.0,1.0,1.0
51.02,37.0,1.0,1.0,1.0
51.03,29.4944,1.0,1.0,1.0
51.04,31.9889,1.0,1.0,1.0
51.05,21.5167,1.0,1.0,1.0
51.06,39.0,1.0,1.0,1.0
51.07,31.0,1.0,1.0,1.0
51.08,32.9889,1.0,1.0,1.0
51.09,36.0111,1.0,1.0,1.0
51.1,42.0,1.0,1.0,1.0
51.11,28.0,1.0,1.0,1.0
51.12,28.0,1.0,1.0,1.0
51.13,30.0,1.0,1.0,1.0
51.14,24.4944,1.0,1.0,1.0
51.15,23.0,1.0,1.0,1.0
51.16,23.0,1.0,1.0,1.0
51.17,31.5056,1.0,1.0,1.0
51.18,21.4944,1.0,1.0,1.0
51.19,27.5056,1.0,1.0,1.0
51.2,24.4944,1.0,1.0,1.0
51.21,37.5056,1.0,1.0,1.0
51.22,28.0,1.0,1.0,1.0
51.23,31.0,1.0,1.0,1.0
51.24,19.0,1.0,1.0,1.0
51.25,28.0,1.0,1.0,1.0
51.26,32.4944,1.0,1.0,1.0
51.27,27.5056,1.0,1.0,1.0
51.28,29.0,1.0,1.0,1.0
51.29,46.0,1.0,1.0,1.0
51.3,16.0,1.0,1.0,1.0
51.31,33.0,1.0,1.0,1.0
51.32,38.0,1.0,1.0,1.0
51.33,22.9889,1.0,1.0,1.0
51.34,35.5056,1.0,1.0,1.0
51.35,32.5056,1.0,1.0,1.0
51.36,8.4944,1.0,1.0,1.0
51.37,30.0,1.0,1.0,1.0
51.38,25.5056,1.0,1.0,1.0
51.39,26.0,1.0,1.0,1.0
51.4,31.0,1.0,1.0,1.0
51.41,23.9889,1.0,1.0,1.0
51.42,24.0,1.0,1.0,1.0
51.43,24.0111,1.0,1.0,1.0
51.44,22.9778,1.0,1.0,1.0
51.45,28.0222,1.0,1.0,1.0
51.46,16.0,1.0,1.0,1.0
51.47,12.0,1.0,1.0,1.0
51.48,18.4944,1.0,1.0,1.0
51.49,19.5056,1.0,1.0,1.0
51.5,32.0,1.0,1.0,1.0
51.51,20.9889,1.0,1.0,1.0
51.52,30.5056,1.0,1.0,1.0
51.53,41.5056,1.0,1.0,1.0
51.54,11.4944,1.0,1.0,1.0
51.55,28.0,1.0,1.0,1.0
51.56,35.5056,1.0,1.0,1.0
51.57,18.0,1.0,1.0,1.0
51.58,23.0,1.0,1.0,1.0
51.59,29.0,1.0,1.0,1.0
51.6,30.0,1.0,1.0,1.0
51.61,26.4944,1.0,1.0,1.0
51.62,36.5056,1.0,1.0,1.0
51.63,20.0,1.0,1.0,1.0
51.64,18.0,1.0,1.0,1.0
51.65,45.0,1.0,1.0,1.0
51.66,29.0,1.0,1.0,1.0
51.67,22.0,1.0,1.0,1.0
51.68,34.0,1.0,1.0,1.0
51.69,26.0,1.0,1.0,1.0
51.7,17.4944,1.0,1.0,1.0
51.71,13.5056,1.0,1.0,1.0
51.72,25.0,1.0,1.0,1.0
51.73,17.0,1.0,1.0,1.0
51.74,35.4833,1.0,1.0,1.0
51.75,13.5167,1.0,1.0,1.0
51.76,11.0,1.0,1.0,1.0
51.77,13.0,1.0,1.0,1.0
51.78,15.4944,1.0,1.0,1.0
51.79,18.5056,1.0,1.0,1.0
51.8,24.0,1.0,1.0,1.0
51.81,38.0,1.0,1.0,1.0
51.82,25.9889,1.0,1.0,1.0
51.83,30.0111,1.0,1.0,1.0
51.84,30.9889,1.0,1.0,1.0
51.85,22.5056,1.0,1.0,1.0
51.86,27.0,1.0,1.0,1.0
51.87,34.4944,1.0,1.0,1.0
51.88,14.0111,1.0,1.0,1.0
51.89,19.4944,1.0,1.0,1.0
51.9,17.0,1.0,1.0,1.0
51.91,27.5056,1.0,1.0,1.0
51.92,21.9889,1.0,1.0,1.0
51.93,29.0111,1.0,1.0,1.0
51.94,23.0,1.0,1.0,1.0
51.95,26.4944,1.0,1.0,1.0
51.96,28.0,1.0,1.0,1.0
51.97,12.5056,1.0,1.0,1.0
51.98,31.4944,1.0,1.0,1.0
51.99,16.0,1.0,1.0,1.0
52.0,17.0,1.0,1.0,1.0