File: XRD:XRR/LCO/22151a_LCOT/22151a_LCOT_XRD.csv
#twotheta, yobs, ycal, bkg, diff
42.0,11.0,1.0,1.0,1.0
42.01,10.0,1.0,1.0,1.0
42.02,3.0,1.0,1.0,1.0
42.03,6.0,1.0,1.0,1.0
42.04,13.0,1.0,1.0,1.0
42.05,17.0,1.0,1.0,1.0
42.06,13.0,1.0,1.0,1.0
42.07,17.9889,1.0,1.0,1.0
42.08,16.5056,1.0,1.0,1.0
42.09,21.4944,1.0,1.0,1.0
42.1,12.5056,1.0,1.0,1.0
42.11,10.5056,1.0,1.0,1.0
42.12,11.0,1.0,1.0,1.0
42.13,17.4944,1.0,1.0,1.0
42.14,17.5056,1.0,1.0,1.0
42.15,12.0,1.0,1.0,1.0
42.16,16.4944,1.0,1.0,1.0
42.17,6.5056,1.0,1.0,1.0
42.18,10.0,1.0,1.0,1.0
42.19,7.0,1.0,1.0,1.0
42.2,15.0,1.0,1.0,1.0
42.21,11.0,1.0,1.0,1.0
42.22,20.0,1.0,1.0,1.0
42.23,16.9889,1.0,1.0,1.0
42.24,8.5056,1.0,1.0,1.0
42.25,9.5056,1.0,1.0,1.0
42.26,22.0,1.0,1.0,1.0
42.27,21.0,1.0,1.0,1.0
42.28,9.4944,1.0,1.0,1.0
42.29,14.5056,1.0,1.0,1.0
42.3,13.0,1.0,1.0,1.0
42.31,17.0,1.0,1.0,1.0
42.32,5.4944,1.0,1.0,1.0
42.33,16.5056,1.0,1.0,1.0
42.34,11.0,1.0,1.0,1.0
42.35,22.0,1.0,1.0,1.0
42.36,11.0,1.0,1.0,1.0
42.37,9.0,1.0,1.0,1.0
42.38,9.0,1.0,1.0,1.0
42.39,8.0,1.0,1.0,1.0
42.4,13.0,1.0,1.0,1.0
42.41,18.0,1.0,1.0,1.0
42.42,7.0,1.0,1.0,1.0
42.43,10.0,1.0,1.0,1.0
42.44,4.0,1.0,1.0,1.0
42.45,13.0,1.0,1.0,1.0
42.46,16.0,1.0,1.0,1.0
42.47,7.0,1.0,1.0,1.0
42.48,5.9889,1.0,1.0,1.0
42.49,18.0111,1.0,1.0,1.0
42.5,4.0,1.0,1.0,1.0
42.51,12.0,1.0,1.0,1.0
42.52,1.0,1.0,1.0,1.0
42.53,4.0,1.0,1.0,1.0
42.54,11.0,1.0,1.0,1.0
42.55,11.0,1.0,1.0,1.0
42.56,12.0,1.0,1.0,1.0
42.57,18.0,1.0,1.0,1.0
42.58,6.0,1.0,1.0,1.0
42.59,8.0,1.0,1.0,1.0
42.6,26.0,1.0,1.0,1.0
42.61,3.0,1.0,1.0,1.0
42.62,16.4944,1.0,1.0,1.0
42.63,9.5056,1.0,1.0,1.0
42.64,13.0,1.0,1.0,1.0
42.65,15.0,1.0,1.0,1.0
42.66,3.4944,1.0,1.0,1.0
42.67,16.5056,1.0,1.0,1.0
42.68,3.0,1.0,1.0,1.0
42.69,17.0,1.0,1.0,1.0
42.7,12.4944,1.0,1.0,1.0
42.71,12.5056,1.0,1.0,1.0
42.72,15.0,1.0,1.0,1.0
42.73,12.0,1.0,1.0,1.0
42.74,7.0,1.0,1.0,1.0
42.75,15.0,1.0,1.0,1.0
42.76,10.0,1.0,1.0,1.0
42.77,3.4944,1.0,1.0,1.0
42.78,10.0,1.0,1.0,1.0
42.79,24.5056,1.0,1.0,1.0
42.8,15.0,1.0,1.0,1.0
42.81,3.0,1.0,1.0,1.0
42.82,3.0,1.0,1.0,1.0
42.83,4.0,1.0,1.0,1.0
42.84,8.4944,1.0,1.0,1.0
42.85,6.5056,1.0,1.0,1.0
42.86,16.0,1.0,1.0,1.0
42.87,4.0,1.0,1.0,1.0
42.88,15.4944,1.0,1.0,1.0
42.89,11.5056,1.0,1.0,1.0
42.9,17.0,1.0,1.0,1.0
42.91,8.4944,1.0,1.0,1.0
42.92,16.0,1.0,1.0,1.0
42.93,14.5056,1.0,1.0,1.0
42.94,7.9889,1.0,1.0,1.0
42.95,12.0111,1.0,1.0,1.0
42.96,16.0,1.0,1.0,1.0
42.97,6.0,1.0,1.0,1.0
42.98,9.0,1.0,1.0,1.0
42.99,17.0,1.0,1.0,1.0
43.0,7.0,1.0,1.0,1.0
43.01,4.0,1.0,1.0,1.0
43.02,9.0,1.0,1.0,1.0
43.03,8.0,1.0,1.0,1.0
43.04,22.0,1.0,1.0,1.0
43.05,13.0,1.0,1.0,1.0
43.06,19.0,1.0,1.0,1.0
43.07,2.0,1.0,1.0,1.0
43.08,19.0,1.0,1.0,1.0
43.09,14.0,1.0,1.0,1.0
43.1,17.0,1.0,1.0,1.0
43.11,19.4944,1.0,1.0,1.0
43.12,11.5056,1.0,1.0,1.0
43.13,2.4944,1.0,1.0,1.0
43.14,10.5056,1.0,1.0,1.0
43.15,14.0,1.0,1.0,1.0
43.16,17.0,1.0,1.0,1.0
43.17,17.0,1.0,1.0,1.0
43.18,11.0,1.0,1.0,1.0
43.19,14.0,1.0,1.0,1.0
43.2,4.0,1.0,1.0,1.0
43.21,4.0,1.0,1.0,1.0
43.22,14.0,1.0,1.0,1.0
43.23,12.0,1.0,1.0,1.0
43.24,13.0,1.0,1.0,1.0
43.25,25.0,1.0,1.0,1.0
43.26,9.0,1.0,1.0,1.0
43.27,20.0,1.0,1.0,1.0
43.28,12.0,1.0,1.0,1.0
43.29,22.4944,1.0,1.0,1.0
43.3,15.5056,1.0,1.0,1.0
43.31,5.0,1.0,1.0,1.0
43.32,21.0,1.0,1.0,1.0
43.33,11.4944,1.0,1.0,1.0
43.34,12.5056,1.0,1.0,1.0
43.35,20.0,1.0,1.0,1.0
43.36,12.0,1.0,1.0,1.0
43.37,15.0,1.0,1.0,1.0
43.38,8.0,1.0,1.0,1.0
43.39,16.0,1.0,1.0,1.0
43.4,17.0,1.0,1.0,1.0
43.41,16.0,1.0,1.0,1.0
43.42,24.0,1.0,1.0,1.0
43.43,19.4944,1.0,1.0,1.0
43.44,16.5056,1.0,1.0,1.0
43.45,11.0,1.0,1.0,1.0
43.46,28.0,1.0,1.0,1.0
43.47,20.0,1.0,1.0,1.0
43.48,13.4944,1.0,1.0,1.0
43.49,16.5056,1.0,1.0,1.0
43.5,9.0,1.0,1.0,1.0
43.51,15.0,1.0,1.0,1.0
43.52,20.0,1.0,1.0,1.0
43.53,13.0,1.0,1.0,1.0
43.54,12.4944,1.0,1.0,1.0
43.55,23.5056,1.0,1.0,1.0
43.56,4.0,1.0,1.0,1.0
43.57,23.0,1.0,1.0,1.0
43.58,8.0,1.0,1.0,1.0
43.59,13.0,1.0,1.0,1.0
43.6,14.4944,1.0,1.0,1.0
43.61,23.0,1.0,1.0,1.0
43.62,17.5056,1.0,1.0,1.0
43.63,25.0,1.0,1.0,1.0
43.64,11.9889,1.0,1.0,1.0
43.65,22.0111,1.0,1.0,1.0
43.66,17.4944,1.0,1.0,1.0
43.67,32.5056,1.0,1.0,1.0
43.68,12.0,1.0,1.0,1.0
43.69,21.9889,1.0,1.0,1.0
43.7,29.5056,1.0,1.0,1.0
43.71,25.0,1.0,1.0,1.0
43.72,27.5056,1.0,1.0,1.0
43.73,24.0,1.0,1.0,1.0
43.74,24.0,1.0,1.0,1.0
43.75,31.4944,1.0,1.0,1.0
43.76,32.5056,1.0,1.0,1.0
43.77,28.4944,1.0,1.0,1.0
43.78,26.5056,1.0,1.0,1.0
43.79,31.0,1.0,1.0,1.0
43.8,40.0,1.0,1.0,1.0
43.81,41.4944,1.0,1.0,1.0
43.82,13.5056,1.0,1.0,1.0
43.83,29.0,1.0,1.0,1.0
43.84,30.0,1.0,1.0,1.0
43.85,31.0,1.0,1.0,1.0
43.86,28.0,1.0,1.0,1.0
43.87,25.0,1.0,1.0,1.0
43.88,46.0,1.0,1.0,1.0
43.89,24.0,1.0,1.0,1.0
43.9,23.0,1.0,1.0,1.0
43.91,26.4944,1.0,1.0,1.0
43.92,39.5056,1.0,1.0,1.0
43.93,27.4833,1.0,1.0,1.0
43.94,40.0111,1.0,1.0,1.0
43.95,22.5056,1.0,1.0,1.0
43.96,41.4944,1.0,1.0,1.0
43.97,42.4944,1.0,1.0,1.0
43.98,33.0111,1.0,1.0,1.0
43.99,25.0,1.0,1.0,1.0
44.0,43.4944,1.0,1.0,1.0
44.01,41.5056,1.0,1.0,1.0
44.02,33.4944,1.0,1.0,1.0
44.03,42.5056,1.0,1.0,1.0
44.04,29.0,1.0,1.0,1.0
44.05,43.0,1.0,1.0,1.0
44.06,46.4944,1.0,1.0,1.0
44.07,46.0,1.0,1.0,1.0
44.08,43.9889,1.0,1.0,1.0
44.09,40.0,1.0,1.0,1.0
44.1,54.5167,1.0,1.0,1.0
44.11,48.0,1.0,1.0,1.0
44.12,50.0,1.0,1.0,1.0
44.13,57.0,1.0,1.0,1.0
44.14,46.0,1.0,1.0,1.0
44.15,45.9889,1.0,1.0,1.0
44.16,37.0111,1.0,1.0,1.0
44.17,40.4944,1.0,1.0,1.0
44.18,56.5056,1.0,1.0,1.0
44.19,59.0,1.0,1.0,1.0
44.2,43.0,1.0,1.0,1.0
44.21,59.0,1.0,1.0,1.0
44.22,43.4944,1.0,1.0,1.0
44.23,55.5056,1.0,1.0,1.0
44.24,51.9778,1.0,1.0,1.0
44.25,74.0111,1.0,1.0,1.0
44.26,65.5056,1.0,1.0,1.0
44.27,60.0,1.0,1.0,1.0
44.28,60.0,1.0,1.0,1.0
44.29,79.0,1.0,1.0,1.0
44.3,85.0,1.0,1.0,1.0
44.31,68.4944,1.0,1.0,1.0
44.32,64.0111,1.0,1.0,1.0
44.33,89.9889,1.0,1.0,1.0
44.34,83.5056,1.0,1.0,1.0
44.35,63.9889,1.0,1.0,1.0
44.36,66.5056,1.0,1.0,1.0
44.37,84.4944,1.0,1.0,1.0
44.38,67.0,1.0,1.0,1.0
44.39,72.0111,1.0,1.0,1.0
44.4,66.0,1.0,1.0,1.0
44.41,64.5056,1.0,1.0,1.0
44.42,66.4944,1.0,1.0,1.0
44.43,73.0,1.0,1.0,1.0
44.44,78.4944,1.0,1.0,1.0
44.45,72.5056,1.0,1.0,1.0
44.46,72.0,1.0,1.0,1.0
44.47,68.5056,1.0,1.0,1.0
44.48,101.4944,1.0,1.0,1.0
44.49,95.4944,1.0,1.0,1.0
44.5,76.0111,1.0,1.0,1.0
44.51,103.4722,1.0,1.0,1.0
44.52,89.5278,1.0,1.0,1.0
44.53,80.9889,1.0,1.0,1.0
44.54,83.5056,1.0,1.0,1.0
44.55,85.4944,1.0,1.0,1.0
44.56,122.0,1.0,1.0,1.0
44.57,89.0,1.0,1.0,1.0
44.58,83.0,1.0,1.0,1.0
44.59,70.4944,1.0,1.0,1.0
44.6,94.5167,1.0,1.0,1.0
44.61,129.4833,1.0,1.0,1.0
44.62,121.0111,1.0,1.0,1.0
44.63,109.0,1.0,1.0,1.0
44.64,109.4944,1.0,1.0,1.0
44.65,106.4944,1.0,1.0,1.0
44.66,109.0111,1.0,1.0,1.0
44.67,113.9778,1.0,1.0,1.0
44.68,126.5056,1.0,1.0,1.0
44.69,125.5056,1.0,1.0,1.0
44.7,128.0111,1.0,1.0,1.0
44.71,108.0,1.0,1.0,1.0
44.72,124.4944,1.0,1.0,1.0
44.73,132.4833,1.0,1.0,1.0
44.74,99.0111,1.0,1.0,1.0
44.75,122.0111,1.0,1.0,1.0
44.76,113.4944,1.0,1.0,1.0
44.77,137.0,1.0,1.0,1.0
44.78,123.0,1.0,1.0,1.0
44.79,113.5056,1.0,1.0,1.0
44.8,125.0,1.0,1.0,1.0
44.81,136.4944,1.0,1.0,1.0
44.82,144.9889,1.0,1.0,1.0
44.83,154.0111,1.0,1.0,1.0
44.84,161.9889,1.0,1.0,1.0
44.85,136.4944,1.0,1.0,1.0
44.86,166.0111,1.0,1.0,1.0
44.87,151.4944,1.0,1.0,1.0
44.88,159.0111,1.0,1.0,1.0
44.89,171.4833,1.0,1.0,1.0
44.9,135.0111,1.0,1.0,1.0
44.91,170.9889,1.0,1.0,1.0
44.92,164.0222,1.0,1.0,1.0
44.93,167.4944,1.0,1.0,1.0
44.94,182.4833,1.0,1.0,1.0
44.95,146.0111,1.0,1.0,1.0
44.96,170.0,1.0,1.0,1.0
44.97,166.0111,1.0,1.0,1.0
44.98,177.4944,1.0,1.0,1.0
44.99,176.4944,1.0,1.0,1.0
45.0,157.0,1.0,1.0,1.0
45.01,182.5167,1.0,1.0,1.0
45.02,163.4611,1.0,1.0,1.0
45.03,179.0111,1.0,1.0,1.0
45.04,203.0111,1.0,1.0,1.0
45.05,213.9778,1.0,1.0,1.0
45.06,207.0111,1.0,1.0,1.0
45.07,194.9889,1.0,1.0,1.0
45.08,188.0222,1.0,1.0,1.0
45.09,194.9889,1.0,1.0,1.0
45.1,172.4944,1.0,1.0,1.0
45.11,181.0,1.0,1.0,1.0
45.12,211.5167,1.0,1.0,1.0
45.13,188.5056,1.0,1.0,1.0
45.14,216.9778,1.0,1.0,1.0
45.15,212.5278,1.0,1.0,1.0
45.16,191.9889,1.0,1.0,1.0
45.17,237.5056,1.0,1.0,1.0
45.18,214.0,1.0,1.0,1.0
45.19,239.9556,1.0,1.0,1.0
45.2,250.0333,1.0,1.0,1.0
45.21,243.4944,1.0,1.0,1.0
45.22,236.0222,1.0,1.0,1.0
45.23,228.4722,1.0,1.0,1.0
45.24,267.5167,1.0,1.0,1.0
45.25,237.9778,1.0,1.0,1.0
45.26,235.0111,1.0,1.0,1.0
45.27,265.4944,1.0,1.0,1.0
45.28,256.0111,1.0,1.0,1.0
45.29,264.0,1.0,1.0,1.0
45.3,267.4833,1.0,1.0,1.0
45.31,286.0111,1.0,1.0,1.0
45.32,255.5056,1.0,1.0,1.0
45.33,283.5056,1.0,1.0,1.0
45.34,302.4944,1.0,1.0,1.0
45.35,325.4944,1.0,1.0,1.0
45.36,311.4944,1.0,1.0,1.0
45.37,315.0222,1.0,1.0,1.0
45.38,340.4722,1.0,1.0,1.0
45.39,313.5167,1.0,1.0,1.0
45.4,322.4833,1.0,1.0,1.0
45.41,341.0111,1.0,1.0,1.0
45.42,340.4833,1.0,1.0,1.0
45.43,331.4944,1.0,1.0,1.0
45.44,354.4944,1.0,1.0,1.0
45.45,329.0333,1.0,1.0,1.0
45.46,379.9778,1.0,1.0,1.0
45.47,376.9889,1.0,1.0,1.0
45.48,387.0111,1.0,1.0,1.0
45.49,380.9889,1.0,1.0,1.0
45.5,428.4944,1.0,1.0,1.0
45.51,364.5278,1.0,1.0,1.0
45.52,455.0,1.0,1.0,1.0
45.53,427.45,1.0,1.0,1.0
45.54,445.0111,1.0,1.0,1.0
45.55,433.0333,1.0,1.0,1.0
45.56,470.0,1.0,1.0,1.0
45.57,449.0,1.0,1.0,1.0
45.58,456.9889,1.0,1.0,1.0
45.59,508.9778,1.0,1.0,1.0
45.6,465.5278,1.0,1.0,1.0
45.61,512.4611,1.0,1.0,1.0
45.62,516.0333,1.0,1.0,1.0
45.63,524.9667,1.0,1.0,1.0
45.64,575.5278,1.0,1.0,1.0
45.65,543.4722,1.0,1.0,1.0
45.66,576.0111,1.0,1.0,1.0
45.67,598.9556,1.0,1.0,1.0
45.68,580.0444,1.0,1.0,1.0
45.69,574.0222,1.0,1.0,1.0
45.7,595.0,1.0,1.0,1.0
45.71,614.9889,1.0,1.0,1.0
45.72,633.0111,1.0,1.0,1.0
45.73,696.9778,1.0,1.0,1.0
45.74,649.5167,1.0,1.0,1.0
45.75,625.9667,1.0,1.0,1.0
45.76,657.4944,1.0,1.0,1.0
45.77,735.5167,1.0,1.0,1.0
45.78,714.5056,1.0,1.0,1.0
45.79,762.9445,1.0,1.0,1.0
45.8,746.0667,1.0,1.0,1.0
45.81,778.4944,1.0,1.0,1.0
45.82,850.9556,1.0,1.0,1.0
45.83,920.9889,1.0,1.0,1.0
45.84,890.0,1.0,1.0,1.0
45.85,897.5278,1.0,1.0,1.0
45.86,891.9778,1.0,1.0,1.0
45.87,989.4722,1.0,1.0,1.0
45.88,966.55,1.0,1.0,1.0
45.89,1039.48,1.0,1.0,1.0
45.9,1074.51,1.0,1.0,1.0
45.91,1048.99,1.0,1.0,1.0
45.92,1112.49,1.0,1.0,1.0
45.93,1122.48,1.0,1.0,1.0
45.94,1183.51,1.0,1.0,1.0
45.95,1137.49,1.0,1.0,1.0
45.96,1221.49,1.0,1.0,1.0
45.97,1335.48,1.0,1.0,1.0
45.98,1357.49,1.0,1.0,1.0
45.99,1385.99,1.0,1.0,1.0
46.0,1434.03,1.0,1.0,1.0
46.01,1512.49,1.0,1.0,1.0
46.02,1601.49,1.0,1.0,1.0
46.03,1643.44,1.0,1.0,1.0
46.04,1750.99,1.0,1.0,1.0
46.05,1785.52,1.0,1.0,1.0
46.06,1875.46,1.0,1.0,1.0
46.07,1984.56,1.0,1.0,1.0
46.08,2031.9,1.0,1.0,1.0
46.09,2071.53,1.0,1.0,1.0
46.1,2304.02,1.0,1.0,1.0
46.11,2315.94,1.0,1.0,1.0
46.12,2515.55,1.0,1.0,1.0
46.13,2567.46,1.0,1.0,1.0
46.14,2726.01,1.0,1.0,1.0
46.15,2919.48,1.0,1.0,1.0
46.16,3078.92,1.0,1.0,1.0
46.17,3231.97,1.0,1.0,1.0
46.18,3467.03,1.0,1.0,1.0
46.19,3780.41,1.0,1.0,1.0
46.2,3991.0,1.0,1.0,1.0
46.21,4244.45,1.0,1.0,1.0
46.22,4558.46,1.0,1.0,1.0
46.23,4979.53,1.0,1.0,1.0
46.24,5258.84,1.0,1.0,1.0
46.25,5529.99,1.0,1.0,1.0
46.26,6138.98,1.0,1.0,1.0
46.27,6835.82,1.0,1.0,1.0
46.28,7467.07,1.0,1.0,1.0
46.29,8371.98,1.0,1.0,1.0
46.3,9036.28,1.0,1.0,1.0
46.31,10271.3,1.0,1.0,1.0
46.32,11675.5,1.0,1.0,1.0
46.33,13517.8,1.0,1.0,1.0
46.34,15157.7,1.0,1.0,1.0
46.35,18092.5,1.0,1.0,1.0
46.36,22083.084,1.0,1.0,1.0
46.37,27686.5,1.0,1.0,1.0
46.38,36259,1.0,1.0,1.0
46.39,49382.8,1.0,1.0,1.0
46.4,68382.4,1.0,1.0,1.0
46.41,95697.9,1.0,1.0,1.0
46.42,143459,1.0,1.0,1.0
46.43,230660,1.0,1.0,1.0
46.44,410591,1.0,1.0,1.0
46.45,920524,1.0,1.0,1.0
46.46,4102734.0,1.0,1.0,1.0
46.47,16124457.0,1.0,1.0,1.0
46.48,26104628.0,1.0,1.0,1.0
46.49,26466720.0,1.0,1.0,1.0
46.5,15342462.0,1.0,1.0,1.0
46.51,5875746.0,1.0,1.0,1.0
46.52,1851899.125,1.0,1.0,1.0
46.53,578027.5,1.0,1.0,1.0
46.54,325128,1.0,1.0,1.0
46.55,197262,1.0,1.0,1.0
46.56,119458,1.0,1.0,1.0
46.57,73034.7,1.0,1.0,1.0
46.58,48382.5,1.0,1.0,1.0
46.59,34832.4,1.0,1.0,1.0
46.6,26383,1.0,1.0,1.0
46.61,20459,1.0,1.0,1.0
46.62,16636.7,1.0,1.0,1.0
46.63,13852.3,1.0,1.0,1.0
46.64,11754.1,1.0,1.0,1.0
46.65,10167.3,1.0,1.0,1.0
46.66,9025.18,1.0,1.0,1.0
46.67,8015.34,1.0,1.0,1.0
46.68,6906.75,1.0,1.0,1.0
46.69,6198.52,1.0,1.0,1.0
46.7,5690.02,1.0,1.0,1.0
46.71,5260.03,1.0,1.0,1.0
46.72,4684.59,1.0,1.0,1.0
46.73,4358.0,1.0,1.0,1.0
46.74,4084.61,1.0,1.0,1.0
46.75,3675.03,1.0,1.0,1.0
46.76,3395.01,1.0,1.0,1.0
46.77,3097.59,1.0,1.0,1.0
46.78,2877.48,1.0,1.0,1.0
46.79,2613.0,1.0,1.0,1.0
46.8,2532.96,1.0,1.0,1.0
46.81,2425.59,1.0,1.0,1.0
46.82,2262.55,1.0,1.0,1.0
46.83,2170.71,1.0,1.0,1.0
46.84,2012.79,1.0,1.0,1.0
46.85,1954.48,1.0,1.0,1.0
46.86,1794.42,1.0,1.0,1.0
46.87,1592.1,1.0,1.0,1.0
46.88,1537.99,1.0,1.0,1.0
46.89,1531.03,1.0,1.0,1.0
46.9,1426.07,1.0,1.0,1.0
46.91,1389.46,1.0,1.0,1.0
46.92,1323.46,1.0,1.0,1.0
46.93,1276.02,1.0,1.0,1.0
46.94,1203.0,1.0,1.0,1.0
46.95,1061.06,1.0,1.0,1.0
46.96,1079.48,1.0,1.0,1.0
46.97,1051.02,1.0,1.0,1.0
46.98,1066.51,1.0,1.0,1.0
46.99,935.4833,1.0,1.0,1.0
47.0,934.4944,1.0,1.0,1.0
47.01,862.5056,1.0,1.0,1.0
47.02,849.9667,1.0,1.0,1.0
47.03,786.0444,1.0,1.0,1.0
47.04,847.5056,1.0,1.0,1.0
47.05,785.4722,1.0,1.0,1.0
47.06,721.5389,1.0,1.0,1.0
47.07,685.0222,1.0,1.0,1.0
47.08,688.5056,1.0,1.0,1.0
47.09,682.4611,1.0,1.0,1.0
47.1,600.4944,1.0,1.0,1.0
47.11,631.0555,1.0,1.0,1.0
47.12,668.4833,1.0,1.0,1.0
47.13,599.4944,1.0,1.0,1.0
47.14,622.5056,1.0,1.0,1.0
47.15,567.0111,1.0,1.0,1.0
47.16,562.4833,1.0,1.0,1.0
47.17,563.0222,1.0,1.0,1.0
47.18,553.0111,1.0,1.0,1.0
47.19,530.45,1.0,1.0,1.0
47.2,459.5389,1.0,1.0,1.0
47.21,493.4944,1.0,1.0,1.0
47.22,463.0111,1.0,1.0,1.0
47.23,456.9667,1.0,1.0,1.0
47.24,432.5278,1.0,1.0,1.0
47.25,428.5056,1.0,1.0,1.0
47.26,427.4833,1.0,1.0,1.0
47.27,400.5056,1.0,1.0,1.0
47.28,393.0222,1.0,1.0,1.0
47.29,397.9889,1.0,1.0,1.0
47.3,365.0111,1.0,1.0,1.0
47.31,412.4722,1.0,1.0,1.0
47.32,374.5056,1.0,1.0,1.0
47.33,370.5056,1.0,1.0,1.0
47.34,357.5056,1.0,1.0,1.0
47.35,333.9889,1.0,1.0,1.0
47.36,348.5056,1.0,1.0,1.0
47.37,353.4944,1.0,1.0,1.0
47.38,344.5278,1.0,1.0,1.0
47.39,350.4833,1.0,1.0,1.0
47.4,351.5167,1.0,1.0,1.0
47.41,317.0,1.0,1.0,1.0
47.42,291.4944,1.0,1.0,1.0
47.43,341.4722,1.0,1.0,1.0
47.44,324.5167,1.0,1.0,1.0
47.45,288.5167,1.0,1.0,1.0
47.46,266.4833,1.0,1.0,1.0
47.47,280.5389,1.0,1.0,1.0
47.48,257.4722,1.0,1.0,1.0
47.49,300.5056,1.0,1.0,1.0
47.5,281.0,1.0,1.0,1.0
47.51,273.4944,1.0,1.0,1.0
47.52,274.9889,1.0,1.0,1.0
47.53,226.5167,1.0,1.0,1.0
47.54,283.0111,1.0,1.0,1.0
47.55,218.9667,1.0,1.0,1.0
47.56,250.5278,1.0,1.0,1.0
47.57,208.0,1.0,1.0,1.0
47.58,215.9889,1.0,1.0,1.0
47.59,213.4944,1.0,1.0,1.0
47.6,251.0333,1.0,1.0,1.0
47.61,221.4722,1.0,1.0,1.0
47.62,245.5167,1.0,1.0,1.0
47.63,213.9889,1.0,1.0,1.0
47.64,243.4722,1.0,1.0,1.0
47.65,202.5389,1.0,1.0,1.0
47.66,226.9667,1.0,1.0,1.0
47.67,233.0111,1.0,1.0,1.0
47.68,193.0111,1.0,1.0,1.0
47.69,201.0,1.0,1.0,1.0
47.7,193.5056,1.0,1.0,1.0
47.71,198.4944,1.0,1.0,1.0
47.72,236.4944,1.0,1.0,1.0
47.73,209.9778,1.0,1.0,1.0
47.74,196.0222,1.0,1.0,1.0
47.75,240.5167,1.0,1.0,1.0
47.76,199.4833,1.0,1.0,1.0
47.77,172.5167,1.0,1.0,1.0
47.78,185.9778,1.0,1.0,1.0
47.79,226.0111,1.0,1.0,1.0
47.8,180.0111,1.0,1.0,1.0
47.81,219.9889,1.0,1.0,1.0
47.82,189.5056,1.0,1.0,1.0
47.83,156.9889,1.0,1.0,1.0
47.84,183.5167,1.0,1.0,1.0
47.85,152.9889,1.0,1.0,1.0
47.86,180.5167,1.0,1.0,1.0
47.87,183.4944,1.0,1.0,1.0
47.88,183.4833,1.0,1.0,1.0
47.89,157.0,1.0,1.0,1.0
47.9,186.0111,1.0,1.0,1.0
47.91,195.4944,1.0,1.0,1.0
47.92,196.5056,1.0,1.0,1.0
47.93,195.4833,1.0,1.0,1.0
47.94,187.5056,1.0,1.0,1.0
47.95,180.4944,1.0,1.0,1.0
47.96,172.0111,1.0,1.0,1.0
47.97,131.0111,1.0,1.0,1.0
47.98,139.0,1.0,1.0,1.0
47.99,163.9889,1.0,1.0,1.0
48.0,181.0,1.0,1.0,1.0
48.01,158.0111,1.0,1.0,1.0
48.02,155.5056,1.0,1.0,1.0
48.03,145.4944,1.0,1.0,1.0
48.04,159.9889,1.0,1.0,1.0
48.05,175.5056,1.0,1.0,1.0
48.06,161.5056,1.0,1.0,1.0
48.07,124.9889,1.0,1.0,1.0
48.08,146.9889,1.0,1.0,1.0
48.09,136.0222,1.0,1.0,1.0
48.1,149.0,1.0,1.0,1.0
48.11,161.0,1.0,1.0,1.0
48.12,138.4944,1.0,1.0,1.0
48.13,131.0,1.0,1.0,1.0
48.14,131.4944,1.0,1.0,1.0
48.15,153.0111,1.0,1.0,1.0
48.16,169.4833,1.0,1.0,1.0
48.17,157.5056,1.0,1.0,1.0
48.18,144.5056,1.0,1.0,1.0
48.19,125.4944,1.0,1.0,1.0
48.2,103.0111,1.0,1.0,1.0
48.21,136.0111,1.0,1.0,1.0
48.22,89.9778,1.0,1.0,1.0
48.23,140.0111,1.0,1.0,1.0
48.24,149.5056,1.0,1.0,1.0
48.25,144.4833,1.0,1.0,1.0
48.26,144.0,1.0,1.0,1.0
48.27,99.4944,1.0,1.0,1.0
48.28,138.5167,1.0,1.0,1.0
48.29,125.9889,1.0,1.0,1.0
48.3,135.4944,1.0,1.0,1.0
48.31,129.0,1.0,1.0,1.0
48.32,128.0222,1.0,1.0,1.0
48.33,155.4944,1.0,1.0,1.0
48.34,156.9889,1.0,1.0,1.0
48.35,118.0222,1.0,1.0,1.0
48.36,104.4944,1.0,1.0,1.0
48.37,108.4944,1.0,1.0,1.0
48.38,120.4944,1.0,1.0,1.0
48.39,134.0111,1.0,1.0,1.0
48.4,121.0,1.0,1.0,1.0
48.41,99.9889,1.0,1.0,1.0
48.42,117.0111,1.0,1.0,1.0
48.43,144.0,1.0,1.0,1.0
48.44,121.4944,1.0,1.0,1.0
48.45,105.0,1.0,1.0,1.0
48.46,103.4944,1.0,1.0,1.0
48.47,114.5056,1.0,1.0,1.0
48.48,106.9889,1.0,1.0,1.0
48.49,119.0222,1.0,1.0,1.0
48.5,100.9778,1.0,1.0,1.0
48.51,135.5056,1.0,1.0,1.0
48.52,82.5056,1.0,1.0,1.0
48.53,105.5056,1.0,1.0,1.0
48.54,111.9889,1.0,1.0,1.0
48.55,124.5056,1.0,1.0,1.0
48.56,91.9889,1.0,1.0,1.0
48.57,95.0222,1.0,1.0,1.0
48.58,116.4944,1.0,1.0,1.0
48.59,83.5056,1.0,1.0,1.0
48.6,117.4833,1.0,1.0,1.0
48.61,95.0111,1.0,1.0,1.0
48.62,113.9889,1.0,1.0,1.0
48.63,91.5056,1.0,1.0,1.0
48.64,101.4944,1.0,1.0,1.0
48.65,110.5167,1.0,1.0,1.0
48.66,99.0,1.0,1.0,1.0
48.67,111.9889,1.0,1.0,1.0
48.68,95.0,1.0,1.0,1.0
48.69,78.4833,1.0,1.0,1.0
48.7,137.5056,1.0,1.0,1.0
48.71,73.5056,1.0,1.0,1.0
48.72,95.0111,1.0,1.0,1.0
48.73,110.0,1.0,1.0,1.0
48.74,87.4722,1.0,1.0,1.0
48.75,100.5056,1.0,1.0,1.0
48.76,101.5278,1.0,1.0,1.0
48.77,93.9889,1.0,1.0,1.0
48.78,89.5056,1.0,1.0,1.0
48.79,87.5056,1.0,1.0,1.0
48.8,82.9889,1.0,1.0,1.0
48.81,66.0,1.0,1.0,1.0
48.82,91.0,1.0,1.0,1.0
48.83,73.0,1.0,1.0,1.0
48.84,86.5056,1.0,1.0,1.0
48.85,84.0,1.0,1.0,1.0
48.86,77.0,1.0,1.0,1.0
48.87,94.9778,1.0,1.0,1.0
48.88,83.0111,1.0,1.0,1.0
48.89,96.0111,1.0,1.0,1.0
48.9,85.5056,1.0,1.0,1.0
48.91,65.0,1.0,1.0,1.0
48.92,59.9778,1.0,1.0,1.0
48.93,81.0111,1.0,1.0,1.0
48.94,86.4944,1.0,1.0,1.0
48.95,80.5167,1.0,1.0,1.0
48.96,76.9778,1.0,1.0,1.0
48.97,67.0222,1.0,1.0,1.0
48.98,91.4944,1.0,1.0,1.0
48.99,78.0,1.0,1.0,1.0
49.0,65.4944,1.0,1.0,1.0
49.01,91.0111,1.0,1.0,1.0
49.02,61.4944,1.0,1.0,1.0
49.03,56.0,1.0,1.0,1.0
49.04,79.0,1.0,1.0,1.0
49.05,69.4944,1.0,1.0,1.0
49.06,76.0111,1.0,1.0,1.0
49.07,61.0,1.0,1.0,1.0
49.08,79.4833,1.0,1.0,1.0
49.09,49.4944,1.0,1.0,1.0
49.1,55.0222,1.0,1.0,1.0
49.11,58.9889,1.0,1.0,1.0
49.12,70.5056,1.0,1.0,1.0
49.13,77.5056,1.0,1.0,1.0
49.14,64.9889,1.0,1.0,1.0
49.15,68.0111,1.0,1.0,1.0
49.16,68.0,1.0,1.0,1.0
49.17,62.0,1.0,1.0,1.0
49.18,61.9889,1.0,1.0,1.0
49.19,75.0111,1.0,1.0,1.0
49.2,67.4944,1.0,1.0,1.0
49.21,48.4944,1.0,1.0,1.0
49.22,214.0,1.0,1.0,1.0
49.23,57.0111,1.0,1.0,1.0
49.24,63.0,1.0,1.0,1.0
49.25,60.4944,1.0,1.0,1.0
49.26,65.9889,1.0,1.0,1.0
49.27,55.5056,1.0,1.0,1.0
49.28,60.0111,1.0,1.0,1.0
49.29,63.4944,1.0,1.0,1.0
49.3,69.0,1.0,1.0,1.0
49.31,54.5056,1.0,1.0,1.0
49.32,53.0,1.0,1.0,1.0
49.33,61.4833,1.0,1.0,1.0
49.34,57.5167,1.0,1.0,1.0
49.35,60.0,1.0,1.0,1.0
49.36,48.4833,1.0,1.0,1.0
49.37,20.5056,1.0,1.0,1.0
49.38,38.4944,1.0,1.0,1.0
49.39,33.5167,1.0,1.0,1.0
49.4,50.4944,1.0,1.0,1.0
49.41,54.9889,1.0,1.0,1.0
49.42,68.5167,1.0,1.0,1.0
49.43,45.0,1.0,1.0,1.0
49.44,40.9778,1.0,1.0,1.0
49.45,33.5167,1.0,1.0,1.0
49.46,60.5056,1.0,1.0,1.0
49.47,46.0,1.0,1.0,1.0
49.48,60.0,1.0,1.0,1.0
49.49,35.0,1.0,1.0,1.0
49.5,36.9889,1.0,1.0,1.0
49.51,53.0111,1.0,1.0,1.0
49.52,38.0,1.0,1.0,1.0
49.53,39.9889,1.0,1.0,1.0
49.54,41.0111,1.0,1.0,1.0
49.55,40.9889,1.0,1.0,1.0
49.56,38.4944,1.0,1.0,1.0
49.57,55.4944,1.0,1.0,1.0
49.58,45.0222,1.0,1.0,1.0
49.59,40.9889,1.0,1.0,1.0
49.6,43.5056,1.0,1.0,1.0
49.61,34.0,1.0,1.0,1.0
49.62,43.5056,1.0,1.0,1.0
49.63,40.0,1.0,1.0,1.0
49.64,37.0,1.0,1.0,1.0
49.65,32.0,1.0,1.0,1.0
49.66,28.0,1.0,1.0,1.0
49.67,37.0,1.0,1.0,1.0
49.68,15.4944,1.0,1.0,1.0
49.69,26.0,1.0,1.0,1.0
49.7,39.5056,1.0,1.0,1.0
49.71,33.0,1.0,1.0,1.0
49.72,27.0,1.0,1.0,1.0
49.73,36.0,1.0,1.0,1.0
49.74,16.0,1.0,1.0,1.0
49.75,34.0,1.0,1.0,1.0
49.76,34.0,1.0,1.0,1.0
49.77,27.0,1.0,1.0,1.0
49.78,18.4944,1.0,1.0,1.0
49.79,27.5056,1.0,1.0,1.0
49.8,27.4944,1.0,1.0,1.0
49.81,29.0,1.0,1.0,1.0
49.82,36.4944,1.0,1.0,1.0
49.83,14.0111,1.0,1.0,1.0
49.84,26.4944,1.0,1.0,1.0
49.85,39.5056,1.0,1.0,1.0
49.86,36.4944,1.0,1.0,1.0
49.87,21.5056,1.0,1.0,1.0
49.88,31.0,1.0,1.0,1.0
49.89,21.4944,1.0,1.0,1.0
49.9,41.5056,1.0,1.0,1.0
49.91,30.0,1.0,1.0,1.0
49.92,31.4944,1.0,1.0,1.0
49.93,18.5056,1.0,1.0,1.0
49.94,17.0,1.0,1.0,1.0
49.95,29.9889,1.0,1.0,1.0
49.96,22.0111,1.0,1.0,1.0
49.97,24.9889,1.0,1.0,1.0
49.98,17.0111,1.0,1.0,1.0
49.99,15.0,1.0,1.0,1.0
50.0,30.4944,1.0,1.0,1.0
50.01,30.0,1.0,1.0,1.0
50.02,15.5056,1.0,1.0,1.0
50.03,25.0,1.0,1.0,1.0
50.04,21.0,1.0,1.0,1.0
50.05,31.4944,1.0,1.0,1.0
50.06,18.0,1.0,1.0,1.0
50.07,27.5056,1.0,1.0,1.0
50.08,12.4944,1.0,1.0,1.0
50.09,27.5056,1.0,1.0,1.0
50.1,14.0,1.0,1.0,1.0
50.11,6.0,1.0,1.0,1.0
50.12,6.0,1.0,1.0,1.0
50.13,18.0,1.0,1.0,1.0
50.14,28.0,1.0,1.0,1.0
50.15,20.4944,1.0,1.0,1.0
50.16,23.4944,1.0,1.0,1.0
50.17,20.0111,1.0,1.0,1.0
50.18,18.0,1.0,1.0,1.0
50.19,14.0,1.0,1.0,1.0
50.2,9.0,1.0,1.0,1.0
50.21,27.4944,1.0,1.0,1.0
50.22,27.5056,1.0,1.0,1.0
50.23,12.0,1.0,1.0,1.0
50.24,20.0,1.0,1.0,1.0
50.25,22.0,1.0,1.0,1.0
50.26,21.0,1.0,1.0,1.0
50.27,11.0,1.0,1.0,1.0
50.28,9.0,1.0,1.0,1.0
50.29,16.0,1.0,1.0,1.0
50.3,14.0,1.0,1.0,1.0
50.31,10.0,1.0,1.0,1.0
50.32,14.4944,1.0,1.0,1.0
50.33,15.5056,1.0,1.0,1.0
50.34,18.0,1.0,1.0,1.0
50.35,13.0,1.0,1.0,1.0
50.36,13.0,1.0,1.0,1.0
50.37,17.4944,1.0,1.0,1.0
50.38,7.5056,1.0,1.0,1.0
50.39,12.0,1.0,1.0,1.0
50.4,14.4944,1.0,1.0,1.0
50.41,7.5056,1.0,1.0,1.0
50.42,15.9889,1.0,1.0,1.0
50.43,13.0111,1.0,1.0,1.0
50.44,20.0,1.0,1.0,1.0
50.45,17.0,1.0,1.0,1.0
50.46,10.4944,1.0,1.0,1.0
50.47,21.5056,1.0,1.0,1.0
50.48,16.0,1.0,1.0,1.0
50.49,18.0,1.0,1.0,1.0
50.5,9.0,1.0,1.0,1.0
50.51,12.0,1.0,1.0,1.0
50.52,15.0,1.0,1.0,1.0
50.53,13.4944,1.0,1.0,1.0
50.54,11.5056,1.0,1.0,1.0
50.55,9.0,1.0,1.0,1.0
50.56,6.0,1.0,1.0,1.0
50.57,13.0,1.0,1.0,1.0
50.58,2.0,1.0,1.0,1.0
50.59,6.0,1.0,1.0,1.0
50.6,4.0,1.0,1.0,1.0
50.61,4.4944,1.0,1.0,1.0
50.62,23.5056,1.0,1.0,1.0
50.63,10.0,1.0,1.0,1.0
50.64,6.4944,1.0,1.0,1.0
50.65,5.0,1.0,1.0,1.0
50.66,10.5056,1.0,1.0,1.0
50.67,10.0,1.0,1.0,1.0
50.68,5.0,1.0,1.0,1.0
50.69,3.0,1.0,1.0,1.0
50.7,10.4944,1.0,1.0,1.0
50.71,12.5056,1.0,1.0,1.0
50.72,3.0,1.0,1.0,1.0
50.73,6.4944,1.0,1.0,1.0
50.74,21.5056,1.0,1.0,1.0
50.75,15.0,1.0,1.0,1.0
50.76,7.0,1.0,1.0,1.0
50.77,3.0,1.0,1.0,1.0
50.78,10.0,1.0,1.0,1.0
50.79,8.0,1.0,1.0,1.0
50.8,10.4944,1.0,1.0,1.0
50.81,8.0,1.0,1.0,1.0
50.82,10.0,1.0,1.0,1.0
50.83,14.5056,1.0,1.0,1.0
50.84,7.0,1.0,1.0,1.0
50.85,6.0,1.0,1.0,1.0
50.86,13.0,1.0,1.0,1.0
50.87,6.0,1.0,1.0,1.0
50.88,14.0,1.0,1.0,1.0
50.89,11.0,1.0,1.0,1.0
50.9,12.0,1.0,1.0,1.0
50.91,11.4944,1.0,1.0,1.0
50.92,3.5056,1.0,1.0,1.0
50.93,3.0,1.0,1.0,1.0
50.94,4.0,1.0,1.0,1.0
50.95,7.0,1.0,1.0,1.0
50.96,4.0,1.0,1.0,1.0
50.97,9.0,1.0,1.0,1.0
50.98,9.0,1.0,1.0,1.0
50.99,4.0,1.0,1.0,1.0
51.0,4.0,1.0,1.0,1.0
51.01,6.4944,1.0,1.0,1.0
51.02,6.0,1.0,1.0,1.0
51.03,0.5056,1.0,1.0,1.0
51.04,6.4944,1.0,1.0,1.0
51.05,9.0,1.0,1.0,1.0
51.06,13.5056,1.0,1.0,1.0
51.07,6.4944,1.0,1.0,1.0
51.08,5.5056,1.0,1.0,1.0
51.09,6.0,1.0,1.0,1.0
51.1,5.0,1.0,1.0,1.0
51.11,8.0,1.0,1.0,1.0
51.12,6.0,1.0,1.0,1.0
51.13,12.0,1.0,1.0,1.0
51.14,5.4944,1.0,1.0,1.0
51.15,12.5056,1.0,1.0,1.0
51.16,5.0,1.0,1.0,1.0
51.17,13.0,1.0,1.0,1.0
51.18,9.0,1.0,1.0,1.0
51.19,15.0,1.0,1.0,1.0
51.2,10.0,1.0,1.0,1.0
51.21,4.0,1.0,1.0,1.0
51.22,6.0,1.0,1.0,1.0
51.23,8.0,1.0,1.0,1.0
51.24,6.4944,1.0,1.0,1.0
51.25,4.5056,1.0,1.0,1.0
51.26,6.4944,1.0,1.0,1.0
51.27,5.5056,1.0,1.0,1.0
51.28,7.0,1.0,1.0,1.0
51.29,5.0,1.0,1.0,1.0
51.3,8.0,1.0,1.0,1.0
51.31,3.0,1.0,1.0,1.0
51.32,3.0,1.0,1.0,1.0
51.33,9.0,1.0,1.0,1.0
51.34,7.0,1.0,1.0,1.0
51.35,7.0,1.0,1.0,1.0
51.36,4.0,1.0,1.0,1.0
51.37,4.0,1.0,1.0,1.0
51.38,9.0,1.0,1.0,1.0
51.39,5.0,1.0,1.0,1.0
51.4,15.0,1.0,1.0,1.0
51.41,10.0,1.0,1.0,1.0
51.42,8.0,1.0,1.0,1.0
51.43,3.0,1.0,1.0,1.0
51.44,9.0,1.0,1.0,1.0
51.45,9.0,1.0,1.0,1.0
51.46,7.0,1.0,1.0,1.0
51.47,3.0,1.0,1.0,1.0
51.48,5.4944,1.0,1.0,1.0
51.49,6.5056,1.0,1.0,1.0
51.5,13.4944,1.0,1.0,1.0
51.51,16.5056,1.0,1.0,1.0
51.52,5.0,1.0,1.0,1.0
51.53,3.0,1.0,1.0,1.0
51.54,4.0,1.0,1.0,1.0
51.55,2.0,1.0,1.0,1.0
51.56,5.0,1.0,1.0,1.0
51.57,8.0,1.0,1.0,1.0
51.58,7.0,1.0,1.0,1.0
51.59,6.0,1.0,1.0,1.0
51.6,5.0,1.0,1.0,1.0
51.61,8.0,1.0,1.0,1.0
51.62,11.0,1.0,1.0,1.0
51.63,5.0,1.0,1.0,1.0
51.64,5.4944,1.0,1.0,1.0
51.65,11.5056,1.0,1.0,1.0
51.66,11.0,1.0,1.0,1.0
51.67,2.0,1.0,1.0,1.0
51.68,0.0,1.0,1.0,1.0
51.69,9.0,1.0,1.0,1.0
51.7,2.0,1.0,1.0,1.0
51.71,4.0,1.0,1.0,1.0
51.72,11.0,1.0,1.0,1.0
51.73,7.0,1.0,1.0,1.0
51.74,9.0,1.0,1.0,1.0
51.75,6.0,1.0,1.0,1.0
51.76,0.0,1.0,1.0,1.0
51.77,6.0,1.0,1.0,1.0
51.78,10.0,1.0,1.0,1.0
51.79,5.0,1.0,1.0,1.0
51.8,1.0,1.0,1.0,1.0
51.81,9.0,1.0,1.0,1.0
51.82,6.0,1.0,1.0,1.0
51.83,11.0,1.0,1.0,1.0
51.84,4.0,1.0,1.0,1.0
51.85,8.0,1.0,1.0,1.0
51.86,9.0,1.0,1.0,1.0
51.87,9.0,1.0,1.0,1.0
51.88,3.0,1.0,1.0,1.0
51.89,7.0,1.0,1.0,1.0
51.9,6.0,1.0,1.0,1.0
51.91,4.0,1.0,1.0,1.0
51.92,9.0,1.0,1.0,1.0
51.93,9.0,1.0,1.0,1.0
51.94,3.0,1.0,1.0,1.0
51.95,10.0,1.0,1.0,1.0
51.96,12.0,1.0,1.0,1.0
51.97,6.0,1.0,1.0,1.0
51.98,5.4944,1.0,1.0,1.0
51.99,4.5056,1.0,1.0,1.0
52.0,8.0,1.0,1.0,1.0
0.4,152814.0,1.0,1.0,1.0
0.41,155963.0,1.0,1.0,1.0
0.42,158515.5,1.0,1.0,1.0
0.43,161848.0,1.0,1.0,1.0
0.44,164474.0,1.0,1.0,1.0
0.45,167524,1.0,1.0,1.0
0.46,170947.5,1.0,1.0,1.0
0.47,174481.0,1.0,1.0,1.0
0.48,176944.0,1.0,1.0,1.0
0.49,178799.5,1.0,1.0,1.0
0.5,180765.5,1.0,1.0,1.0
0.51,180786.0,1.0,1.0,1.0
0.52,180873.5,1.0,1.0,1.0
0.53,182074.5,1.0,1.0,1.0
0.54,179984.0,1.0,1.0,1.0
0.55,177882.0,1.0,1.0,1.0
0.56,176464.5,1.0,1.0,1.0
0.57,174102.0,1.0,1.0,1.0
0.58,171655.0,1.0,1.0,1.0
0.59,168452,1.0,1.0,1.0
0.6,163573.5,1.0,1.0,1.0
0.61,159983,1.0,1.0,1.0
0.62,155147.5,1.0,1.0,1.0
0.63,149778.0,1.0,1.0,1.0
0.64,144165.5,1.0,1.0,1.0
0.65,137775.0,1.0,1.0,1.0
0.66,130583,1.0,1.0,1.0
0.67,123449,1.0,1.0,1.0
0.68,114532,1.0,1.0,1.0
0.69,105621,1.0,1.0,1.0
0.7,97091,1.0,1.0,1.0
0.71,87724,1.0,1.0,1.0
0.72,77341,1.0,1.0,1.0
0.73,68155.5,1.0,1.0,1.0
0.74,59637.5,1.0,1.0,1.0
0.75,52751.5,1.0,1.0,1.0
0.76,47149,1.0,1.0,1.0
0.77,42528.5,1.0,1.0,1.0
0.78,38831,1.0,1.0,1.0
0.79,35449,1.0,1.0,1.0
0.8,32974.5,1.0,1.0,1.0
0.81,30541.002,1.0,1.0,1.0
0.82,28725.5,1.0,1.0,1.0
0.83,26814,1.0,1.0,1.0
0.84,24998.0,1.0,1.0,1.0
0.85,23730.502,1.0,1.0,1.0
0.86,22589.502,1.0,1.0,1.0
0.87,21323.0,1.0,1.0,1.0
0.88,20461.0,1.0,1.0,1.0
0.89,19375.5,1.0,1.0,1.0
0.9,18249.0,1.0,1.0,1.0
0.91,17627.5,1.0,1.0,1.0
0.92,16870.998,1.0,1.0,1.0
0.93,16201.502,1.0,1.0,1.0
0.94,15383.5,1.0,1.0,1.0
0.95,14735.498,1.0,1.0,1.0
0.96,13918.999,1.0,1.0,1.0
0.97,13772.5,1.0,1.0,1.0
0.98,12813.001,1.0,1.0,1.0
0.99,12649.998,1.0,1.0,1.0
1.0,12237.002,1.0,1.0,1.0
1.01,11688.498,1.0,1.0,1.0
1.02,11430.502,1.0,1.0,1.0
1.03,11072.001,1.0,1.0,1.0
1.04,10509.998,1.0,1.0,1.0
1.05,10202.501,1.0,1.0,1.0
1.06,9901.501,1.0,1.0,1.0
1.07,9582.999,1.0,1.0,1.0
1.08,9149.002,1.0,1.0,1.0
1.09,8917.501,1.0,1.0,1.0
1.1,8915.999,1.0,1.0,1.0
1.11,8468.001,1.0,1.0,1.0
1.12,8364.0,1.0,1.0,1.0
1.13,8124.001,1.0,1.0,1.0
1.14,7781.5,1.0,1.0,1.0
1.15,7657.5,1.0,1.0,1.0
1.16,7311.5,1.0,1.0,1.0
1.17,7365,1.0,1.0,1.0
1.18,6977,1.0,1.0,1.0
1.19,6954.501,1.0,1.0,1.0
1.2,6541.0,1.0,1.0,1.0
1.21,6625.5,1.0,1.0,1.0
1.22,6392.501,1.0,1.0,1.0
1.23,6208,1.0,1.0,1.0
1.24,5938.5,1.0,1.0,1.0
1.25,5968.5,1.0,1.0,1.0
1.26,5678.499,1.0,1.0,1.0
1.27,5563.5,1.0,1.0,1.0
1.28,5539.5,1.0,1.0,1.0
1.29,5599.5,1.0,1.0,1.0
1.3,5144.501,1.0,1.0,1.0
1.31,5163.999,1.0,1.0,1.0
1.32,5054.501,1.0,1.0,1.0
1.33,5040.499,1.0,1.0,1.0
1.34,4792.001,1.0,1.0,1.0
1.35,4634.0,1.0,1.0,1.0
1.36,4634.5,1.0,1.0,1.0
1.37,4492.001,1.0,1.0,1.0
1.38,4439.999,1.0,1.0,1.0
1.39,4360.0,1.0,1.0,1.0
1.4,4256.5,1.0,1.0,1.0
1.41,4105.5,1.0,1.0,1.0
1.42,4064.5,1.0,1.0,1.0
1.43,4063,1.0,1.0,1.0
1.44,3851.999,1.0,1.0,1.0
1.45,3819.501,1.0,1.0,1.0
1.46,3734,1.0,1.0,1.0
1.47,3724.501,1.0,1.0,1.0
1.48,3593,1.0,1.0,1.0
1.49,3608,1.0,1.0,1.0
1.5,3525.5,1.0,1.0,1.0
1.51,3466.5,1.0,1.0,1.0
1.52,3387,1.0,1.0,1.0
1.53,3318.5,1.0,1.0,1.0
1.54,3219.5,1.0,1.0,1.0
1.55,3129.0,1.0,1.0,1.0
1.56,3044.5,1.0,1.0,1.0
1.57,3129.5,1.0,1.0,1.0
1.58,2938.0,1.0,1.0,1.0
1.59,2924.5,1.0,1.0,1.0
1.6,2840,1.0,1.0,1.0
1.61,2875.5,1.0,1.0,1.0
1.62,2786.5,1.0,1.0,1.0
1.63,2682,1.0,1.0,1.0
1.64,2712.5,1.0,1.0,1.0
1.65,2713.5,1.0,1.0,1.0
1.66,2688,1.0,1.0,1.0
1.67,2630.5,1.0,1.0,1.0
1.68,2457.5,1.0,1.0,1.0
1.69,2402.5,1.0,1.0,1.0
1.7,2383.5,1.0,1.0,1.0
1.71,2367.5,1.0,1.0,1.0
1.72,2316,1.0,1.0,1.0
1.73,2253.5,1.0,1.0,1.0
1.74,2268.5,1.0,1.0,1.0
1.75,2201.5,1.0,1.0,1.0
1.76,2133.5,1.0,1.0,1.0
1.77,2093,1.0,1.0,1.0
1.78,2183.5,1.0,1.0,1.0
1.79,2071.5,1.0,1.0,1.0
1.8,2055.5,1.0,1.0,1.0
1.81,1916.5,1.0,1.0,1.0
1.82,1942.5,1.0,1.0,1.0
1.83,1894,1.0,1.0,1.0
1.84,1833,1.0,1.0,1.0
1.85,1920.5,1.0,1.0,1.0
1.86,1858,1.0,1.0,1.0
1.87,1855.5,1.0,1.0,1.0
1.88,1738.501,1.0,1.0,1.0
1.89,1726.5,1.0,1.0,1.0
1.9,1767.5,1.0,1.0,1.0
1.91,1701,1.0,1.0,1.0
1.92,1632.5,1.0,1.0,1.0
1.93,1641,1.0,1.0,1.0
1.94,1567.5,1.0,1.0,1.0
1.95,1569.5,1.0,1.0,1.0
1.96,1566,1.0,1.0,1.0
1.97,1562.5,1.0,1.0,1.0
1.98,1487.5,1.0,1.0,1.0
1.99,1513.5,1.0,1.0,1.0
2.0,1499,1.0,1.0,1.0
2.01,1483,1.0,1.0,1.0
2.02,1418.5,1.0,1.0,1.0
2.03,1381.0,1.0,1.0,1.0
2.04,1380.0,1.0,1.0,1.0
2.05,1299,1.0,1.0,1.0
2.06,1309.5,1.0,1.0,1.0
2.07,1250,1.0,1.0,1.0
2.08,1232,1.0,1.0,1.0
2.09,1290.5,1.0,1.0,1.0
2.1,1307.5,1.0,1.0,1.0
2.11,1255.5,1.0,1.0,1.0
2.12,1236,1.0,1.0,1.0
2.13,1253,1.0,1.0,1.0
2.14,1047.5,1.0,1.0,1.0
2.15,1181,1.0,1.0,1.0
2.16,1202.5,1.0,1.0,1.0
2.17,1133.5,1.0,1.0,1.0
2.18,1129.5,1.0,1.0,1.0
2.19,1114,1.0,1.0,1.0
2.2,1123.5,1.0,1.0,1.0
2.21,1037.5,1.0,1.0,1.0
2.22,1081,1.0,1.0,1.0
2.23,1025,1.0,1.0,1.0
2.24,1012.5,1.0,1.0,1.0
2.25,985.9999,1.0,1.0,1.0
2.26,1077.5,1.0,1.0,1.0
2.27,1007,1.0,1.0,1.0
2.28,949.0,1.0,1.0,1.0
2.29,941.9997,1.0,1.0,1.0
2.3,978.4999,1.0,1.0,1.0
2.31,928.0002,1.0,1.0,1.0
2.32,907.9998,1.0,1.0,1.0
2.33,925.5006,1.0,1.0,1.0
2.34,913.4998,1.0,1.0,1.0
2.35,911.0,1.0,1.0,1.0
2.36,843.9998,1.0,1.0,1.0
2.37,893.4993,1.0,1.0,1.0
2.38,873.0009,1.0,1.0,1.0
2.39,879.5002,1.0,1.0,1.0
2.4,791.5001,1.0,1.0,1.0
2.41,814.9997,1.0,1.0,1.0
2.42,840.9997,1.0,1.0,1.0
2.43,807.0003,1.0,1.0,1.0
2.44,820.5001,1.0,1.0,1.0
2.45,802.9997,1.0,1.0,1.0
2.46,851.0001,1.0,1.0,1.0
2.47,797.5002,1.0,1.0,1.0
2.48,758.9997,1.0,1.0,1.0
2.49,781.5002,1.0,1.0,1.0
2.5,793.0002,1.0,1.0,1.0
2.51,683.9999,1.0,1.0,1.0
2.52,773.0,1.0,1.0,1.0
2.53,714.0,1.0,1.0,1.0
2.54,767.4999,1.0,1.0,1.0
2.55,735.0002,1.0,1.0,1.0
2.56,731.5001,1.0,1.0,1.0
2.57,700.4998,1.0,1.0,1.0
2.58,683.5001,1.0,1.0,1.0
2.59,757.5001,1.0,1.0,1.0
2.6,748.5004,1.0,1.0,1.0
2.61,708.4998,1.0,1.0,1.0
2.62,636.4999,1.0,1.0,1.0
2.63,663.0002,1.0,1.0,1.0
2.64,642.4998,1.0,1.0,1.0
2.65,593.4996,1.0,1.0,1.0
2.66,718.0007,1.0,1.0,1.0
2.67,715.9999,1.0,1.0,1.0
2.68,610.9997,1.0,1.0,1.0
2.69,653.5001,1.0,1.0,1.0
2.7,671.5001,1.0,1.0,1.0
2.71,616.9999,1.0,1.0,1.0
2.72,638.5002,1.0,1.0,1.0
2.73,626.9998,1.0,1.0,1.0
2.74,660.5002,1.0,1.0,1.0
2.75,591.0,1.0,1.0,1.0
2.76,611.9998,1.0,1.0,1.0
2.77,584.5001,1.0,1.0,1.0
2.78,609.5001,1.0,1.0,1.0
2.79,573.5002,1.0,1.0,1.0
2.8,599.9997,1.0,1.0,1.0
2.81,572.9999,1.0,1.0,1.0
2.82,625.0001,1.0,1.0,1.0
2.83,553.0001,1.0,1.0,1.0
2.84,591.0004,1.0,1.0,1.0
2.85,540.4995,1.0,1.0,1.0
2.86,619.4999,1.0,1.0,1.0
2.87,601.5002,1.0,1.0,1.0
2.88,598.9998,1.0,1.0,1.0
2.89,536.4998,1.0,1.0,1.0
2.9,529.5001,1.0,1.0,1.0
2.91,544.0001,1.0,1.0,1.0
2.92,523.4998,1.0,1.0,1.0
2.93,577.5002,1.0,1.0,1.0
2.94,579.4998,1.0,1.0,1.0
2.95,552.0,1.0,1.0,1.0
2.96,575.0002,1.0,1.0,1.0
2.97,507.4999,1.0,1.0,1.0
2.98,547.9998,1.0,1.0,1.0
2.99,482.5003,1.0,1.0,1.0
3.0,473.5002,1.0,1.0,1.0
3.01,524.9997,1.0,1.0,1.0
3.02,521.4999,1.0,1.0,1.0
3.03,539.5002,1.0,1.0,1.0
3.04,547.4999,1.0,1.0,1.0
3.05,516.4998,1.0,1.0,1.0
3.06,519.4999,1.0,1.0,1.0
3.07,518.5002,1.0,1.0,1.0
3.08,466.9999,1.0,1.0,1.0
3.09,518.5002,1.0,1.0,1.0
3.1,557.0001,1.0,1.0,1.0
3.11,502.4996,1.0,1.0,1.0
3.12,465.5003,1.0,1.0,1.0
3.13,490.9996,1.0,1.0,1.0
3.14,522.0003,1.0,1.0,1.0
3.15,472.4998,1.0,1.0,1.0
3.16,493.0001,1.0,1.0,1.0
3.17,499.9998,1.0,1.0,1.0
3.18,461.5002,1.0,1.0,1.0
3.19,488.5003,1.0,1.0,1.0
3.2,506.9999,1.0,1.0,1.0
3.21,487.4999,1.0,1.0,1.0
3.22,494.5005,1.0,1.0,1.0
3.23,483.9992,1.0,1.0,1.0
3.24,505.0004,1.0,1.0,1.0
3.25,496.5002,1.0,1.0,1.0
3.26,516.4998,1.0,1.0,1.0
3.27,517.4998,1.0,1.0,1.0
3.28,515.0,1.0,1.0,1.0
3.29,530.4998,1.0,1.0,1.0
3.3,489.5006,1.0,1.0,1.0
3.31,519.9995,1.0,1.0,1.0
3.32,454.5002,1.0,1.0,1.0
3.33,442.0002,1.0,1.0,1.0
3.34,501.9994,1.0,1.0,1.0
3.35,525.5004,1.0,1.0,1.0
3.36,482.9998,1.0,1.0,1.0
3.37,504.5005,1.0,1.0,1.0
3.38,521.4998,1.0,1.0,1.0
3.39,486.4997,1.0,1.0,1.0
3.4,505.5001,1.0,1.0,1.0
3.41,478.0004,1.0,1.0,1.0
3.42,512.9997,1.0,1.0,1.0
3.43,505.9998,1.0,1.0,1.0
3.44,520.0004,1.0,1.0,1.0
3.45,456.9999,1.0,1.0,1.0
3.46,528.5001,1.0,1.0,1.0
3.47,470.9997,1.0,1.0,1.0
3.48,482.0004,1.0,1.0,1.0
3.49,525.4998,1.0,1.0,1.0
3.5,518.5002,1.0,1.0,1.0
3.51,424.9998,1.0,1.0,1.0
3.52,441.0001,1.0,1.0,1.0
3.53,491.4997,1.0,1.0,1.0
3.54,535.5002,1.0,1.0,1.0
3.55,459.5001,1.0,1.0,1.0
3.56,537.0,1.0,1.0,1.0
3.57,489.4998,1.0,1.0,1.0
3.58,492.5002,1.0,1.0,1.0
3.59,531.5001,1.0,1.0,1.0
3.6,506.5003,1.0,1.0,1.0
3.61,488.4995,1.0,1.0,1.0
3.62,472.5002,1.0,1.0,1.0
3.63,541.9999,1.0,1.0,1.0
3.64,493.0002,1.0,1.0,1.0
3.65,460.9996,1.0,1.0,1.0
3.66,483.5002,1.0,1.0,1.0
3.67,494.4999,1.0,1.0,1.0
3.68,455.0003,1.0,1.0,1.0
3.69,485.4997,1.0,1.0,1.0
3.7,467.0,1.0,1.0,1.0
3.71,491.5003,1.0,1.0,1.0
3.72,474.4994,1.0,1.0,1.0
3.73,506.5005,1.0,1.0,1.0
3.74,470.9999,1.0,1.0,1.0
3.75,511.0,1.0,1.0,1.0
3.76,500.5004,1.0,1.0,1.0
3.77,506.4997,1.0,1.0,1.0
3.78,528.0,1.0,1.0,1.0
3.79,489.9997,1.0,1.0,1.0
3.8,524.4999,1.0,1.0,1.0
3.81,502.0002,1.0,1.0,1.0
3.82,473.0001,1.0,1.0,1.0
3.83,461.9999,1.0,1.0,1.0
3.84,493.9999,1.0,1.0,1.0
3.85,515.4999,1.0,1.0,1.0
3.86,496.0002,1.0,1.0,1.0
3.87,546.4998,1.0,1.0,1.0
3.88,500.0002,1.0,1.0,1.0
3.89,437.0,1.0,1.0,1.0
3.9,477.9999,1.0,1.0,1.0
3.91,479.0001,1.0,1.0,1.0
3.92,540.0001,1.0,1.0,1.0
3.93,502.5001,1.0,1.0,1.0
3.94,511.4994,1.0,1.0,1.0
3.95,525.4999,1.0,1.0,1.0
3.96,551.5001,1.0,1.0,1.0
3.97,540.0002,1.0,1.0,1.0
3.98,479.5003,1.0,1.0,1.0
3.99,539.9997,1.0,1.0,1.0
4.0,500.0001,1.0,1.0,1.0
4.01,497.5001,1.0,1.0,1.0
4.02,538.5001,1.0,1.0,1.0
4.03,529.9999,1.0,1.0,1.0
4.04,510.0001,1.0,1.0,1.0
4.05,510.4998,1.0,1.0,1.0
4.06,522.4999,1.0,1.0,1.0
4.07,540.5001,1.0,1.0,1.0
4.08,516.5004,1.0,1.0,1.0
4.09,534.4995,1.0,1.0,1.0
4.1,520.4999,1.0,1.0,1.0
4.11,525.0003,1.0,1.0,1.0
4.12,469.0,1.0,1.0,1.0
4.13,519.9999,1.0,1.0,1.0
4.14,530.5002,1.0,1.0,1.0
4.15,499.4999,1.0,1.0,1.0
4.16,520.9999,1.0,1.0,1.0
4.17,541.5001,1.0,1.0,1.0
4.18,483.4999,1.0,1.0,1.0
4.19,489.4994,1.0,1.0,1.0
4.2,505.5006,1.0,1.0,1.0
4.21,534.9999,1.0,1.0,1.0
4.22,510.4999,1.0,1.0,1.0
4.23,563.4999,1.0,1.0,1.0
4.24,532.5002,1.0,1.0,1.0
4.25,564.5001,1.0,1.0,1.0
4.26,500.5002,1.0,1.0,1.0
4.27,496.4997,1.0,1.0,1.0
4.28,539.0002,1.0,1.0,1.0
4.29,515.4998,1.0,1.0,1.0
4.3,522.9998,1.0,1.0,1.0
4.31,536.5004,1.0,1.0,1.0
4.32,475.5001,1.0,1.0,1.0
4.33,517.4998,1.0,1.0,1.0
4.34,480.9999,1.0,1.0,1.0
4.35,510.5004,1.0,1.0,1.0
4.36,535.4998,1.0,1.0,1.0
4.37,523.5002,1.0,1.0,1.0
4.38,573.4999,1.0,1.0,1.0
4.39,523.4998,1.0,1.0,1.0
4.4,581.4999,1.0,1.0,1.0
4.41,537.0001,1.0,1.0,1.0
4.42,560.0001,1.0,1.0,1.0
4.43,529.9999,1.0,1.0,1.0
4.44,529.9997,1.0,1.0,1.0
4.45,556.0004,1.0,1.0,1.0
4.46,512.5002,1.0,1.0,1.0
4.47,537.9995,1.0,1.0,1.0
4.48,538.0005,1.0,1.0,1.0
4.49,536.9996,1.0,1.0,1.0
4.5,519.5005,1.0,1.0,1.0