File: XRD:XRR/LCO/22125_LCOT/22125_LCOT_XRD_002.csv
#twotheta, yobs, ycal, bkg, diff
42.0,6.4944,1.0,1.0,1.0
42.01,5.5056,1.0,1.0,1.0
42.02,6.0,1.0,1.0,1.0
42.03,7.0,1.0,1.0,1.0
42.04,18.0,1.0,1.0,1.0
42.05,11.0,1.0,1.0,1.0
42.06,19.0,1.0,1.0,1.0
42.07,16.0,1.0,1.0,1.0
42.08,8.0,1.0,1.0,1.0
42.09,13.0,1.0,1.0,1.0
42.1,9.0,1.0,1.0,1.0
42.11,15.4944,1.0,1.0,1.0
42.12,10.5056,1.0,1.0,1.0
42.13,14.0,1.0,1.0,1.0
42.14,4.0,1.0,1.0,1.0
42.15,6.0,1.0,1.0,1.0
42.16,13.0,1.0,1.0,1.0
42.17,12.0,1.0,1.0,1.0
42.18,5.0,1.0,1.0,1.0
42.19,12.0,1.0,1.0,1.0
42.2,16.0,1.0,1.0,1.0
42.21,15.0,1.0,1.0,1.0
42.22,9.0,1.0,1.0,1.0
42.23,20.0,1.0,1.0,1.0
42.24,14.4944,1.0,1.0,1.0
42.25,9.5056,1.0,1.0,1.0
42.26,15.0,1.0,1.0,1.0
42.27,7.0,1.0,1.0,1.0
42.28,7.0,1.0,1.0,1.0
42.29,5.0,1.0,1.0,1.0
42.3,23.0,1.0,1.0,1.0
42.31,14.0,1.0,1.0,1.0
42.32,13.0,1.0,1.0,1.0
42.33,17.0,1.0,1.0,1.0
42.34,21.0,1.0,1.0,1.0
42.35,8.0,1.0,1.0,1.0
42.36,13.0,1.0,1.0,1.0
42.37,22.0,1.0,1.0,1.0
42.38,17.4944,1.0,1.0,1.0
42.39,8.5056,1.0,1.0,1.0
42.4,7.0,1.0,1.0,1.0
42.41,19.0,1.0,1.0,1.0
42.42,16.0,1.0,1.0,1.0
42.43,13.4944,1.0,1.0,1.0
42.44,20.5056,1.0,1.0,1.0
42.45,7.4944,1.0,1.0,1.0
42.46,10.5056,1.0,1.0,1.0
42.47,13.0,1.0,1.0,1.0
42.48,17.0,1.0,1.0,1.0
42.49,13.0,1.0,1.0,1.0
42.5,9.0,1.0,1.0,1.0
42.51,11.4944,1.0,1.0,1.0
42.52,13.5056,1.0,1.0,1.0
42.53,9.0,1.0,1.0,1.0
42.54,19.0,1.0,1.0,1.0
42.55,11.0,1.0,1.0,1.0
42.56,22.0,1.0,1.0,1.0
42.57,17.0,1.0,1.0,1.0
42.58,20.0,1.0,1.0,1.0
42.59,23.0,1.0,1.0,1.0
42.6,15.0,1.0,1.0,1.0
42.61,19.0,1.0,1.0,1.0
42.62,25.9889,1.0,1.0,1.0
42.63,26.0111,1.0,1.0,1.0
42.64,26.0,1.0,1.0,1.0
42.65,23.0,1.0,1.0,1.0
42.66,20.0,1.0,1.0,1.0
42.67,11.0,1.0,1.0,1.0
42.68,13.0,1.0,1.0,1.0
42.69,17.9889,1.0,1.0,1.0
42.7,22.0111,1.0,1.0,1.0
42.71,9.0,1.0,1.0,1.0
42.72,15.0,1.0,1.0,1.0
42.73,13.0,1.0,1.0,1.0
42.74,10.0,1.0,1.0,1.0
42.75,20.4944,1.0,1.0,1.0
42.76,19.5056,1.0,1.0,1.0
42.77,17.0,1.0,1.0,1.0
42.78,26.0,1.0,1.0,1.0
42.79,14.4944,1.0,1.0,1.0
42.8,12.5056,1.0,1.0,1.0
42.81,12.0,1.0,1.0,1.0
42.82,7.0,1.0,1.0,1.0
42.83,11.9889,1.0,1.0,1.0
42.84,32.0111,1.0,1.0,1.0
42.85,12.0,1.0,1.0,1.0
42.86,24.0,1.0,1.0,1.0
42.87,18.0,1.0,1.0,1.0
42.88,26.0,1.0,1.0,1.0
42.89,24.0,1.0,1.0,1.0
42.9,12.4944,1.0,1.0,1.0
42.91,23.5056,1.0,1.0,1.0
42.92,25.4944,1.0,1.0,1.0
42.93,19.5056,1.0,1.0,1.0
42.94,24.4944,1.0,1.0,1.0
42.95,20.5056,1.0,1.0,1.0
42.96,29.0,1.0,1.0,1.0
42.97,37.0,1.0,1.0,1.0
42.98,23.0,1.0,1.0,1.0
42.99,24.4944,1.0,1.0,1.0
43.0,16.5056,1.0,1.0,1.0
43.01,19.0,1.0,1.0,1.0
43.02,19.4944,1.0,1.0,1.0
43.03,10.5056,1.0,1.0,1.0
43.04,18.4944,1.0,1.0,1.0
43.05,20.5056,1.0,1.0,1.0
43.06,18.0,1.0,1.0,1.0
43.07,25.9889,1.0,1.0,1.0
43.08,15.0111,1.0,1.0,1.0
43.09,14.0,1.0,1.0,1.0
43.1,13.4944,1.0,1.0,1.0
43.11,15.5056,1.0,1.0,1.0
43.12,12.0,1.0,1.0,1.0
43.13,14.4944,1.0,1.0,1.0
43.14,16.4944,1.0,1.0,1.0
43.15,16.0111,1.0,1.0,1.0
43.16,23.4944,1.0,1.0,1.0
43.17,30.0,1.0,1.0,1.0
43.18,28.5056,1.0,1.0,1.0
43.19,13.4944,1.0,1.0,1.0
43.2,39.0,1.0,1.0,1.0
43.21,29.5056,1.0,1.0,1.0
43.22,19.0,1.0,1.0,1.0
43.23,24.9889,1.0,1.0,1.0
43.24,18.0111,1.0,1.0,1.0
43.25,27.0,1.0,1.0,1.0
43.26,34.4944,1.0,1.0,1.0
43.27,50.0,1.0,1.0,1.0
43.28,42.4944,1.0,1.0,1.0
43.29,30.5056,1.0,1.0,1.0
43.3,46.4944,1.0,1.0,1.0
43.31,30.4944,1.0,1.0,1.0
43.32,43.5167,1.0,1.0,1.0
43.33,19.0,1.0,1.0,1.0
43.34,30.4944,1.0,1.0,1.0
43.35,26.5056,1.0,1.0,1.0
43.36,30.0,1.0,1.0,1.0
43.37,22.4944,1.0,1.0,1.0
43.38,27.5056,1.0,1.0,1.0
43.39,23.9889,1.0,1.0,1.0
43.4,12.0,1.0,1.0,1.0
43.41,27.5056,1.0,1.0,1.0
43.42,17.5056,1.0,1.0,1.0
43.43,14.0,1.0,1.0,1.0
43.44,14.0,1.0,1.0,1.0
43.45,22.0,1.0,1.0,1.0
43.46,10.0,1.0,1.0,1.0
43.47,37.0,1.0,1.0,1.0
43.48,26.4944,1.0,1.0,1.0
43.49,20.5056,1.0,1.0,1.0
43.5,24.0,1.0,1.0,1.0
43.51,25.9889,1.0,1.0,1.0
43.52,42.5056,1.0,1.0,1.0
43.53,26.5056,1.0,1.0,1.0
43.54,21.0,1.0,1.0,1.0
43.55,44.4944,1.0,1.0,1.0
43.56,23.0,1.0,1.0,1.0
43.57,27.5056,1.0,1.0,1.0
43.58,40.0,1.0,1.0,1.0
43.59,27.9889,1.0,1.0,1.0
43.6,39.0111,1.0,1.0,1.0
43.61,26.0,1.0,1.0,1.0
43.62,36.4944,1.0,1.0,1.0
43.63,32.5056,1.0,1.0,1.0
43.64,30.4944,1.0,1.0,1.0
43.65,24.5056,1.0,1.0,1.0
43.66,36.4944,1.0,1.0,1.0
43.67,31.5056,1.0,1.0,1.0
43.68,25.4944,1.0,1.0,1.0
43.69,34.4944,1.0,1.0,1.0
43.7,46.5056,1.0,1.0,1.0
43.71,17.4944,1.0,1.0,1.0
43.72,27.0,1.0,1.0,1.0
43.73,25.0111,1.0,1.0,1.0
43.74,33.4944,1.0,1.0,1.0
43.75,15.5056,1.0,1.0,1.0
43.76,12.0,1.0,1.0,1.0
43.77,28.4944,1.0,1.0,1.0
43.78,17.5056,1.0,1.0,1.0
43.79,12.0,1.0,1.0,1.0
43.8,25.4944,1.0,1.0,1.0
43.81,31.5056,1.0,1.0,1.0
43.82,24.4944,1.0,1.0,1.0
43.83,40.5056,1.0,1.0,1.0
43.84,35.4944,1.0,1.0,1.0
43.85,48.0,1.0,1.0,1.0
43.86,44.5056,1.0,1.0,1.0
43.87,42.4722,1.0,1.0,1.0
43.88,39.5278,1.0,1.0,1.0
43.89,35.4944,1.0,1.0,1.0
43.9,50.5056,1.0,1.0,1.0
43.91,54.0,1.0,1.0,1.0
43.92,52.4944,1.0,1.0,1.0
43.93,62.0,1.0,1.0,1.0
43.94,63.0,1.0,1.0,1.0
43.95,55.5056,1.0,1.0,1.0
43.96,44.4944,1.0,1.0,1.0
43.97,65.0,1.0,1.0,1.0
43.98,28.5056,1.0,1.0,1.0
43.99,43.4944,1.0,1.0,1.0
44.0,27.5056,1.0,1.0,1.0
44.01,29.0,1.0,1.0,1.0
44.02,41.4944,1.0,1.0,1.0
44.03,39.5056,1.0,1.0,1.0
44.04,23.0,1.0,1.0,1.0
44.05,27.0,1.0,1.0,1.0
44.06,17.0,1.0,1.0,1.0
44.07,43.4944,1.0,1.0,1.0
44.08,28.9889,1.0,1.0,1.0
44.09,18.5167,1.0,1.0,1.0
44.1,42.0,1.0,1.0,1.0
44.11,27.4944,1.0,1.0,1.0
44.12,44.9889,1.0,1.0,1.0
44.13,40.0,1.0,1.0,1.0
44.14,51.0111,1.0,1.0,1.0
44.15,52.4944,1.0,1.0,1.0
44.16,49.5056,1.0,1.0,1.0
44.17,43.5056,1.0,1.0,1.0
44.18,46.9889,1.0,1.0,1.0
44.19,56.0,1.0,1.0,1.0
44.2,46.5056,1.0,1.0,1.0
44.21,59.0,1.0,1.0,1.0
44.22,36.9889,1.0,1.0,1.0
44.23,76.5167,1.0,1.0,1.0
44.24,61.4833,1.0,1.0,1.0
44.25,64.5167,1.0,1.0,1.0
44.26,66.0,1.0,1.0,1.0
44.27,53.4833,1.0,1.0,1.0
44.28,81.5056,1.0,1.0,1.0
44.29,52.0,1.0,1.0,1.0
44.3,45.0111,1.0,1.0,1.0
44.31,52.0,1.0,1.0,1.0
44.32,48.0,1.0,1.0,1.0
44.33,52.4944,1.0,1.0,1.0
44.34,61.4944,1.0,1.0,1.0
44.35,55.0111,1.0,1.0,1.0
44.36,43.9889,1.0,1.0,1.0
44.37,23.5056,1.0,1.0,1.0
44.38,26.5056,1.0,1.0,1.0
44.39,43.0,1.0,1.0,1.0
44.4,26.0,1.0,1.0,1.0
44.41,30.0,1.0,1.0,1.0
44.42,42.4944,1.0,1.0,1.0
44.43,36.0,1.0,1.0,1.0
44.44,30.9889,1.0,1.0,1.0
44.45,29.0111,1.0,1.0,1.0
44.46,60.0,1.0,1.0,1.0
44.47,21.0,1.0,1.0,1.0
44.48,68.5056,1.0,1.0,1.0
44.49,79.4833,1.0,1.0,1.0
44.5,58.0111,1.0,1.0,1.0
44.51,62.4944,1.0,1.0,1.0
44.52,58.0111,1.0,1.0,1.0
44.53,81.9889,1.0,1.0,1.0
44.54,101.5056,1.0,1.0,1.0
44.55,82.9889,1.0,1.0,1.0
44.56,86.0111,1.0,1.0,1.0
44.57,96.4944,1.0,1.0,1.0
44.58,113.4833,1.0,1.0,1.0
44.59,93.5167,1.0,1.0,1.0
44.6,78.0,1.0,1.0,1.0
44.61,97.4944,1.0,1.0,1.0
44.62,76.5056,1.0,1.0,1.0
44.63,91.0111,1.0,1.0,1.0
44.64,56.4944,1.0,1.0,1.0
44.65,79.0,1.0,1.0,1.0
44.66,58.5056,1.0,1.0,1.0
44.67,68.9889,1.0,1.0,1.0
44.68,38.4944,1.0,1.0,1.0
44.69,40.5167,1.0,1.0,1.0
44.7,39.9889,1.0,1.0,1.0
44.71,33.0111,1.0,1.0,1.0
44.72,38.0,1.0,1.0,1.0
44.73,33.4944,1.0,1.0,1.0
44.74,38.5056,1.0,1.0,1.0
44.75,38.0,1.0,1.0,1.0
44.76,38.4944,1.0,1.0,1.0
44.77,47.0,1.0,1.0,1.0
44.78,42.4944,1.0,1.0,1.0
44.79,52.5056,1.0,1.0,1.0
44.8,77.4944,1.0,1.0,1.0
44.81,85.0111,1.0,1.0,1.0
44.82,69.4944,1.0,1.0,1.0
44.83,73.4944,1.0,1.0,1.0
44.84,102.0111,1.0,1.0,1.0
44.85,96.4833,1.0,1.0,1.0
44.86,133.5167,1.0,1.0,1.0
44.87,138.9889,1.0,1.0,1.0
44.88,151.4944,1.0,1.0,1.0
44.89,105.5056,1.0,1.0,1.0
44.9,133.0111,1.0,1.0,1.0
44.91,117.0,1.0,1.0,1.0
44.92,130.9889,1.0,1.0,1.0
44.93,125.4944,1.0,1.0,1.0
44.94,129.0111,1.0,1.0,1.0
44.95,136.9889,1.0,1.0,1.0
44.96,122.0111,1.0,1.0,1.0
44.97,113.9889,1.0,1.0,1.0
44.98,83.5056,1.0,1.0,1.0
44.99,73.9889,1.0,1.0,1.0
45.0,73.5167,1.0,1.0,1.0
45.01,70.0,1.0,1.0,1.0
45.02,53.5056,1.0,1.0,1.0
45.03,26.4944,1.0,1.0,1.0
45.04,41.5056,1.0,1.0,1.0
45.05,51.4944,1.0,1.0,1.0
45.06,39.4944,1.0,1.0,1.0
45.07,50.0111,1.0,1.0,1.0
45.08,48.0,1.0,1.0,1.0
45.09,48.4944,1.0,1.0,1.0
45.1,87.4944,1.0,1.0,1.0
45.11,110.4944,1.0,1.0,1.0
45.12,102.5056,1.0,1.0,1.0
45.13,124.0111,1.0,1.0,1.0
45.14,104.4833,1.0,1.0,1.0
45.15,151.0,1.0,1.0,1.0
45.16,154.0,1.0,1.0,1.0
45.17,170.9889,1.0,1.0,1.0
45.18,183.0,1.0,1.0,1.0
45.19,207.5167,1.0,1.0,1.0
45.2,202.9778,1.0,1.0,1.0
45.21,203.0111,1.0,1.0,1.0
45.22,228.4833,1.0,1.0,1.0
45.23,220.5278,1.0,1.0,1.0
45.24,226.4944,1.0,1.0,1.0
45.25,189.5056,1.0,1.0,1.0
45.26,213.9889,1.0,1.0,1.0
45.27,204.0111,1.0,1.0,1.0
45.28,228.4722,1.0,1.0,1.0
45.29,158.5167,1.0,1.0,1.0
45.3,163.0,1.0,1.0,1.0
45.31,112.0111,1.0,1.0,1.0
45.32,119.5056,1.0,1.0,1.0
45.33,95.4944,1.0,1.0,1.0
45.34,78.4944,1.0,1.0,1.0
45.35,84.0111,1.0,1.0,1.0
45.36,78.0,1.0,1.0,1.0
45.37,42.5056,1.0,1.0,1.0
45.38,34.0,1.0,1.0,1.0
45.39,41.0,1.0,1.0,1.0
45.4,58.4944,1.0,1.0,1.0
45.41,86.5056,1.0,1.0,1.0
45.42,90.0,1.0,1.0,1.0
45.43,81.9889,1.0,1.0,1.0
45.44,171.0,1.0,1.0,1.0
45.45,163.9889,1.0,1.0,1.0
45.46,192.0111,1.0,1.0,1.0
45.47,180.4833,1.0,1.0,1.0
45.48,206.0,1.0,1.0,1.0
45.49,259.0,1.0,1.0,1.0
45.5,288.5056,1.0,1.0,1.0
45.51,323.9889,1.0,1.0,1.0
45.52,366.0111,1.0,1.0,1.0
45.53,341.4611,1.0,1.0,1.0
45.54,363.5389,1.0,1.0,1.0
45.55,383.9889,1.0,1.0,1.0
45.56,363.4722,1.0,1.0,1.0
45.57,361.0333,1.0,1.0,1.0
45.58,391.9889,1.0,1.0,1.0
45.59,350.9778,1.0,1.0,1.0
45.6,338.0333,1.0,1.0,1.0
45.61,312.5056,1.0,1.0,1.0
45.62,274.4833,1.0,1.0,1.0
45.63,285.5056,1.0,1.0,1.0
45.64,219.0,1.0,1.0,1.0
45.65,186.0111,1.0,1.0,1.0
45.66,143.5056,1.0,1.0,1.0
45.67,128.5056,1.0,1.0,1.0
45.68,98.5056,1.0,1.0,1.0
45.69,67.0,1.0,1.0,1.0
45.7,51.0,1.0,1.0,1.0
45.71,81.5056,1.0,1.0,1.0
45.72,59.9889,1.0,1.0,1.0
45.73,110.9889,1.0,1.0,1.0
45.74,124.0111,1.0,1.0,1.0
45.75,135.0,1.0,1.0,1.0
45.76,198.4833,1.0,1.0,1.0
45.77,206.4944,1.0,1.0,1.0
45.78,275.5056,1.0,1.0,1.0
45.79,361.4944,1.0,1.0,1.0
45.8,409.9889,1.0,1.0,1.0
45.81,460.4944,1.0,1.0,1.0
45.82,547.9889,1.0,1.0,1.0
45.83,566.5167,1.0,1.0,1.0
45.84,652.9667,1.0,1.0,1.0
45.85,670.4944,1.0,1.0,1.0
45.86,742.4944,1.0,1.0,1.0
45.87,749.0222,1.0,1.0,1.0
45.88,813.4722,1.0,1.0,1.0
45.89,809.5278,1.0,1.0,1.0
45.9,821.4611,1.0,1.0,1.0
45.91,826.9778,1.0,1.0,1.0
45.92,786.0444,1.0,1.0,1.0
45.93,794.9889,1.0,1.0,1.0
45.94,695.0,1.0,1.0,1.0
45.95,636.4944,1.0,1.0,1.0
45.96,562.55,1.0,1.0,1.0
45.97,476.0111,1.0,1.0,1.0
45.98,385.4722,1.0,1.0,1.0
45.99,350.5389,1.0,1.0,1.0
46.0,274.5167,1.0,1.0,1.0
46.01,166.4833,1.0,1.0,1.0
46.02,158.0,1.0,1.0,1.0
46.03,110.5278,1.0,1.0,1.0
46.04,87.0,1.0,1.0,1.0
46.05,74.9778,1.0,1.0,1.0
46.06,127.5167,1.0,1.0,1.0
46.07,144.9778,1.0,1.0,1.0
46.08,231.0,1.0,1.0,1.0
46.09,383.9778,1.0,1.0,1.0
46.1,479.4944,1.0,1.0,1.0
46.11,684.4389,1.0,1.0,1.0
46.12,890.0333,1.0,1.0,1.0
46.13,1081.98,1.0,1.0,1.0
46.14,1307.94,1.0,1.0,1.0
46.15,1572.48,1.0,1.0,1.0
46.16,1880.0,1.0,1.0,1.0
46.17,2128.89,1.0,1.0,1.0
46.18,2435.94,1.0,1.0,1.0
46.19,2698.03,1.0,1.0,1.0
46.2,2986.49,1.0,1.0,1.0
46.21,3135.45,1.0,1.0,1.0
46.22,3408.97,1.0,1.0,1.0
46.23,3469.02,1.0,1.0,1.0
46.24,3557.51,1.0,1.0,1.0
46.25,3686.96,1.0,1.0,1.0
46.26,3691.08,1.0,1.0,1.0
46.27,3683.93,1.0,1.0,1.0
46.28,3676.45,1.0,1.0,1.0
46.29,3508.54,1.0,1.0,1.0
46.3,3450.06,1.0,1.0,1.0
46.31,3274.51,1.0,1.0,1.0
46.32,3182.02,1.0,1.0,1.0
46.33,3124.99,1.0,1.0,1.0
46.34,3213.48,1.0,1.0,1.0
46.35,3699.37,1.0,1.0,1.0
46.36,4243.53,1.0,1.0,1.0
46.37,5773.74,1.0,1.0,1.0
46.38,8670.44,1.0,1.0,1.0
46.39,13763.4,1.0,1.0,1.0
46.4,24167.3,1.0,1.0,1.0
46.41,46460,1.0,1.0,1.0
46.42,89136.3,1.0,1.0,1.0
46.43,153905,1.0,1.0,1.0
46.44,239049,1.0,1.0,1.0
46.45,362949.5,1.0,1.0,1.0
46.46,558309,1.0,1.0,1.0
46.47,934191.75,1.0,1.0,1.0
46.48,2177202.75,1.0,1.0,1.0
46.49,11674201.0,1.0,1.0,1.0
46.5,23417966.0,1.0,1.0,1.0
46.51,26401126.0,1.0,1.0,1.0
46.52,8433496.0,1.0,1.0,1.0
46.53,1183785.625,1.0,1.0,1.0
46.54,447899,1.0,1.0,1.0
46.55,241518.75,1.0,1.0,1.0
46.56,150298,1.0,1.0,1.0
46.57,92706.5,1.0,1.0,1.0
46.58,57999.1,1.0,1.0,1.0
46.59,40711.1,1.0,1.0,1.0
46.6,33603.9,1.0,1.0,1.0
46.61,30986.7,1.0,1.0,1.0
46.62,30556.3,1.0,1.0,1.0
46.63,30999.8,1.0,1.0,1.0
46.64,33716.8,1.0,1.0,1.0
46.65,36366.3,1.0,1.0,1.0
46.66,39692.7,1.0,1.0,1.0
46.67,43728.1,1.0,1.0,1.0
46.68,47510.9,1.0,1.0,1.0
46.69,51890.4,1.0,1.0,1.0
46.7,56056.3,1.0,1.0,1.0
46.71,61405.1,1.0,1.0,1.0
46.72,64817.3,1.0,1.0,1.0
46.73,69216.1,1.0,1.0,1.0
46.74,72994.2,1.0,1.0,1.0
46.75,77420.5,1.0,1.0,1.0
46.76,81144.1,1.0,1.0,1.0
46.77,84948.25,1.0,1.0,1.0
46.78,87979.9,1.0,1.0,1.0
46.79,90558.9,1.0,1.0,1.0
46.8,93339.8,1.0,1.0,1.0
46.81,95107.375,1.0,1.0,1.0
46.82,96317.2,1.0,1.0,1.0
46.83,98176.1,1.0,1.0,1.0
46.84,98300.1,1.0,1.0,1.0
46.85,98198.6,1.0,1.0,1.0
46.86,98539.3,1.0,1.0,1.0
46.87,97699.1,1.0,1.0,1.0
46.88,96252.6,1.0,1.0,1.0
46.89,94025.1,1.0,1.0,1.0
46.9,91693.8,1.0,1.0,1.0
46.91,89901.2,1.0,1.0,1.0
46.92,86770.9,1.0,1.0,1.0
46.93,82759.1,1.0,1.0,1.0
46.94,79860,1.0,1.0,1.0
46.95,75812.7,1.0,1.0,1.0
46.96,71016.6,1.0,1.0,1.0
46.97,67089.9,1.0,1.0,1.0
46.98,62757.7,1.0,1.0,1.0
46.99,58531.1,1.0,1.0,1.0
47.0,53655.4,1.0,1.0,1.0
47.01,49256.4,1.0,1.0,1.0
47.02,44365,1.0,1.0,1.0
47.03,40283.7,1.0,1.0,1.0
47.04,36166.8,1.0,1.0,1.0
47.05,31720.4,1.0,1.0,1.0
47.06,28229.8,1.0,1.0,1.0
47.07,23998,1.0,1.0,1.0
47.08,21199.7,1.0,1.0,1.0
47.09,17988.8,1.0,1.0,1.0
47.1,14928.5,1.0,1.0,1.0
47.11,12179.7,1.0,1.0,1.0
47.12,9993.2,1.0,1.0,1.0
47.13,7916.12,1.0,1.0,1.0
47.14,6340.33,1.0,1.0,1.0
47.15,4780.16,1.0,1.0,1.0
47.16,3601.04,1.0,1.0,1.0
47.17,2423.09,1.0,1.0,1.0
47.18,1706.59,1.0,1.0,1.0
47.19,1129.03,1.0,1.0,1.0
47.2,736.0333,1.0,1.0,1.0
47.21,510.5389,1.0,1.0,1.0
47.22,455.9778,1.0,1.0,1.0
47.23,442.5056,1.0,1.0,1.0
47.24,544.5056,1.0,1.0,1.0
47.25,799.4611,1.0,1.0,1.0
47.26,1053.41,1.0,1.0,1.0
47.27,1305.06,1.0,1.0,1.0
47.28,1690.89,1.0,1.0,1.0
47.29,1951.96,1.0,1.0,1.0
47.3,2108.55,1.0,1.0,1.0
47.31,2432.92,1.0,1.0,1.0
47.32,2523.49,1.0,1.0,1.0
47.33,2819.91,1.0,1.0,1.0
47.34,2913.03,1.0,1.0,1.0
47.35,2918.54,1.0,1.0,1.0
47.36,2915.45,1.0,1.0,1.0
47.37,2887.52,1.0,1.0,1.0
47.38,2891.07,1.0,1.0,1.0
47.39,2754.49,1.0,1.0,1.0
47.4,2529.52,1.0,1.0,1.0
47.41,2429.02,1.0,1.0,1.0
47.42,2206.59,1.0,1.0,1.0
47.43,1957.92,1.0,1.0,1.0
47.44,1742.07,1.0,1.0,1.0
47.45,1515.0,1.0,1.0,1.0
47.46,1300.04,1.0,1.0,1.0
47.47,1054.53,1.0,1.0,1.0
47.48,860.5167,1.0,1.0,1.0
47.49,704.5389,1.0,1.0,1.0
47.5,506.4833,1.0,1.0,1.0
47.51,377.0222,1.0,1.0,1.0
47.52,281.5278,1.0,1.0,1.0
47.53,201.4833,1.0,1.0,1.0
47.54,189.0111,1.0,1.0,1.0
47.55,138.0,1.0,1.0,1.0
47.56,164.5167,1.0,1.0,1.0
47.57,161.4833,1.0,1.0,1.0
47.58,227.5056,1.0,1.0,1.0
47.59,269.9889,1.0,1.0,1.0
47.6,312.0,1.0,1.0,1.0
47.61,407.4611,1.0,1.0,1.0
47.62,470.5056,1.0,1.0,1.0
47.63,529.0222,1.0,1.0,1.0
47.64,633.45,1.0,1.0,1.0
47.65,677.5167,1.0,1.0,1.0
47.66,786.4833,1.0,1.0,1.0
47.67,854.9889,1.0,1.0,1.0
47.68,869.0111,1.0,1.0,1.0
47.69,866.4722,1.0,1.0,1.0
47.7,834.5167,1.0,1.0,1.0
47.71,845.9889,1.0,1.0,1.0
47.72,848.0,1.0,1.0,1.0
47.73,829.0333,1.0,1.0,1.0
47.74,750.9778,1.0,1.0,1.0
47.75,707.0667,1.0,1.0,1.0
47.76,614.5056,1.0,1.0,1.0
47.77,635.45,1.0,1.0,1.0
47.78,499.5611,1.0,1.0,1.0
47.79,481.4944,1.0,1.0,1.0
47.8,396.9889,1.0,1.0,1.0
47.81,340.0111,1.0,1.0,1.0
47.82,267.0111,1.0,1.0,1.0
47.83,203.0,1.0,1.0,1.0
47.84,149.5056,1.0,1.0,1.0
47.85,132.0,1.0,1.0,1.0
47.86,126.4944,1.0,1.0,1.0
47.87,88.0,1.0,1.0,1.0
47.88,84.4944,1.0,1.0,1.0
47.89,107.0,1.0,1.0,1.0
47.9,95.0,1.0,1.0,1.0
47.91,100.9889,1.0,1.0,1.0
47.92,128.0222,1.0,1.0,1.0
47.93,152.4944,1.0,1.0,1.0
47.94,180.0,1.0,1.0,1.0
47.95,170.4944,1.0,1.0,1.0
47.96,233.0,1.0,1.0,1.0
47.97,270.9778,1.0,1.0,1.0
47.98,267.0111,1.0,1.0,1.0
47.99,317.0,1.0,1.0,1.0
48.0,359.9889,1.0,1.0,1.0
48.01,367.9667,1.0,1.0,1.0
48.02,344.55,1.0,1.0,1.0
48.03,366.4944,1.0,1.0,1.0
48.04,352.5167,1.0,1.0,1.0
48.05,365.4611,1.0,1.0,1.0
48.06,317.5056,1.0,1.0,1.0
48.07,355.9889,1.0,1.0,1.0
48.08,347.0111,1.0,1.0,1.0
48.09,308.5056,1.0,1.0,1.0
48.1,309.0111,1.0,1.0,1.0
48.11,253.0222,1.0,1.0,1.0
48.12,207.4722,1.0,1.0,1.0
48.13,162.0222,1.0,1.0,1.0
48.14,165.0,1.0,1.0,1.0
48.15,137.4944,1.0,1.0,1.0
48.16,126.9778,1.0,1.0,1.0
48.17,108.5278,1.0,1.0,1.0
48.18,50.4944,1.0,1.0,1.0
48.19,77.5056,1.0,1.0,1.0
48.2,72.0,1.0,1.0,1.0
48.21,58.5056,1.0,1.0,1.0
48.22,57.0,1.0,1.0,1.0
48.23,52.5056,1.0,1.0,1.0
48.24,69.4833,1.0,1.0,1.0
48.25,73.5056,1.0,1.0,1.0
48.26,87.9889,1.0,1.0,1.0
48.27,96.5167,1.0,1.0,1.0
48.28,123.9778,1.0,1.0,1.0
48.29,82.0222,1.0,1.0,1.0
48.3,142.9889,1.0,1.0,1.0
48.31,134.0111,1.0,1.0,1.0
48.32,164.9778,1.0,1.0,1.0
48.33,142.5167,1.0,1.0,1.0
48.34,134.5056,1.0,1.0,1.0
48.35,171.4833,1.0,1.0,1.0
48.36,186.9889,1.0,1.0,1.0
48.37,187.0333,1.0,1.0,1.0
48.38,153.4944,1.0,1.0,1.0
48.39,166.4833,1.0,1.0,1.0
48.4,172.0111,1.0,1.0,1.0
48.41,173.4833,1.0,1.0,1.0
48.42,137.5167,1.0,1.0,1.0
48.43,133.4944,1.0,1.0,1.0
48.44,130.0,1.0,1.0,1.0
48.45,112.5056,1.0,1.0,1.0
48.46,112.5056,1.0,1.0,1.0
48.47,82.0,1.0,1.0,1.0
48.48,82.4833,1.0,1.0,1.0
48.49,59.0222,1.0,1.0,1.0
48.5,36.0,1.0,1.0,1.0
48.51,46.4944,1.0,1.0,1.0
48.52,51.5056,1.0,1.0,1.0
48.53,52.0,1.0,1.0,1.0
48.54,43.4833,1.0,1.0,1.0
48.55,31.5167,1.0,1.0,1.0
48.56,47.0,1.0,1.0,1.0
48.57,37.0,1.0,1.0,1.0
48.58,58.4944,1.0,1.0,1.0
48.59,46.4944,1.0,1.0,1.0
48.6,69.4944,1.0,1.0,1.0
48.61,68.5167,1.0,1.0,1.0
48.62,86.4722,1.0,1.0,1.0
48.63,80.5278,1.0,1.0,1.0
48.64,92.4944,1.0,1.0,1.0
48.65,108.9889,1.0,1.0,1.0
48.66,113.5056,1.0,1.0,1.0
48.67,77.4944,1.0,1.0,1.0
48.68,93.5167,1.0,1.0,1.0
48.69,96.0,1.0,1.0,1.0
48.7,97.4833,1.0,1.0,1.0
48.71,117.5056,1.0,1.0,1.0
48.72,92.0,1.0,1.0,1.0
48.73,91.0,1.0,1.0,1.0
48.74,75.4944,1.0,1.0,1.0
48.75,79.0111,1.0,1.0,1.0
48.76,80.0,1.0,1.0,1.0
48.77,69.5056,1.0,1.0,1.0
48.78,56.9889,1.0,1.0,1.0
48.79,59.5056,1.0,1.0,1.0
48.8,47.4833,1.0,1.0,1.0
48.81,58.0,1.0,1.0,1.0
48.82,54.5167,1.0,1.0,1.0
48.83,27.0,1.0,1.0,1.0
48.84,21.0,1.0,1.0,1.0
48.85,46.5056,1.0,1.0,1.0
48.86,33.0,1.0,1.0,1.0
48.87,34.0,1.0,1.0,1.0
48.88,18.4944,1.0,1.0,1.0
48.89,32.4944,1.0,1.0,1.0
48.9,28.0111,1.0,1.0,1.0
48.91,36.9889,1.0,1.0,1.0
48.92,21.0111,1.0,1.0,1.0
48.93,57.4944,1.0,1.0,1.0
48.94,27.0,1.0,1.0,1.0
48.95,33.5056,1.0,1.0,1.0
48.96,66.4833,1.0,1.0,1.0
48.97,64.9889,1.0,1.0,1.0
48.98,132.0222,1.0,1.0,1.0
48.99,49.5056,1.0,1.0,1.0
49.0,46.4944,1.0,1.0,1.0
49.01,54.0,1.0,1.0,1.0
49.02,50.5056,1.0,1.0,1.0
49.03,46.4833,1.0,1.0,1.0
49.04,59.5167,1.0,1.0,1.0
49.05,59.0,1.0,1.0,1.0
49.06,70.4944,1.0,1.0,1.0
49.07,44.0,1.0,1.0,1.0
49.08,46.4944,1.0,1.0,1.0
49.09,71.0111,1.0,1.0,1.0
49.1,41.9889,1.0,1.0,1.0
49.11,30.0111,1.0,1.0,1.0
49.12,44.4944,1.0,1.0,1.0
49.13,37.5056,1.0,1.0,1.0
49.14,30.0,1.0,1.0,1.0
49.15,31.0,1.0,1.0,1.0
49.16,17.4944,1.0,1.0,1.0
49.17,36.0,1.0,1.0,1.0
49.18,24.5056,1.0,1.0,1.0
49.19,21.0,1.0,1.0,1.0
49.2,20.0,1.0,1.0,1.0
49.21,19.0,1.0,1.0,1.0
49.22,22.9889,1.0,1.0,1.0
49.23,16.5056,1.0,1.0,1.0
49.24,28.0,1.0,1.0,1.0
49.25,21.0,1.0,1.0,1.0
49.26,35.4944,1.0,1.0,1.0
49.27,8.0111,1.0,1.0,1.0
49.28,34.0,1.0,1.0,1.0
49.29,28.0,1.0,1.0,1.0
49.3,30.0,1.0,1.0,1.0
49.31,38.9889,1.0,1.0,1.0
49.32,29.0111,1.0,1.0,1.0
49.33,45.4944,1.0,1.0,1.0
49.34,28.4944,1.0,1.0,1.0
49.35,38.5056,1.0,1.0,1.0
49.36,35.4944,1.0,1.0,1.0
49.37,29.5056,1.0,1.0,1.0
49.38,45.5056,1.0,1.0,1.0
49.39,43.0,1.0,1.0,1.0
49.4,23.0,1.0,1.0,1.0
49.41,34.0,1.0,1.0,1.0
49.42,23.0,1.0,1.0,1.0
49.43,27.0,1.0,1.0,1.0
49.44,23.4944,1.0,1.0,1.0
49.45,21.5056,1.0,1.0,1.0
49.46,20.4944,1.0,1.0,1.0
49.47,15.5056,1.0,1.0,1.0
49.48,26.4944,1.0,1.0,1.0
49.49,19.5056,1.0,1.0,1.0
49.5,25.9889,1.0,1.0,1.0
49.51,23.0111,1.0,1.0,1.0
49.52,19.4944,1.0,1.0,1.0
49.53,21.5056,1.0,1.0,1.0
49.54,19.4944,1.0,1.0,1.0
49.55,10.5056,1.0,1.0,1.0
49.56,15.4944,1.0,1.0,1.0
49.57,26.0,1.0,1.0,1.0
49.58,22.0,1.0,1.0,1.0
49.59,23.5056,1.0,1.0,1.0
49.6,13.0,1.0,1.0,1.0
49.61,22.4833,1.0,1.0,1.0
49.62,17.5167,1.0,1.0,1.0
49.63,28.9889,1.0,1.0,1.0
49.64,30.0111,1.0,1.0,1.0
49.65,21.0,1.0,1.0,1.0
49.66,32.9889,1.0,1.0,1.0
49.67,30.0111,1.0,1.0,1.0
49.68,26.9889,1.0,1.0,1.0
49.69,23.0111,1.0,1.0,1.0
49.7,15.0,1.0,1.0,1.0
49.71,33.0,1.0,1.0,1.0
49.72,30.0,1.0,1.0,1.0
49.73,14.0,1.0,1.0,1.0
49.74,13.4944,1.0,1.0,1.0
49.75,19.0,1.0,1.0,1.0
49.76,19.5056,1.0,1.0,1.0
49.77,14.0,1.0,1.0,1.0
49.78,10.0,1.0,1.0,1.0
49.79,18.0,1.0,1.0,1.0
49.8,18.0,1.0,1.0,1.0
49.81,15.0,1.0,1.0,1.0
49.82,12.0,1.0,1.0,1.0
49.83,16.0,1.0,1.0,1.0
49.84,16.0,1.0,1.0,1.0
49.85,19.0,1.0,1.0,1.0
49.86,18.0,1.0,1.0,1.0
49.87,15.0,1.0,1.0,1.0
49.88,12.0,1.0,1.0,1.0
49.89,14.0,1.0,1.0,1.0
49.9,10.0,1.0,1.0,1.0
49.91,12.0,1.0,1.0,1.0
49.92,21.0,1.0,1.0,1.0
49.93,11.0,1.0,1.0,1.0
49.94,13.0,1.0,1.0,1.0
49.95,10.0,1.0,1.0,1.0
49.96,6.4944,1.0,1.0,1.0
49.97,3.5056,1.0,1.0,1.0
49.98,12.4944,1.0,1.0,1.0
49.99,16.0,1.0,1.0,1.0
50.0,15.5056,1.0,1.0,1.0
50.01,16.0,1.0,1.0,1.0
50.02,4.0,1.0,1.0,1.0
50.03,14.0,1.0,1.0,1.0
50.04,14.0,1.0,1.0,1.0
50.05,7.4944,1.0,1.0,1.0
50.06,6.5056,1.0,1.0,1.0
50.07,11.0,1.0,1.0,1.0
50.08,6.0,1.0,1.0,1.0
50.09,6.9889,1.0,1.0,1.0
50.1,15.0111,1.0,1.0,1.0
50.11,8.0,1.0,1.0,1.0
50.12,9.0,1.0,1.0,1.0
50.13,12.0,1.0,1.0,1.0
50.14,4.0,1.0,1.0,1.0
50.15,10.0,1.0,1.0,1.0
50.16,13.0,1.0,1.0,1.0
50.17,6.0,1.0,1.0,1.0
50.18,8.0,1.0,1.0,1.0
50.19,13.0,1.0,1.0,1.0
50.2,9.0,1.0,1.0,1.0
50.21,11.0,1.0,1.0,1.0
50.22,19.0,1.0,1.0,1.0
50.23,7.0,1.0,1.0,1.0
50.24,9.0,1.0,1.0,1.0
50.25,8.0,1.0,1.0,1.0
50.26,19.4944,1.0,1.0,1.0
50.27,5.5056,1.0,1.0,1.0
50.28,13.0,1.0,1.0,1.0
50.29,6.4944,1.0,1.0,1.0
50.3,9.0,1.0,1.0,1.0
50.31,20.5056,1.0,1.0,1.0
50.32,14.0,1.0,1.0,1.0
50.33,4.0,1.0,1.0,1.0
50.34,10.4944,1.0,1.0,1.0
50.35,19.0,1.0,1.0,1.0
50.36,16.5056,1.0,1.0,1.0
50.37,8.0,1.0,1.0,1.0
50.38,22.4944,1.0,1.0,1.0
50.39,11.5056,1.0,1.0,1.0
50.4,10.0,1.0,1.0,1.0
50.41,10.0,1.0,1.0,1.0
50.42,7.0,1.0,1.0,1.0
50.43,8.0,1.0,1.0,1.0
50.44,7.0,1.0,1.0,1.0
50.45,7.0,1.0,1.0,1.0
50.46,10.0,1.0,1.0,1.0
50.47,7.0,1.0,1.0,1.0
50.48,8.4944,1.0,1.0,1.0
50.49,13.5056,1.0,1.0,1.0
50.5,4.0,1.0,1.0,1.0
50.51,9.4944,1.0,1.0,1.0
50.52,16.0,1.0,1.0,1.0
50.53,7.5056,1.0,1.0,1.0
50.54,18.0,1.0,1.0,1.0
50.55,5.0,1.0,1.0,1.0
50.56,8.0,1.0,1.0,1.0
50.57,10.0,1.0,1.0,1.0
50.58,9.4944,1.0,1.0,1.0
50.59,10.5056,1.0,1.0,1.0
50.6,14.0,1.0,1.0,1.0
50.61,2.0,1.0,1.0,1.0
50.62,6.0,1.0,1.0,1.0
50.63,6.0,1.0,1.0,1.0
50.64,2.0,1.0,1.0,1.0
50.65,10.0,1.0,1.0,1.0
50.66,7.0,1.0,1.0,1.0
50.67,6.0,1.0,1.0,1.0
50.68,14.4944,1.0,1.0,1.0
50.69,12.5056,1.0,1.0,1.0
50.7,8.0,1.0,1.0,1.0
50.71,8.0,1.0,1.0,1.0
50.72,6.0,1.0,1.0,1.0
50.73,8.0,1.0,1.0,1.0
50.74,11.0,1.0,1.0,1.0
50.75,9.0,1.0,1.0,1.0
50.76,6.0,1.0,1.0,1.0
50.77,0.0,1.0,1.0,1.0
50.78,9.0,1.0,1.0,1.0
50.79,7.0,1.0,1.0,1.0
50.8,4.0,1.0,1.0,1.0
50.81,13.0,1.0,1.0,1.0
50.82,17.0,1.0,1.0,1.0
50.83,2.0,1.0,1.0,1.0
50.84,5.0,1.0,1.0,1.0
50.85,13.0,1.0,1.0,1.0
50.86,4.0,1.0,1.0,1.0
50.87,10.4944,1.0,1.0,1.0
50.88,10.5056,1.0,1.0,1.0
50.89,10.0,1.0,1.0,1.0
50.9,7.0,1.0,1.0,1.0
50.91,7.0,1.0,1.0,1.0
50.92,15.0,1.0,1.0,1.0
50.93,11.0,1.0,1.0,1.0
50.94,8.0,1.0,1.0,1.0
50.95,6.0,1.0,1.0,1.0
50.96,6.4944,1.0,1.0,1.0
50.97,9.5056,1.0,1.0,1.0
50.98,19.0,1.0,1.0,1.0
50.99,6.4833,1.0,1.0,1.0
51.0,6.5167,1.0,1.0,1.0
51.01,2.0,1.0,1.0,1.0
51.02,6.0,1.0,1.0,1.0
51.03,8.0,1.0,1.0,1.0
51.04,5.0,1.0,1.0,1.0
51.05,0.0,1.0,1.0,1.0
51.06,2.0,1.0,1.0,1.0
51.07,10.0,1.0,1.0,1.0
51.08,10.0,1.0,1.0,1.0
51.09,5.0,1.0,1.0,1.0
51.1,0.0,1.0,1.0,1.0
51.11,8.0,1.0,1.0,1.0
51.12,9.0,1.0,1.0,1.0
51.13,8.0,1.0,1.0,1.0
51.14,8.0,1.0,1.0,1.0
51.15,5.0,1.0,1.0,1.0
51.16,6.0,1.0,1.0,1.0
51.17,7.0,1.0,1.0,1.0
51.18,12.0,1.0,1.0,1.0
51.19,4.0,1.0,1.0,1.0
51.2,4.0,1.0,1.0,1.0
51.21,0.0,1.0,1.0,1.0
51.22,6.0,1.0,1.0,1.0
51.23,3.0,1.0,1.0,1.0
51.24,0.0,1.0,1.0,1.0
51.25,9.0,1.0,1.0,1.0
51.26,4.0,1.0,1.0,1.0
51.27,6.0,1.0,1.0,1.0
51.28,5.0,1.0,1.0,1.0
51.29,1.9889,1.0,1.0,1.0
51.3,3.0111,1.0,1.0,1.0
51.31,5.0,1.0,1.0,1.0
51.32,5.4944,1.0,1.0,1.0
51.33,7.5056,1.0,1.0,1.0
51.34,2.0,1.0,1.0,1.0
51.35,8.0,1.0,1.0,1.0
51.36,6.0,1.0,1.0,1.0
51.37,2.0,1.0,1.0,1.0
51.38,0.0,1.0,1.0,1.0
51.39,3.0,1.0,1.0,1.0
51.4,4.0,1.0,1.0,1.0
51.41,2.0,1.0,1.0,1.0
51.42,8.0,1.0,1.0,1.0
51.43,10.0,1.0,1.0,1.0
51.44,7.0,1.0,1.0,1.0
51.45,0.0,1.0,1.0,1.0
51.46,0.0,1.0,1.0,1.0
51.47,3.0,1.0,1.0,1.0
51.48,4.0,1.0,1.0,1.0
51.49,4.4944,1.0,1.0,1.0
51.5,8.5056,1.0,1.0,1.0
51.51,10.0,1.0,1.0,1.0
51.52,6.0,1.0,1.0,1.0
51.53,3.0,1.0,1.0,1.0
51.54,5.0,1.0,1.0,1.0
51.55,4.0,1.0,1.0,1.0
51.56,5.0,1.0,1.0,1.0
51.57,2.4944,1.0,1.0,1.0
51.58,4.5056,1.0,1.0,1.0
51.59,4.0,1.0,1.0,1.0
51.6,8.0,1.0,1.0,1.0
51.61,7.0,1.0,1.0,1.0
51.62,4.0,1.0,1.0,1.0
51.63,2.0,1.0,1.0,1.0
51.64,6.0,1.0,1.0,1.0
51.65,4.0,1.0,1.0,1.0
51.66,2.0,1.0,1.0,1.0
51.67,0.0,1.0,1.0,1.0
51.68,4.0,1.0,1.0,1.0
51.69,2.0,1.0,1.0,1.0
51.7,6.0,1.0,1.0,1.0
51.71,10.0,1.0,1.0,1.0
51.72,6.0,1.0,1.0,1.0
51.73,6.0,1.0,1.0,1.0
51.74,5.4944,1.0,1.0,1.0
51.75,9.5056,1.0,1.0,1.0
51.76,5.0,1.0,1.0,1.0
51.77,2.0,1.0,1.0,1.0
51.78,0.0,1.0,1.0,1.0
51.79,6.0,1.0,1.0,1.0
51.8,3.0,1.0,1.0,1.0
51.81,9.0,1.0,1.0,1.0
51.82,0.0,1.0,1.0,1.0
51.83,7.0,1.0,1.0,1.0
51.84,0.0,1.0,1.0,1.0
51.85,4.0,1.0,1.0,1.0
51.86,4.0,1.0,1.0,1.0
51.87,10.0,1.0,1.0,1.0
51.88,5.0,1.0,1.0,1.0
51.89,2.0,1.0,1.0,1.0
51.9,8.0,1.0,1.0,1.0
51.91,18.0,1.0,1.0,1.0
51.92,4.0,1.0,1.0,1.0
51.93,2.0,1.0,1.0,1.0
51.94,3.9889,1.0,1.0,1.0
51.95,5.0111,1.0,1.0,1.0
51.96,3.0,1.0,1.0,1.0
51.97,2.0,1.0,1.0,1.0
51.98,10.0,1.0,1.0,1.0
51.99,8.0,1.0,1.0,1.0
52.0,7.0,1.0,1.0,1.0