File: XRD:XRR/STO/22099_STOL/22099_STOL_annealed_XRD.csv
#twotheta, yobs, ycal, bkg, diff
42.0,0.0,1.0,1.0,1.0
42.01,0.0,1.0,1.0,1.0
42.02,4.4944,1.0,1.0,1.0
42.03,4.5056,1.0,1.0,1.0
42.04,7.0,1.0,1.0,1.0
42.05,2.0,1.0,1.0,1.0
42.06,2.0,1.0,1.0,1.0
42.07,2.0,1.0,1.0,1.0
42.08,3.4944,1.0,1.0,1.0
42.09,2.5056,1.0,1.0,1.0
42.1,2.0,1.0,1.0,1.0
42.11,3.0,1.0,1.0,1.0
42.12,2.0,1.0,1.0,1.0
42.13,0.0,1.0,1.0,1.0
42.14,0.0,1.0,1.0,1.0
42.15,3.0,1.0,1.0,1.0
42.16,4.0,1.0,1.0,1.0
42.17,2.0,1.0,1.0,1.0
42.18,2.0,1.0,1.0,1.0
42.19,2.0,1.0,1.0,1.0
42.2,0.0,1.0,1.0,1.0
42.21,5.0,1.0,1.0,1.0
42.22,5.0,1.0,1.0,1.0
42.23,8.0,1.0,1.0,1.0
42.24,5.0,1.0,1.0,1.0
42.25,5.0,1.0,1.0,1.0
42.26,2.0,1.0,1.0,1.0
42.27,0.0,1.0,1.0,1.0
42.28,2.0,1.0,1.0,1.0
42.29,5.0,1.0,1.0,1.0
42.3,2.0,1.0,1.0,1.0
42.31,0.0,1.0,1.0,1.0
42.32,2.0,1.0,1.0,1.0
42.33,5.0,1.0,1.0,1.0
42.34,3.0,1.0,1.0,1.0
42.35,6.0,1.0,1.0,1.0
42.36,2.0,1.0,1.0,1.0
42.37,0.0,1.0,1.0,1.0
42.38,0.0,1.0,1.0,1.0
42.39,0.0,1.0,1.0,1.0
42.4,0.0,1.0,1.0,1.0
42.41,4.0,1.0,1.0,1.0
42.42,0.0,1.0,1.0,1.0
42.43,0.0,1.0,1.0,1.0
42.44,2.0,1.0,1.0,1.0
42.45,2.0,1.0,1.0,1.0
42.46,0.0,1.0,1.0,1.0
42.47,0.0,1.0,1.0,1.0
42.48,4.0,1.0,1.0,1.0
42.49,0.0,1.0,1.0,1.0
42.5,2.0,1.0,1.0,1.0
42.51,0.0,1.0,1.0,1.0
42.52,2.0,1.0,1.0,1.0
42.53,2.0,1.0,1.0,1.0
42.54,0.0,1.0,1.0,1.0
42.55,2.0,1.0,1.0,1.0
42.56,2.0,1.0,1.0,1.0
42.57,2.0,1.0,1.0,1.0
42.58,6.0,1.0,1.0,1.0
42.59,4.0,1.0,1.0,1.0
42.6,0.0,1.0,1.0,1.0
42.61,6.0,1.0,1.0,1.0
42.62,0.0,1.0,1.0,1.0
42.63,4.0,1.0,1.0,1.0
42.64,0.0,1.0,1.0,1.0
42.65,3.0,1.0,1.0,1.0
42.66,0.0,1.0,1.0,1.0
42.67,2.0,1.0,1.0,1.0
42.68,0.0,1.0,1.0,1.0
42.69,5.0,1.0,1.0,1.0
42.7,0.4944,1.0,1.0,1.0
42.71,1.5056,1.0,1.0,1.0
42.72,0.0,1.0,1.0,1.0
42.73,18.0,1.0,1.0,1.0
42.74,0.0,1.0,1.0,1.0
42.75,2.0,1.0,1.0,1.0
42.76,6.0,1.0,1.0,1.0
42.77,2.0,1.0,1.0,1.0
42.78,6.0,1.0,1.0,1.0
42.79,4.0,1.0,1.0,1.0
42.8,11.0,1.0,1.0,1.0
42.81,1.0,1.0,1.0,1.0
42.82,7.0,1.0,1.0,1.0
42.83,0.0,1.0,1.0,1.0
42.84,3.0,1.0,1.0,1.0
42.85,0.0,1.0,1.0,1.0
42.86,2.0,1.0,1.0,1.0
42.87,0.0,1.0,1.0,1.0
42.88,0.0,1.0,1.0,1.0
42.89,6.0,1.0,1.0,1.0
42.9,5.0,1.0,1.0,1.0
42.91,4.4944,1.0,1.0,1.0
42.92,5.5056,1.0,1.0,1.0
42.93,0.0,1.0,1.0,1.0
42.94,3.0,1.0,1.0,1.0
42.95,2.4944,1.0,1.0,1.0
42.96,6.5056,1.0,1.0,1.0
42.97,4.0,1.0,1.0,1.0
42.98,2.0,1.0,1.0,1.0
42.99,2.0,1.0,1.0,1.0
43.0,16.0,1.0,1.0,1.0
43.01,5.0,1.0,1.0,1.0
43.02,3.0,1.0,1.0,1.0
43.03,2.0,1.0,1.0,1.0
43.04,8.4944,1.0,1.0,1.0
43.05,8.0,1.0,1.0,1.0
43.06,1.5056,1.0,1.0,1.0
43.07,9.0,1.0,1.0,1.0
43.08,7.0,1.0,1.0,1.0
43.09,4.0,1.0,1.0,1.0
43.1,7.4944,1.0,1.0,1.0
43.11,1.5056,1.0,1.0,1.0
43.12,6.4944,1.0,1.0,1.0
43.13,6.5056,1.0,1.0,1.0
43.14,14.0,1.0,1.0,1.0
43.15,19.0,1.0,1.0,1.0
43.16,8.0,1.0,1.0,1.0
43.17,2.0,1.0,1.0,1.0
43.18,6.0,1.0,1.0,1.0
43.19,6.4944,1.0,1.0,1.0
43.2,14.0,1.0,1.0,1.0
43.21,7.5056,1.0,1.0,1.0
43.22,9.4944,1.0,1.0,1.0
43.23,17.5056,1.0,1.0,1.0
43.24,13.4944,1.0,1.0,1.0
43.25,16.5056,1.0,1.0,1.0
43.26,10.0,1.0,1.0,1.0
43.27,14.4944,1.0,1.0,1.0
43.28,20.5056,1.0,1.0,1.0
43.29,8.0,1.0,1.0,1.0
43.3,7.0,1.0,1.0,1.0
43.31,7.0,1.0,1.0,1.0
43.32,0.0,1.0,1.0,1.0
43.33,6.0,1.0,1.0,1.0
43.34,12.0,1.0,1.0,1.0
43.35,7.0,1.0,1.0,1.0
43.36,31.0,1.0,1.0,1.0
43.37,6.4944,1.0,1.0,1.0
43.38,13.5056,1.0,1.0,1.0
43.39,17.0,1.0,1.0,1.0
43.4,7.0,1.0,1.0,1.0
43.41,7.4944,1.0,1.0,1.0
43.42,9.5056,1.0,1.0,1.0
43.43,6.0,1.0,1.0,1.0
43.44,6.0,1.0,1.0,1.0
43.45,8.0,1.0,1.0,1.0
43.46,14.0,1.0,1.0,1.0
43.47,2.0,1.0,1.0,1.0
43.48,11.0,1.0,1.0,1.0
43.49,7.0,1.0,1.0,1.0
43.5,6.0,1.0,1.0,1.0
43.51,7.0,1.0,1.0,1.0
43.52,20.4944,1.0,1.0,1.0
43.53,4.0,1.0,1.0,1.0
43.54,7.5056,1.0,1.0,1.0
43.55,17.0,1.0,1.0,1.0
43.56,7.0,1.0,1.0,1.0
43.57,7.0,1.0,1.0,1.0
43.58,7.0,1.0,1.0,1.0
43.59,12.0,1.0,1.0,1.0
43.6,7.0,1.0,1.0,1.0
43.61,8.0,1.0,1.0,1.0
43.62,5.0,1.0,1.0,1.0
43.63,0.0,1.0,1.0,1.0
43.64,2.0,1.0,1.0,1.0
43.65,8.0,1.0,1.0,1.0
43.66,5.0,1.0,1.0,1.0
43.67,2.0,1.0,1.0,1.0
43.68,3.0,1.0,1.0,1.0
43.69,0.0,1.0,1.0,1.0
43.7,7.0,1.0,1.0,1.0
43.71,2.0,1.0,1.0,1.0
43.72,3.0,1.0,1.0,1.0
43.73,0.0,1.0,1.0,1.0
43.74,8.0,1.0,1.0,1.0
43.75,3.0,1.0,1.0,1.0
43.76,4.0,1.0,1.0,1.0
43.77,4.0,1.0,1.0,1.0
43.78,5.0,1.0,1.0,1.0
43.79,4.0,1.0,1.0,1.0
43.8,0.0,1.0,1.0,1.0
43.81,2.0,1.0,1.0,1.0
43.82,7.0,1.0,1.0,1.0
43.83,3.0,1.0,1.0,1.0
43.84,0.0,1.0,1.0,1.0
43.85,11.0,1.0,1.0,1.0
43.86,18.0,1.0,1.0,1.0
43.87,0.0,1.0,1.0,1.0
43.88,9.0,1.0,1.0,1.0
43.89,2.0,1.0,1.0,1.0
43.9,3.0,1.0,1.0,1.0
43.91,2.0,1.0,1.0,1.0
43.92,11.0,1.0,1.0,1.0
43.93,18.0,1.0,1.0,1.0
43.94,11.0,1.0,1.0,1.0
43.95,2.0,1.0,1.0,1.0
43.96,4.0,1.0,1.0,1.0
43.97,11.0,1.0,1.0,1.0
43.98,2.4944,1.0,1.0,1.0
43.99,13.5056,1.0,1.0,1.0
44.0,14.0,1.0,1.0,1.0
44.01,16.4944,1.0,1.0,1.0
44.02,22.5056,1.0,1.0,1.0
44.03,18.4944,1.0,1.0,1.0
44.04,22.4944,1.0,1.0,1.0
44.05,23.0111,1.0,1.0,1.0
44.06,23.0,1.0,1.0,1.0
44.07,26.0,1.0,1.0,1.0
44.08,23.0,1.0,1.0,1.0
44.09,27.9889,1.0,1.0,1.0
44.1,25.4944,1.0,1.0,1.0
44.11,46.5167,1.0,1.0,1.0
44.12,33.4833,1.0,1.0,1.0
44.13,53.0111,1.0,1.0,1.0
44.14,42.0,1.0,1.0,1.0
44.15,50.9889,1.0,1.0,1.0
44.16,56.5056,1.0,1.0,1.0
44.17,57.0,1.0,1.0,1.0
44.18,45.0,1.0,1.0,1.0
44.19,71.0,1.0,1.0,1.0
44.2,70.0111,1.0,1.0,1.0
44.21,65.4944,1.0,1.0,1.0
44.22,62.0,1.0,1.0,1.0
44.23,48.9889,1.0,1.0,1.0
44.24,60.5056,1.0,1.0,1.0
44.25,94.5056,1.0,1.0,1.0
44.26,70.0,1.0,1.0,1.0
44.27,108.9889,1.0,1.0,1.0
44.28,81.5056,1.0,1.0,1.0
44.29,96.0,1.0,1.0,1.0
44.3,95.0,1.0,1.0,1.0
44.31,92.0,1.0,1.0,1.0
44.32,110.0111,1.0,1.0,1.0
44.33,119.9778,1.0,1.0,1.0
44.34,143.0111,1.0,1.0,1.0
44.35,111.0,1.0,1.0,1.0
44.36,128.0,1.0,1.0,1.0
44.37,115.0,1.0,1.0,1.0
44.38,130.4944,1.0,1.0,1.0
44.39,140.4833,1.0,1.0,1.0
44.4,141.0222,1.0,1.0,1.0
44.41,134.0111,1.0,1.0,1.0
44.42,147.9889,1.0,1.0,1.0
44.43,146.4944,1.0,1.0,1.0
44.44,172.4944,1.0,1.0,1.0
44.45,180.4944,1.0,1.0,1.0
44.46,177.5167,1.0,1.0,1.0
44.47,194.9889,1.0,1.0,1.0
44.48,206.5056,1.0,1.0,1.0
44.49,186.4944,1.0,1.0,1.0
44.5,214.0111,1.0,1.0,1.0
44.51,202.5056,1.0,1.0,1.0
44.52,198.4944,1.0,1.0,1.0
44.53,217.9889,1.0,1.0,1.0
44.54,226.4833,1.0,1.0,1.0
44.55,247.5056,1.0,1.0,1.0
44.56,223.5056,1.0,1.0,1.0
44.57,226.9778,1.0,1.0,1.0
44.58,246.0111,1.0,1.0,1.0
44.59,272.0,1.0,1.0,1.0
44.6,283.4944,1.0,1.0,1.0
44.61,260.5278,1.0,1.0,1.0
44.62,282.4833,1.0,1.0,1.0
44.63,262.0,1.0,1.0,1.0
44.64,291.5056,1.0,1.0,1.0
44.65,285.4944,1.0,1.0,1.0
44.66,266.0111,1.0,1.0,1.0
44.67,305.5056,1.0,1.0,1.0
44.68,290.4722,1.0,1.0,1.0
44.69,308.0111,1.0,1.0,1.0
44.7,335.4944,1.0,1.0,1.0
44.71,320.0111,1.0,1.0,1.0
44.72,328.4833,1.0,1.0,1.0
44.73,341.5056,1.0,1.0,1.0
44.74,360.4611,1.0,1.0,1.0
44.75,350.5389,1.0,1.0,1.0
44.76,389.0,1.0,1.0,1.0
44.77,400.9889,1.0,1.0,1.0
44.78,366.5056,1.0,1.0,1.0
44.79,402.0,1.0,1.0,1.0
44.8,376.5167,1.0,1.0,1.0
44.81,359.0111,1.0,1.0,1.0
44.82,383.0,1.0,1.0,1.0
44.83,385.9778,1.0,1.0,1.0
44.84,390.4833,1.0,1.0,1.0
44.85,403.0,1.0,1.0,1.0
44.86,420.9889,1.0,1.0,1.0
44.87,368.5167,1.0,1.0,1.0
44.88,404.0111,1.0,1.0,1.0
44.89,412.4944,1.0,1.0,1.0
44.9,411.5056,1.0,1.0,1.0
44.91,424.4722,1.0,1.0,1.0
44.92,464.5389,1.0,1.0,1.0
44.93,396.4944,1.0,1.0,1.0
44.94,387.4833,1.0,1.0,1.0
44.95,371.9889,1.0,1.0,1.0
44.96,448.0,1.0,1.0,1.0
44.97,462.5278,1.0,1.0,1.0
44.98,439.4944,1.0,1.0,1.0
44.99,485.0,1.0,1.0,1.0
45.0,436.4389,1.0,1.0,1.0
45.01,510.55,1.0,1.0,1.0
45.02,468.0,1.0,1.0,1.0
45.03,440.0,1.0,1.0,1.0
45.04,477.0111,1.0,1.0,1.0
45.05,470.9889,1.0,1.0,1.0
45.06,434.5056,1.0,1.0,1.0
45.07,460.0,1.0,1.0,1.0
45.08,464.9889,1.0,1.0,1.0
45.09,443.4944,1.0,1.0,1.0
45.1,459.5056,1.0,1.0,1.0
45.11,461.5278,1.0,1.0,1.0
45.12,408.9667,1.0,1.0,1.0
45.13,485.0111,1.0,1.0,1.0
45.14,455.5056,1.0,1.0,1.0
45.15,475.9778,1.0,1.0,1.0
45.16,459.4944,1.0,1.0,1.0
45.17,431.5389,1.0,1.0,1.0
45.18,470.4722,1.0,1.0,1.0
45.19,464.5167,1.0,1.0,1.0
45.2,480.5056,1.0,1.0,1.0
45.21,447.5056,1.0,1.0,1.0
45.22,431.4833,1.0,1.0,1.0
45.23,487.4944,1.0,1.0,1.0
45.24,454.0,1.0,1.0,1.0
45.25,425.5056,1.0,1.0,1.0
45.26,479.0111,1.0,1.0,1.0
45.27,467.4944,1.0,1.0,1.0
45.28,469.4722,1.0,1.0,1.0
45.29,458.5389,1.0,1.0,1.0
45.3,411.5167,1.0,1.0,1.0
45.31,428.4722,1.0,1.0,1.0
45.32,441.4833,1.0,1.0,1.0
45.33,441.0,1.0,1.0,1.0
45.34,403.0,1.0,1.0,1.0
45.35,415.0222,1.0,1.0,1.0
45.36,415.0,1.0,1.0,1.0
45.37,407.5167,1.0,1.0,1.0
45.38,441.9667,1.0,1.0,1.0
45.39,401.4944,1.0,1.0,1.0
45.4,392.5278,1.0,1.0,1.0
45.41,429.9889,1.0,1.0,1.0
45.42,379.4944,1.0,1.0,1.0
45.43,360.0111,1.0,1.0,1.0
45.44,388.9889,1.0,1.0,1.0
45.45,410.0111,1.0,1.0,1.0
45.46,444.9889,1.0,1.0,1.0
45.47,365.0111,1.0,1.0,1.0
45.48,395.0,1.0,1.0,1.0
45.49,388.4944,1.0,1.0,1.0
45.5,379.0,1.0,1.0,1.0
45.51,412.9778,1.0,1.0,1.0
45.52,360.5167,1.0,1.0,1.0
45.53,398.0,1.0,1.0,1.0
45.54,386.0,1.0,1.0,1.0
45.55,354.5278,1.0,1.0,1.0
45.56,351.0111,1.0,1.0,1.0
45.57,338.4611,1.0,1.0,1.0
45.58,351.0111,1.0,1.0,1.0
45.59,294.5056,1.0,1.0,1.0
45.6,310.0111,1.0,1.0,1.0
45.61,340.0,1.0,1.0,1.0
45.62,310.4833,1.0,1.0,1.0
45.63,334.0111,1.0,1.0,1.0
45.64,313.0111,1.0,1.0,1.0
45.65,298.9778,1.0,1.0,1.0
45.66,291.4833,1.0,1.0,1.0
45.67,325.5167,1.0,1.0,1.0
45.68,321.0222,1.0,1.0,1.0
45.69,277.4833,1.0,1.0,1.0
45.7,320.5056,1.0,1.0,1.0
45.71,290.4611,1.0,1.0,1.0
45.72,287.0333,1.0,1.0,1.0
45.73,262.4833,1.0,1.0,1.0
45.74,258.0,1.0,1.0,1.0
45.75,266.0444,1.0,1.0,1.0
45.76,252.4944,1.0,1.0,1.0
45.77,260.4944,1.0,1.0,1.0
45.78,251.4944,1.0,1.0,1.0
45.79,224.5056,1.0,1.0,1.0
45.8,240.9667,1.0,1.0,1.0
45.81,244.5056,1.0,1.0,1.0
45.82,209.0111,1.0,1.0,1.0
45.83,249.0222,1.0,1.0,1.0
45.84,207.4722,1.0,1.0,1.0
45.85,220.0,1.0,1.0,1.0
45.86,244.0222,1.0,1.0,1.0
45.87,229.5056,1.0,1.0,1.0
45.88,221.4611,1.0,1.0,1.0
45.89,222.0222,1.0,1.0,1.0
45.9,207.4944,1.0,1.0,1.0
45.91,178.0222,1.0,1.0,1.0
45.92,208.9778,1.0,1.0,1.0
45.93,221.5167,1.0,1.0,1.0
45.94,204.4833,1.0,1.0,1.0
45.95,192.5056,1.0,1.0,1.0
45.96,195.0111,1.0,1.0,1.0
45.97,191.0111,1.0,1.0,1.0
45.98,190.4833,1.0,1.0,1.0
45.99,198.9889,1.0,1.0,1.0
46.0,204.0222,1.0,1.0,1.0
46.01,184.9889,1.0,1.0,1.0
46.02,170.0,1.0,1.0,1.0
46.03,175.0,1.0,1.0,1.0
46.04,189.5056,1.0,1.0,1.0
46.05,188.9889,1.0,1.0,1.0
46.06,156.5167,1.0,1.0,1.0
46.07,149.4833,1.0,1.0,1.0
46.08,185.0111,1.0,1.0,1.0
46.09,141.4944,1.0,1.0,1.0
46.1,174.5167,1.0,1.0,1.0
46.11,161.4944,1.0,1.0,1.0
46.12,149.5056,1.0,1.0,1.0
46.13,161.9889,1.0,1.0,1.0
46.14,161.4944,1.0,1.0,1.0
46.15,183.4944,1.0,1.0,1.0
46.16,173.0222,1.0,1.0,1.0
46.17,155.5056,1.0,1.0,1.0
46.18,163.9889,1.0,1.0,1.0
46.19,172.4833,1.0,1.0,1.0
46.2,181.5056,1.0,1.0,1.0
46.21,179.4944,1.0,1.0,1.0
46.22,161.5167,1.0,1.0,1.0
46.23,156.5056,1.0,1.0,1.0
46.24,133.9778,1.0,1.0,1.0
46.25,143.0111,1.0,1.0,1.0
46.26,140.5056,1.0,1.0,1.0
46.27,162.4944,1.0,1.0,1.0
46.28,158.5056,1.0,1.0,1.0
46.29,183.9556,1.0,1.0,1.0
46.3,168.0444,1.0,1.0,1.0
46.31,149.0,1.0,1.0,1.0
46.32,148.5056,1.0,1.0,1.0
46.33,146.9778,1.0,1.0,1.0
46.34,166.4944,1.0,1.0,1.0
46.35,165.0111,1.0,1.0,1.0
46.36,142.0111,1.0,1.0,1.0
46.37,140.4722,1.0,1.0,1.0
46.38,160.5278,1.0,1.0,1.0
46.39,139.0,1.0,1.0,1.0
46.4,184.9889,1.0,1.0,1.0
46.41,143.5167,1.0,1.0,1.0
46.42,163.4944,1.0,1.0,1.0
46.43,176.4944,1.0,1.0,1.0
46.44,177.0,1.0,1.0,1.0
46.45,128.4944,1.0,1.0,1.0
46.46,174.0111,1.0,1.0,1.0
46.47,146.9889,1.0,1.0,1.0
46.48,165.5056,1.0,1.0,1.0
46.49,156.0111,1.0,1.0,1.0
46.5,145.9889,1.0,1.0,1.0
46.51,172.4944,1.0,1.0,1.0
46.52,159.5056,1.0,1.0,1.0
46.53,164.9889,1.0,1.0,1.0
46.54,166.0111,1.0,1.0,1.0
46.55,156.9889,1.0,1.0,1.0
46.56,162.5167,1.0,1.0,1.0
46.57,164.9889,1.0,1.0,1.0
46.58,170.0,1.0,1.0,1.0
46.59,158.0,1.0,1.0,1.0
46.6,127.0,1.0,1.0,1.0
46.61,147.0111,1.0,1.0,1.0
46.62,147.0,1.0,1.0,1.0
46.63,150.9889,1.0,1.0,1.0
46.64,146.0222,1.0,1.0,1.0
46.65,149.4944,1.0,1.0,1.0
46.66,151.4611,1.0,1.0,1.0
46.67,149.5389,1.0,1.0,1.0
46.68,131.5056,1.0,1.0,1.0
46.69,156.9889,1.0,1.0,1.0
46.7,140.4944,1.0,1.0,1.0
46.71,128.4944,1.0,1.0,1.0
46.72,157.4944,1.0,1.0,1.0
46.73,146.5167,1.0,1.0,1.0
46.74,148.4833,1.0,1.0,1.0
46.75,162.5167,1.0,1.0,1.0
46.76,158.5056,1.0,1.0,1.0
46.77,141.9889,1.0,1.0,1.0
46.78,128.5167,1.0,1.0,1.0
46.79,134.9778,1.0,1.0,1.0
46.8,127.0111,1.0,1.0,1.0
46.81,155.9889,1.0,1.0,1.0
46.82,154.0111,1.0,1.0,1.0
46.83,127.9889,1.0,1.0,1.0
46.84,147.0,1.0,1.0,1.0
46.85,131.0222,1.0,1.0,1.0
46.86,104.4833,1.0,1.0,1.0
46.87,126.0,1.0,1.0,1.0
46.88,127.4944,1.0,1.0,1.0
46.89,128.4944,1.0,1.0,1.0
46.9,127.0,1.0,1.0,1.0
46.91,118.0111,1.0,1.0,1.0
46.92,134.5056,1.0,1.0,1.0
46.93,130.4944,1.0,1.0,1.0
46.94,138.4722,1.0,1.0,1.0
46.95,144.0111,1.0,1.0,1.0
46.96,99.0222,1.0,1.0,1.0
46.97,106.4944,1.0,1.0,1.0
46.98,132.9889,1.0,1.0,1.0
46.99,108.0222,1.0,1.0,1.0
47.0,106.5056,1.0,1.0,1.0
47.01,109.4833,1.0,1.0,1.0
47.02,116.0111,1.0,1.0,1.0
47.03,128.9889,1.0,1.0,1.0
47.04,95.0111,1.0,1.0,1.0
47.05,112.5056,1.0,1.0,1.0
47.06,119.4722,1.0,1.0,1.0
47.07,110.0222,1.0,1.0,1.0
47.08,103.4833,1.0,1.0,1.0
47.09,99.0222,1.0,1.0,1.0
47.1,117.4833,1.0,1.0,1.0
47.11,101.0,1.0,1.0,1.0
47.12,92.5167,1.0,1.0,1.0
47.13,83.4833,1.0,1.0,1.0
47.14,119.4944,1.0,1.0,1.0
47.15,115.5056,1.0,1.0,1.0
47.16,130.0,1.0,1.0,1.0
47.17,117.0111,1.0,1.0,1.0
47.18,101.4833,1.0,1.0,1.0
47.19,124.0222,1.0,1.0,1.0
47.2,125.4944,1.0,1.0,1.0
47.21,105.4944,1.0,1.0,1.0
47.22,98.5056,1.0,1.0,1.0
47.23,128.9889,1.0,1.0,1.0
47.24,113.5056,1.0,1.0,1.0
47.25,86.9889,1.0,1.0,1.0
47.26,119.0,1.0,1.0,1.0
47.27,128.5056,1.0,1.0,1.0
47.28,112.0,1.0,1.0,1.0
47.29,122.0,1.0,1.0,1.0
47.3,106.0,1.0,1.0,1.0
47.31,116.4944,1.0,1.0,1.0
47.32,125.5056,1.0,1.0,1.0
47.33,135.5167,1.0,1.0,1.0
47.34,113.0,1.0,1.0,1.0
47.35,148.0,1.0,1.0,1.0
47.36,152.4833,1.0,1.0,1.0
47.37,146.4944,1.0,1.0,1.0
47.38,155.0222,1.0,1.0,1.0
47.39,169.4722,1.0,1.0,1.0
47.4,177.0111,1.0,1.0,1.0
47.41,146.5167,1.0,1.0,1.0
47.42,174.4722,1.0,1.0,1.0
47.43,216.5056,1.0,1.0,1.0
47.44,202.4944,1.0,1.0,1.0
47.45,215.4944,1.0,1.0,1.0
47.46,187.5167,1.0,1.0,1.0
47.47,219.5056,1.0,1.0,1.0
47.48,243.9778,1.0,1.0,1.0
47.49,243.0,1.0,1.0,1.0
47.5,264.0111,1.0,1.0,1.0
47.51,272.0,1.0,1.0,1.0
47.52,241.4833,1.0,1.0,1.0
47.53,297.9778,1.0,1.0,1.0
47.54,331.5278,1.0,1.0,1.0
47.55,306.5056,1.0,1.0,1.0
47.56,350.9889,1.0,1.0,1.0
47.57,353.0,1.0,1.0,1.0
47.58,391.9889,1.0,1.0,1.0
47.59,370.4833,1.0,1.0,1.0
47.6,407.0111,1.0,1.0,1.0
47.61,450.0111,1.0,1.0,1.0
47.62,467.9889,1.0,1.0,1.0
47.63,519.4944,1.0,1.0,1.0
47.64,536.4944,1.0,1.0,1.0
47.65,655.5167,1.0,1.0,1.0
47.66,659.9445,1.0,1.0,1.0
47.67,700.5389,1.0,1.0,1.0
47.68,750.9778,1.0,1.0,1.0
47.69,852.9889,1.0,1.0,1.0
47.7,898.0444,1.0,1.0,1.0
47.71,979.8889,1.0,1.0,1.0
47.72,1104.08,1.0,1.0,1.0
47.73,1317.47,1.0,1.0,1.0
47.74,1453.47,1.0,1.0,1.0
47.75,1495.51,1.0,1.0,1.0
47.76,1655.96,1.0,1.0,1.0
47.77,1988.46,1.0,1.0,1.0
47.78,2211.93,1.0,1.0,1.0
47.79,2631.45,1.0,1.0,1.0
47.8,2852.94,1.0,1.0,1.0
47.81,3369.04,1.0,1.0,1.0
47.82,4099.34,1.0,1.0,1.0
47.83,5109.39,1.0,1.0,1.0
47.84,6420.94,1.0,1.0,1.0
47.85,8105.63,1.0,1.0,1.0
47.86,10587.9,1.0,1.0,1.0
47.87,15071.2,1.0,1.0,1.0
47.88,22876.373,1.0,1.0,1.0
47.89,41192.1,1.0,1.0,1.0
47.9,139097.125,1.0,1.0,1.0
47.91,583688.875,1.0,1.0,1.0
47.92,1301861.0,1.0,1.0,1.0
47.93,2170760.25,1.0,1.0,1.0
47.94,3552386.5,1.0,1.0,1.0
47.95,4742846.0,1.0,1.0,1.0
47.96,4745553.5,1.0,1.0,1.0
47.97,5418685.5,1.0,1.0,1.0
47.98,6058299.0,1.0,1.0,1.0
47.99,2643462.0,1.0,1.0,1.0
48.0,1721180.875,1.0,1.0,1.0
48.01,1712454.75,1.0,1.0,1.0
48.02,1701545.25,1.0,1.0,1.0
48.03,721622.375,1.0,1.0,1.0
48.04,179673,1.0,1.0,1.0
48.05,79570,1.0,1.0,1.0
48.06,46076,1.0,1.0,1.0
48.07,29529.9,1.0,1.0,1.0
48.08,19139.7,1.0,1.0,1.0
48.09,13494.5,1.0,1.0,1.0
48.1,9985.88,1.0,1.0,1.0
48.11,7548.71,1.0,1.0,1.0
48.12,5965.13,1.0,1.0,1.0
48.13,4705.18,1.0,1.0,1.0
48.14,3814.47,1.0,1.0,1.0
48.15,3154.11,1.0,1.0,1.0
48.16,2618.1,1.0,1.0,1.0
48.17,2206.92,1.0,1.0,1.0
48.18,1921.56,1.0,1.0,1.0
48.19,1638.0,1.0,1.0,1.0
48.2,1401.55,1.0,1.0,1.0
48.21,1220.53,1.0,1.0,1.0
48.22,1124.53,1.0,1.0,1.0
48.23,964.5167,1.0,1.0,1.0
48.24,874.4944,1.0,1.0,1.0
48.25,843.9778,1.0,1.0,1.0
48.26,715.55,1.0,1.0,1.0
48.27,613.9889,1.0,1.0,1.0
48.28,555.0222,1.0,1.0,1.0
48.29,516.4944,1.0,1.0,1.0
48.3,454.0222,1.0,1.0,1.0
48.31,414.4944,1.0,1.0,1.0
48.32,372.0111,1.0,1.0,1.0
48.33,361.4833,1.0,1.0,1.0
48.34,315.4833,1.0,1.0,1.0
48.35,331.0222,1.0,1.0,1.0
48.36,315.4722,1.0,1.0,1.0
48.37,291.0444,1.0,1.0,1.0
48.38,230.0,1.0,1.0,1.0
48.39,233.0222,1.0,1.0,1.0
48.4,186.9889,1.0,1.0,1.0
48.41,223.0,1.0,1.0,1.0
48.42,237.4833,1.0,1.0,1.0
48.43,197.4944,1.0,1.0,1.0
48.44,198.5167,1.0,1.0,1.0
48.45,156.0111,1.0,1.0,1.0
48.46,173.9889,1.0,1.0,1.0
48.47,160.0,1.0,1.0,1.0
48.48,172.9889,1.0,1.0,1.0
48.49,147.5056,1.0,1.0,1.0
48.5,146.4944,1.0,1.0,1.0
48.51,114.0222,1.0,1.0,1.0
48.52,114.5056,1.0,1.0,1.0
48.53,116.4944,1.0,1.0,1.0
48.54,108.9778,1.0,1.0,1.0
48.55,93.0222,1.0,1.0,1.0
48.56,123.4833,1.0,1.0,1.0
48.57,110.0111,1.0,1.0,1.0
48.58,96.0111,1.0,1.0,1.0
48.59,85.4833,1.0,1.0,1.0
48.6,110.5167,1.0,1.0,1.0
48.61,71.9889,1.0,1.0,1.0
48.62,70.9889,1.0,1.0,1.0
48.63,64.0111,1.0,1.0,1.0
48.64,90.0,1.0,1.0,1.0
48.65,62.9889,1.0,1.0,1.0
48.66,78.5167,1.0,1.0,1.0
48.67,77.9889,1.0,1.0,1.0
48.68,66.5167,1.0,1.0,1.0
48.69,73.0,1.0,1.0,1.0
48.7,54.0,1.0,1.0,1.0
48.71,44.4944,1.0,1.0,1.0
48.72,37.4944,1.0,1.0,1.0
48.73,45.5056,1.0,1.0,1.0
48.74,54.5056,1.0,1.0,1.0
48.75,49.4944,1.0,1.0,1.0
48.76,53.5056,1.0,1.0,1.0
48.77,49.0,1.0,1.0,1.0
48.78,44.0,1.0,1.0,1.0
48.79,42.0,1.0,1.0,1.0
48.8,34.0,1.0,1.0,1.0
48.81,40.0,1.0,1.0,1.0
48.82,47.4833,1.0,1.0,1.0
48.83,34.5167,1.0,1.0,1.0
48.84,40.0,1.0,1.0,1.0
48.85,32.9889,1.0,1.0,1.0
48.86,30.5056,1.0,1.0,1.0
48.87,28.0,1.0,1.0,1.0
48.88,49.0,1.0,1.0,1.0
48.89,35.0,1.0,1.0,1.0
48.9,34.5056,1.0,1.0,1.0
48.91,24.9889,1.0,1.0,1.0
48.92,22.0111,1.0,1.0,1.0
48.93,23.0,1.0,1.0,1.0
48.94,24.0,1.0,1.0,1.0
48.95,27.0,1.0,1.0,1.0
48.96,25.9889,1.0,1.0,1.0
48.97,26.0111,1.0,1.0,1.0
48.98,34.0,1.0,1.0,1.0
48.99,20.0,1.0,1.0,1.0
49.0,34.0,1.0,1.0,1.0
49.01,17.4944,1.0,1.0,1.0
49.02,14.5056,1.0,1.0,1.0
49.03,20.4944,1.0,1.0,1.0
49.04,13.5056,1.0,1.0,1.0
49.05,10.0,1.0,1.0,1.0
49.06,16.0,1.0,1.0,1.0
49.07,19.0,1.0,1.0,1.0
49.08,21.0,1.0,1.0,1.0
49.09,17.4944,1.0,1.0,1.0
49.1,11.5056,1.0,1.0,1.0
49.11,10.0,1.0,1.0,1.0
49.12,20.0,1.0,1.0,1.0
49.13,14.0,1.0,1.0,1.0
49.14,14.0,1.0,1.0,1.0
49.15,10.0,1.0,1.0,1.0
49.16,14.0,1.0,1.0,1.0
49.17,14.0,1.0,1.0,1.0
49.18,9.4944,1.0,1.0,1.0
49.19,11.5056,1.0,1.0,1.0
49.2,4.0,1.0,1.0,1.0
49.21,7.0,1.0,1.0,1.0
49.22,17.0,1.0,1.0,1.0
49.23,16.0,1.0,1.0,1.0
49.24,16.0,1.0,1.0,1.0
49.25,10.0,1.0,1.0,1.0
49.26,5.0,1.0,1.0,1.0
49.27,11.0,1.0,1.0,1.0
49.28,3.0,1.0,1.0,1.0
49.29,11.0,1.0,1.0,1.0
49.3,0.0,1.0,1.0,1.0
49.31,15.0,1.0,1.0,1.0
49.32,10.0,1.0,1.0,1.0
49.33,9.0,1.0,1.0,1.0
49.34,8.0,1.0,1.0,1.0
49.35,8.0,1.0,1.0,1.0
49.36,7.0,1.0,1.0,1.0
49.37,8.0,1.0,1.0,1.0
49.38,5.0,1.0,1.0,1.0
49.39,5.0,1.0,1.0,1.0
49.4,8.0,1.0,1.0,1.0
49.41,9.0,1.0,1.0,1.0
49.42,3.0,1.0,1.0,1.0
49.43,4.0,1.0,1.0,1.0
49.44,7.0,1.0,1.0,1.0
49.45,2.0,1.0,1.0,1.0
49.46,16.0,1.0,1.0,1.0
49.47,3.0,1.0,1.0,1.0
49.48,2.0,1.0,1.0,1.0
49.49,8.0,1.0,1.0,1.0
49.5,5.0,1.0,1.0,1.0
49.51,0.0,1.0,1.0,1.0
49.52,8.0,1.0,1.0,1.0
49.53,8.0,1.0,1.0,1.0
49.54,9.0,1.0,1.0,1.0
49.55,2.0,1.0,1.0,1.0
49.56,5.4944,1.0,1.0,1.0
49.57,3.5056,1.0,1.0,1.0
49.58,11.0,1.0,1.0,1.0
49.59,0.0,1.0,1.0,1.0
49.6,6.4944,1.0,1.0,1.0
49.61,2.5056,1.0,1.0,1.0
49.62,2.0,1.0,1.0,1.0
49.63,2.0,1.0,1.0,1.0
49.64,10.0,1.0,1.0,1.0
49.65,6.4944,1.0,1.0,1.0
49.66,7.0,1.0,1.0,1.0
49.67,11.5056,1.0,1.0,1.0
49.68,5.0,1.0,1.0,1.0
49.69,10.0,1.0,1.0,1.0
49.7,2.0,1.0,1.0,1.0
49.71,4.0,1.0,1.0,1.0
49.72,4.0,1.0,1.0,1.0
49.73,4.0,1.0,1.0,1.0
49.74,5.0,1.0,1.0,1.0
49.75,2.0,1.0,1.0,1.0
49.76,5.0,1.0,1.0,1.0
49.77,6.0,1.0,1.0,1.0
49.78,5.0,1.0,1.0,1.0
49.79,10.0,1.0,1.0,1.0
49.8,4.0,1.0,1.0,1.0
49.81,5.0,1.0,1.0,1.0
49.82,2.0,1.0,1.0,1.0
49.83,5.0,1.0,1.0,1.0
49.84,2.0,1.0,1.0,1.0
49.85,4.0,1.0,1.0,1.0
49.86,2.0,1.0,1.0,1.0
49.87,3.0,1.0,1.0,1.0
49.88,4.0,1.0,1.0,1.0
49.89,2.0,1.0,1.0,1.0
49.9,6.0,1.0,1.0,1.0
49.91,4.0,1.0,1.0,1.0
49.92,0.0,1.0,1.0,1.0
49.93,2.0,1.0,1.0,1.0
49.94,3.0,1.0,1.0,1.0
49.95,4.0,1.0,1.0,1.0
49.96,1.0,1.0,1.0,1.0
49.97,4.4944,1.0,1.0,1.0
49.98,0.5056,1.0,1.0,1.0
49.99,6.0,1.0,1.0,1.0
50.0,6.0,1.0,1.0,1.0
50.01,0.0,1.0,1.0,1.0
50.02,4.0,1.0,1.0,1.0
50.03,4.0,1.0,1.0,1.0
50.04,4.0,1.0,1.0,1.0
50.05,5.0,1.0,1.0,1.0
50.06,2.0,1.0,1.0,1.0
50.07,8.0,1.0,1.0,1.0
50.08,7.0,1.0,1.0,1.0
50.09,1.4944,1.0,1.0,1.0
50.1,5.5056,1.0,1.0,1.0
50.11,7.0,1.0,1.0,1.0
50.12,0.0,1.0,1.0,1.0
50.13,4.0,1.0,1.0,1.0
50.14,2.0,1.0,1.0,1.0
50.15,10.0,1.0,1.0,1.0
50.16,6.0,1.0,1.0,1.0
50.17,2.0,1.0,1.0,1.0
50.18,0.0,1.0,1.0,1.0
50.19,2.0,1.0,1.0,1.0
50.2,3.0,1.0,1.0,1.0
50.21,2.0,1.0,1.0,1.0
50.22,2.0,1.0,1.0,1.0
50.23,8.0,1.0,1.0,1.0
50.24,2.0,1.0,1.0,1.0
50.25,5.4944,1.0,1.0,1.0
50.26,1.5056,1.0,1.0,1.0
50.27,2.4944,1.0,1.0,1.0
50.28,2.5056,1.0,1.0,1.0
50.29,3.0,1.0,1.0,1.0
50.3,0.0,1.0,1.0,1.0
50.31,0.0,1.0,1.0,1.0
50.32,5.0,1.0,1.0,1.0
50.33,5.0,1.0,1.0,1.0
50.34,0.0,1.0,1.0,1.0
50.35,2.0,1.0,1.0,1.0
50.36,4.0,1.0,1.0,1.0
50.37,4.0,1.0,1.0,1.0
50.38,2.0,1.0,1.0,1.0
50.39,2.0,1.0,1.0,1.0
50.4,4.0,1.0,1.0,1.0
50.41,2.4944,1.0,1.0,1.0
50.42,5.5056,1.0,1.0,1.0
50.43,5.0,1.0,1.0,1.0
50.44,0.0,1.0,1.0,1.0
50.45,4.0,1.0,1.0,1.0
50.46,4.0,1.0,1.0,1.0
50.47,5.0,1.0,1.0,1.0
50.48,0.0,1.0,1.0,1.0
50.49,6.0,1.0,1.0,1.0
50.5,2.0,1.0,1.0,1.0
50.51,4.0,1.0,1.0,1.0
50.52,0.0,1.0,1.0,1.0
50.53,0.0,1.0,1.0,1.0
50.54,2.0,1.0,1.0,1.0
50.55,3.0,1.0,1.0,1.0
50.56,2.0,1.0,1.0,1.0
50.57,2.0,1.0,1.0,1.0
50.58,2.0,1.0,1.0,1.0
50.59,2.0,1.0,1.0,1.0
50.6,0.0,1.0,1.0,1.0
50.61,0.0,1.0,1.0,1.0
50.62,2.0,1.0,1.0,1.0
50.63,5.0,1.0,1.0,1.0
50.64,4.0,1.0,1.0,1.0
50.65,0.0,1.0,1.0,1.0
50.66,0.0,1.0,1.0,1.0
50.67,3.0,1.0,1.0,1.0
50.68,0.0,1.0,1.0,1.0
50.69,0.0,1.0,1.0,1.0
50.7,0.0,1.0,1.0,1.0
50.71,0.0,1.0,1.0,1.0
50.72,2.0,1.0,1.0,1.0
50.73,2.0,1.0,1.0,1.0
50.74,2.0,1.0,1.0,1.0
50.75,0.4944,1.0,1.0,1.0
50.76,4.5056,1.0,1.0,1.0
50.77,0.0,1.0,1.0,1.0
50.78,3.0,1.0,1.0,1.0
50.79,0.4944,1.0,1.0,1.0
50.8,3.5056,1.0,1.0,1.0
50.81,3.0,1.0,1.0,1.0
50.82,1.0,1.0,1.0,1.0
50.83,2.0,1.0,1.0,1.0
50.84,2.0,1.0,1.0,1.0
50.85,2.0,1.0,1.0,1.0
50.86,2.0,1.0,1.0,1.0
50.87,2.0,1.0,1.0,1.0
50.88,4.0,1.0,1.0,1.0
50.89,2.0,1.0,1.0,1.0
50.9,2.0,1.0,1.0,1.0
50.91,0.0,1.0,1.0,1.0
50.92,2.0,1.0,1.0,1.0
50.93,0.0,1.0,1.0,1.0
50.94,2.0,1.0,1.0,1.0
50.95,0.0,1.0,1.0,1.0
50.96,2.0,1.0,1.0,1.0
50.97,0.0,1.0,1.0,1.0
50.98,0.0,1.0,1.0,1.0
50.99,5.0,1.0,1.0,1.0
51.0,4.0,1.0,1.0,1.0
51.01,6.0,1.0,1.0,1.0
51.02,2.0,1.0,1.0,1.0
51.03,5.0,1.0,1.0,1.0
51.04,0.0,1.0,1.0,1.0
51.05,5.0,1.0,1.0,1.0
51.06,2.0,1.0,1.0,1.0
51.07,0.0,1.0,1.0,1.0
51.08,3.0,1.0,1.0,1.0
51.09,2.0,1.0,1.0,1.0
51.1,3.0,1.0,1.0,1.0
51.11,0.0,1.0,1.0,1.0
51.12,4.0,1.0,1.0,1.0
51.13,2.0,1.0,1.0,1.0
51.14,2.0,1.0,1.0,1.0
51.15,0.0,1.0,1.0,1.0
51.16,2.0,1.0,1.0,1.0
51.17,2.0,1.0,1.0,1.0
51.18,0.0,1.0,1.0,1.0
51.19,0.0,1.0,1.0,1.0
51.2,0.0,1.0,1.0,1.0
51.21,0.0,1.0,1.0,1.0
51.22,0.0,1.0,1.0,1.0
51.23,0.0,1.0,1.0,1.0
51.24,4.0,1.0,1.0,1.0
51.25,0.0,1.0,1.0,1.0
51.26,5.0,1.0,1.0,1.0
51.27,2.0,1.0,1.0,1.0
51.28,2.0,1.0,1.0,1.0
51.29,0.0,1.0,1.0,1.0
51.3,3.0,1.0,1.0,1.0
51.31,2.0,1.0,1.0,1.0
51.32,2.0,1.0,1.0,1.0
51.33,2.0,1.0,1.0,1.0
51.34,4.0,1.0,1.0,1.0
51.35,2.0,1.0,1.0,1.0
51.36,0.4944,1.0,1.0,1.0
51.37,1.5056,1.0,1.0,1.0
51.38,0.0,1.0,1.0,1.0
51.39,0.0,1.0,1.0,1.0
51.4,2.0,1.0,1.0,1.0
51.41,0.0,1.0,1.0,1.0
51.42,9.0,1.0,1.0,1.0
51.43,2.0,1.0,1.0,1.0
51.44,0.0,1.0,1.0,1.0
51.45,9.0,1.0,1.0,1.0
51.46,1.0,1.0,1.0,1.0
51.47,2.0,1.0,1.0,1.0
51.48,4.0,1.0,1.0,1.0
51.49,2.0,1.0,1.0,1.0
51.5,4.0,1.0,1.0,1.0
51.51,0.4944,1.0,1.0,1.0
51.52,0.5056,1.0,1.0,1.0
51.53,0.0,1.0,1.0,1.0
51.54,0.0,1.0,1.0,1.0
51.55,0.0,1.0,1.0,1.0
51.56,0.0,1.0,1.0,1.0
51.57,0.0,1.0,1.0,1.0
51.58,0.0,1.0,1.0,1.0
51.59,5.0,1.0,1.0,1.0
51.6,0.0,1.0,1.0,1.0
51.61,0.0,1.0,1.0,1.0
51.62,2.0,1.0,1.0,1.0
51.63,0.0,1.0,1.0,1.0
51.64,0.0,1.0,1.0,1.0
51.65,0.0,1.0,1.0,1.0
51.66,2.0,1.0,1.0,1.0
51.67,1.4944,1.0,1.0,1.0
51.68,1.5056,1.0,1.0,1.0
51.69,0.0,1.0,1.0,1.0
51.7,0.0,1.0,1.0,1.0
51.71,0.0,1.0,1.0,1.0
51.72,0.0,1.0,1.0,1.0
51.73,5.0,1.0,1.0,1.0
51.74,0.0,1.0,1.0,1.0
51.75,2.0,1.0,1.0,1.0
51.76,0.0,1.0,1.0,1.0
51.77,4.0,1.0,1.0,1.0
51.78,0.0,1.0,1.0,1.0
51.79,0.0,1.0,1.0,1.0
51.8,0.0,1.0,1.0,1.0
51.81,0.0,1.0,1.0,1.0
51.82,0.0,1.0,1.0,1.0
51.83,4.0,1.0,1.0,1.0
51.84,4.0,1.0,1.0,1.0
51.85,0.0,1.0,1.0,1.0
51.86,0.0,1.0,1.0,1.0
51.87,0.0,1.0,1.0,1.0
51.88,0.0,1.0,1.0,1.0
51.89,1.0,1.0,1.0,1.0
51.9,2.0,1.0,1.0,1.0
51.91,5.0,1.0,1.0,1.0
51.92,3.0,1.0,1.0,1.0
51.93,5.0,1.0,1.0,1.0
51.94,2.0,1.0,1.0,1.0
51.95,0.0,1.0,1.0,1.0
51.96,0.0,1.0,1.0,1.0
51.97,0.0,1.0,1.0,1.0
51.98,2.0,1.0,1.0,1.0
51.99,0.0,1.0,1.0,1.0
52.0,1.0,1.0,1.0,1.0