File: XRD:XRR/STO/22062_STOA/22062_STOA_XRD_002.csv
#twotheta, yobs, ycal, bkg, diff
41.0,53.4944,1.0,1.0,1.0
41.01,49.5056,1.0,1.0,1.0
41.02,63.4944,1.0,1.0,1.0
41.03,57.0,1.0,1.0,1.0
41.04,56.4944,1.0,1.0,1.0
41.05,49.5056,1.0,1.0,1.0
41.06,44.0111,1.0,1.0,1.0
41.07,72.9778,1.0,1.0,1.0
41.08,62.5167,1.0,1.0,1.0
41.09,72.5056,1.0,1.0,1.0
41.1,47.4944,1.0,1.0,1.0
41.11,48.5056,1.0,1.0,1.0
41.12,63.4833,1.0,1.0,1.0
41.13,60.0,1.0,1.0,1.0
41.14,56.0111,1.0,1.0,1.0
41.15,61.4944,1.0,1.0,1.0
41.16,53.4833,1.0,1.0,1.0
41.17,69.5278,1.0,1.0,1.0
41.18,55.4944,1.0,1.0,1.0
41.19,58.5056,1.0,1.0,1.0
41.2,37.0,1.0,1.0,1.0
41.21,37.0,1.0,1.0,1.0
41.22,61.4944,1.0,1.0,1.0
41.23,52.0,1.0,1.0,1.0
41.24,66.5056,1.0,1.0,1.0
41.25,60.0,1.0,1.0,1.0
41.26,54.0,1.0,1.0,1.0
41.27,61.9889,1.0,1.0,1.0
41.28,87.0111,1.0,1.0,1.0
41.29,64.4944,1.0,1.0,1.0
41.3,60.5056,1.0,1.0,1.0
41.31,65.4944,1.0,1.0,1.0
41.32,44.5056,1.0,1.0,1.0
41.33,54.0,1.0,1.0,1.0
41.34,63.9889,1.0,1.0,1.0
41.35,48.5056,1.0,1.0,1.0
41.36,74.0,1.0,1.0,1.0
41.37,64.5056,1.0,1.0,1.0
41.38,54.4944,1.0,1.0,1.0
41.39,59.5056,1.0,1.0,1.0
41.4,54.0,1.0,1.0,1.0
41.41,59.0,1.0,1.0,1.0
41.42,70.9889,1.0,1.0,1.0
41.43,58.5056,1.0,1.0,1.0
41.44,55.5056,1.0,1.0,1.0
41.45,49.4944,1.0,1.0,1.0
41.46,64.4944,1.0,1.0,1.0
41.47,72.5056,1.0,1.0,1.0
41.48,43.5056,1.0,1.0,1.0
41.49,63.0,1.0,1.0,1.0
41.5,44.0,1.0,1.0,1.0
41.51,54.4944,1.0,1.0,1.0
41.52,64.4944,1.0,1.0,1.0
41.53,39.0111,1.0,1.0,1.0
41.54,49.0,1.0,1.0,1.0
41.55,72.4944,1.0,1.0,1.0
41.56,49.5056,1.0,1.0,1.0
41.57,64.0,1.0,1.0,1.0
41.58,65.0,1.0,1.0,1.0
41.59,65.9889,1.0,1.0,1.0
41.6,49.0111,1.0,1.0,1.0
41.61,48.9889,1.0,1.0,1.0
41.62,70.5056,1.0,1.0,1.0
41.63,46.5056,1.0,1.0,1.0
41.64,56.9889,1.0,1.0,1.0
41.65,44.0111,1.0,1.0,1.0
41.66,68.9889,1.0,1.0,1.0
41.67,75.5056,1.0,1.0,1.0
41.68,65.4944,1.0,1.0,1.0
41.69,65.5056,1.0,1.0,1.0
41.7,71.5056,1.0,1.0,1.0
41.71,76.0,1.0,1.0,1.0
41.72,70.0,1.0,1.0,1.0
41.73,36.0,1.0,1.0,1.0
41.74,54.4944,1.0,1.0,1.0
41.75,69.0,1.0,1.0,1.0
41.76,39.5056,1.0,1.0,1.0
41.77,67.9889,1.0,1.0,1.0
41.78,75.0111,1.0,1.0,1.0
41.79,46.0,1.0,1.0,1.0
41.8,64.0,1.0,1.0,1.0
41.81,68.0,1.0,1.0,1.0
41.82,47.0,1.0,1.0,1.0
41.83,46.4944,1.0,1.0,1.0
41.84,56.5056,1.0,1.0,1.0
41.85,62.9889,1.0,1.0,1.0
41.86,58.5056,1.0,1.0,1.0
41.87,45.5056,1.0,1.0,1.0
41.88,74.9889,1.0,1.0,1.0
41.89,63.9889,1.0,1.0,1.0
41.9,61.5167,1.0,1.0,1.0
41.91,45.0,1.0,1.0,1.0
41.92,62.5056,1.0,1.0,1.0
41.93,46.4944,1.0,1.0,1.0
41.94,64.0,1.0,1.0,1.0
41.95,70.5056,1.0,1.0,1.0
41.96,62.0,1.0,1.0,1.0
41.97,47.0,1.0,1.0,1.0
41.98,66.9778,1.0,1.0,1.0
41.99,59.0222,1.0,1.0,1.0
42.0,50.9889,1.0,1.0,1.0
42.01,71.5056,1.0,1.0,1.0
42.02,78.0,1.0,1.0,1.0
42.03,61.5056,1.0,1.0,1.0
42.04,63.9889,1.0,1.0,1.0
42.05,59.0,1.0,1.0,1.0
42.06,64.5056,1.0,1.0,1.0
42.07,43.5056,1.0,1.0,1.0
42.08,72.9889,1.0,1.0,1.0
42.09,48.0111,1.0,1.0,1.0
42.1,49.9889,1.0,1.0,1.0
42.11,63.5056,1.0,1.0,1.0
42.12,65.0,1.0,1.0,1.0
42.13,63.5056,1.0,1.0,1.0
42.14,69.0,1.0,1.0,1.0
42.15,49.9889,1.0,1.0,1.0
42.16,86.5056,1.0,1.0,1.0
42.17,76.5056,1.0,1.0,1.0
42.18,56.9889,1.0,1.0,1.0
42.19,74.4944,1.0,1.0,1.0
42.2,78.0111,1.0,1.0,1.0
42.21,38.5056,1.0,1.0,1.0
42.22,76.4833,1.0,1.0,1.0
42.23,63.5167,1.0,1.0,1.0
42.24,61.0,1.0,1.0,1.0
42.25,54.4944,1.0,1.0,1.0
42.26,59.0,1.0,1.0,1.0
42.27,56.4944,1.0,1.0,1.0
42.28,68.0111,1.0,1.0,1.0
42.29,61.4944,1.0,1.0,1.0
42.3,65.0,1.0,1.0,1.0
42.31,45.4944,1.0,1.0,1.0
42.32,75.0111,1.0,1.0,1.0
42.33,68.0,1.0,1.0,1.0
42.34,48.9889,1.0,1.0,1.0
42.35,77.0,1.0,1.0,1.0
42.36,62.0111,1.0,1.0,1.0
42.37,63.4833,1.0,1.0,1.0
42.38,52.0,1.0,1.0,1.0
42.39,62.5167,1.0,1.0,1.0
42.4,69.4944,1.0,1.0,1.0
42.41,64.5056,1.0,1.0,1.0
42.42,65.4944,1.0,1.0,1.0
42.43,72.5056,1.0,1.0,1.0
42.44,61.0,1.0,1.0,1.0
42.45,56.4944,1.0,1.0,1.0
42.46,73.4944,1.0,1.0,1.0
42.47,59.0111,1.0,1.0,1.0
42.48,66.0,1.0,1.0,1.0
42.49,54.0,1.0,1.0,1.0
42.5,58.0,1.0,1.0,1.0
42.51,78.9889,1.0,1.0,1.0
42.52,45.0111,1.0,1.0,1.0
42.53,59.4833,1.0,1.0,1.0
42.54,57.5056,1.0,1.0,1.0
42.55,40.0111,1.0,1.0,1.0
42.56,80.0,1.0,1.0,1.0
42.57,58.9778,1.0,1.0,1.0
42.58,66.5167,1.0,1.0,1.0
42.59,51.5056,1.0,1.0,1.0
42.6,55.9889,1.0,1.0,1.0
42.61,61.0,1.0,1.0,1.0
42.62,60.0111,1.0,1.0,1.0
42.63,47.4944,1.0,1.0,1.0
42.64,74.4944,1.0,1.0,1.0
42.65,40.0111,1.0,1.0,1.0
42.66,76.0,1.0,1.0,1.0
42.67,50.0,1.0,1.0,1.0
42.68,58.4944,1.0,1.0,1.0
42.69,43.4944,1.0,1.0,1.0
42.7,50.0111,1.0,1.0,1.0
42.71,46.4944,1.0,1.0,1.0
42.72,68.9889,1.0,1.0,1.0
42.73,59.0111,1.0,1.0,1.0
42.74,60.0,1.0,1.0,1.0
42.75,46.0,1.0,1.0,1.0
42.76,82.4944,1.0,1.0,1.0
42.77,47.0111,1.0,1.0,1.0
42.78,60.0,1.0,1.0,1.0
42.79,45.4833,1.0,1.0,1.0
42.8,71.5167,1.0,1.0,1.0
42.81,56.0,1.0,1.0,1.0
42.82,57.4944,1.0,1.0,1.0
42.83,47.4944,1.0,1.0,1.0
42.84,46.0,1.0,1.0,1.0
42.85,75.0111,1.0,1.0,1.0
42.86,64.4944,1.0,1.0,1.0
42.87,64.9889,1.0,1.0,1.0
42.88,58.0111,1.0,1.0,1.0
42.89,59.0,1.0,1.0,1.0
42.9,65.9889,1.0,1.0,1.0
42.91,54.5056,1.0,1.0,1.0
42.92,65.0111,1.0,1.0,1.0
42.93,76.9889,1.0,1.0,1.0
42.94,55.0111,1.0,1.0,1.0
42.95,54.9778,1.0,1.0,1.0
42.96,71.5167,1.0,1.0,1.0
42.97,53.0,1.0,1.0,1.0
42.98,39.4944,1.0,1.0,1.0
42.99,61.0111,1.0,1.0,1.0
43.0,63.0,1.0,1.0,1.0
43.01,69.4944,1.0,1.0,1.0
43.02,75.0,1.0,1.0,1.0
43.03,57.5056,1.0,1.0,1.0
43.04,67.9889,1.0,1.0,1.0
43.05,52.0111,1.0,1.0,1.0
43.06,44.0,1.0,1.0,1.0
43.07,46.4944,1.0,1.0,1.0
43.08,62.0,1.0,1.0,1.0
43.09,64.5056,1.0,1.0,1.0
43.1,58.4944,1.0,1.0,1.0
43.11,53.5056,1.0,1.0,1.0
43.12,50.0,1.0,1.0,1.0
43.13,66.4944,1.0,1.0,1.0
43.14,66.0,1.0,1.0,1.0
43.15,58.5056,1.0,1.0,1.0
43.16,77.9889,1.0,1.0,1.0
43.17,68.0111,1.0,1.0,1.0
43.18,31.0,1.0,1.0,1.0
43.19,50.0,1.0,1.0,1.0
43.2,68.4944,1.0,1.0,1.0
43.21,45.0,1.0,1.0,1.0
43.22,74.4944,1.0,1.0,1.0
43.23,36.5056,1.0,1.0,1.0
43.24,73.4833,1.0,1.0,1.0
43.25,55.0111,1.0,1.0,1.0
43.26,70.5056,1.0,1.0,1.0
43.27,70.5056,1.0,1.0,1.0
43.28,64.4944,1.0,1.0,1.0
43.29,63.0,1.0,1.0,1.0
43.3,63.0,1.0,1.0,1.0
43.31,55.4944,1.0,1.0,1.0
43.32,68.0,1.0,1.0,1.0
43.33,67.5056,1.0,1.0,1.0
43.34,59.4944,1.0,1.0,1.0
43.35,65.0111,1.0,1.0,1.0
43.36,69.9889,1.0,1.0,1.0
43.37,75.0,1.0,1.0,1.0
43.38,54.0111,1.0,1.0,1.0
43.39,63.0,1.0,1.0,1.0
43.4,60.4944,1.0,1.0,1.0
43.41,58.4833,1.0,1.0,1.0
43.42,54.5167,1.0,1.0,1.0
43.43,59.5056,1.0,1.0,1.0
43.44,58.4833,1.0,1.0,1.0
43.45,87.0111,1.0,1.0,1.0
43.46,57.4833,1.0,1.0,1.0
43.47,79.0222,1.0,1.0,1.0
43.48,47.0,1.0,1.0,1.0
43.49,49.4944,1.0,1.0,1.0
43.5,54.5056,1.0,1.0,1.0
43.51,75.4833,1.0,1.0,1.0
43.52,58.0111,1.0,1.0,1.0
43.53,76.4944,1.0,1.0,1.0
43.54,71.0,1.0,1.0,1.0
43.55,75.0,1.0,1.0,1.0
43.56,60.0,1.0,1.0,1.0
43.57,66.5056,1.0,1.0,1.0
43.58,59.0,1.0,1.0,1.0
43.59,69.5056,1.0,1.0,1.0
43.6,83.4944,1.0,1.0,1.0
43.61,98.4944,1.0,1.0,1.0
43.62,54.0,1.0,1.0,1.0
43.63,61.0,1.0,1.0,1.0
43.64,75.0111,1.0,1.0,1.0
43.65,67.9889,1.0,1.0,1.0
43.66,102.5056,1.0,1.0,1.0
43.67,86.5056,1.0,1.0,1.0
43.68,77.4944,1.0,1.0,1.0
43.69,75.5056,1.0,1.0,1.0
43.7,56.9889,1.0,1.0,1.0
43.71,74.9889,1.0,1.0,1.0
43.72,84.0111,1.0,1.0,1.0
43.73,85.0,1.0,1.0,1.0
43.74,92.0,1.0,1.0,1.0
43.75,80.0,1.0,1.0,1.0
43.76,114.0,1.0,1.0,1.0
43.77,79.0,1.0,1.0,1.0
43.78,72.5056,1.0,1.0,1.0
43.79,53.5056,1.0,1.0,1.0
43.8,55.4833,1.0,1.0,1.0
43.81,72.5056,1.0,1.0,1.0
43.82,58.5056,1.0,1.0,1.0
43.83,70.9889,1.0,1.0,1.0
43.84,78.5167,1.0,1.0,1.0
43.85,93.9889,1.0,1.0,1.0
43.86,87.4944,1.0,1.0,1.0
43.87,77.5056,1.0,1.0,1.0
43.88,72.5056,1.0,1.0,1.0
43.89,78.5056,1.0,1.0,1.0
43.9,76.9889,1.0,1.0,1.0
43.91,81.0111,1.0,1.0,1.0
43.92,77.4833,1.0,1.0,1.0
43.93,86.0,1.0,1.0,1.0
43.94,80.5056,1.0,1.0,1.0
43.95,77.0,1.0,1.0,1.0
43.96,59.0,1.0,1.0,1.0
43.97,70.0111,1.0,1.0,1.0
43.98,70.4944,1.0,1.0,1.0
43.99,84.4944,1.0,1.0,1.0
44.0,93.5056,1.0,1.0,1.0
44.01,67.5056,1.0,1.0,1.0
44.02,76.0,1.0,1.0,1.0
44.03,79.9778,1.0,1.0,1.0
44.04,89.0111,1.0,1.0,1.0
44.05,95.0,1.0,1.0,1.0
44.06,84.4944,1.0,1.0,1.0
44.07,75.5056,1.0,1.0,1.0
44.08,84.0,1.0,1.0,1.0
44.09,73.5056,1.0,1.0,1.0
44.1,77.4833,1.0,1.0,1.0
44.11,74.5167,1.0,1.0,1.0
44.12,84.4833,1.0,1.0,1.0
44.13,70.5167,1.0,1.0,1.0
44.14,72.9889,1.0,1.0,1.0
44.15,89.5056,1.0,1.0,1.0
44.16,75.5056,1.0,1.0,1.0
44.17,87.4833,1.0,1.0,1.0
44.18,71.5167,1.0,1.0,1.0
44.19,62.5056,1.0,1.0,1.0
44.2,67.4833,1.0,1.0,1.0
44.21,71.5167,1.0,1.0,1.0
44.22,77.0,1.0,1.0,1.0
44.23,74.0,1.0,1.0,1.0
44.24,76.9889,1.0,1.0,1.0
44.25,75.4944,1.0,1.0,1.0
44.26,65.0,1.0,1.0,1.0
44.27,50.0111,1.0,1.0,1.0
44.28,64.0,1.0,1.0,1.0
44.29,76.4944,1.0,1.0,1.0
44.3,72.0111,1.0,1.0,1.0
44.31,84.4944,1.0,1.0,1.0
44.32,72.4833,1.0,1.0,1.0
44.33,52.0222,1.0,1.0,1.0
44.34,61.9889,1.0,1.0,1.0
44.35,48.0,1.0,1.0,1.0
44.36,46.0111,1.0,1.0,1.0
44.37,85.9889,1.0,1.0,1.0
44.38,63.0,1.0,1.0,1.0
44.39,79.0,1.0,1.0,1.0
44.4,66.0,1.0,1.0,1.0
44.41,78.5056,1.0,1.0,1.0
44.42,63.0,1.0,1.0,1.0
44.43,66.0,1.0,1.0,1.0
44.44,78.4944,1.0,1.0,1.0
44.45,77.0111,1.0,1.0,1.0
44.46,70.4944,1.0,1.0,1.0
44.47,73.0,1.0,1.0,1.0
44.48,63.0,1.0,1.0,1.0
44.49,65.0,1.0,1.0,1.0
44.5,71.4944,1.0,1.0,1.0
44.51,57.0,1.0,1.0,1.0
44.52,74.0111,1.0,1.0,1.0
44.53,73.4833,1.0,1.0,1.0
44.54,76.5167,1.0,1.0,1.0
44.55,86.9778,1.0,1.0,1.0
44.56,55.0222,1.0,1.0,1.0
44.57,83.9778,1.0,1.0,1.0
44.58,77.5167,1.0,1.0,1.0
44.59,49.0,1.0,1.0,1.0
44.6,101.4833,1.0,1.0,1.0
44.61,72.5056,1.0,1.0,1.0
44.62,58.0111,1.0,1.0,1.0
44.63,76.0,1.0,1.0,1.0
44.64,93.4944,1.0,1.0,1.0
44.65,79.5056,1.0,1.0,1.0
44.66,98.0,1.0,1.0,1.0
44.67,67.4944,1.0,1.0,1.0
44.68,74.4944,1.0,1.0,1.0
44.69,72.0111,1.0,1.0,1.0
44.7,80.4944,1.0,1.0,1.0
44.71,77.9889,1.0,1.0,1.0
44.72,98.5056,1.0,1.0,1.0
44.73,97.0111,1.0,1.0,1.0
44.74,119.9889,1.0,1.0,1.0
44.75,115.0,1.0,1.0,1.0
44.76,117.0111,1.0,1.0,1.0
44.77,81.0,1.0,1.0,1.0
44.78,69.0,1.0,1.0,1.0
44.79,98.4944,1.0,1.0,1.0
44.8,102.9889,1.0,1.0,1.0
44.81,100.0111,1.0,1.0,1.0
44.82,117.0,1.0,1.0,1.0
44.83,118.0,1.0,1.0,1.0
44.84,102.4944,1.0,1.0,1.0
44.85,120.5056,1.0,1.0,1.0
44.86,121.5056,1.0,1.0,1.0
44.87,136.0,1.0,1.0,1.0
44.88,144.4944,1.0,1.0,1.0
44.89,143.4944,1.0,1.0,1.0
44.9,139.0,1.0,1.0,1.0
44.91,127.5056,1.0,1.0,1.0
44.92,134.0,1.0,1.0,1.0
44.93,124.0,1.0,1.0,1.0
44.94,158.0,1.0,1.0,1.0
44.95,151.5056,1.0,1.0,1.0
44.96,129.5056,1.0,1.0,1.0
44.97,124.4944,1.0,1.0,1.0
44.98,160.45,1.0,1.0,1.0
44.99,191.5389,1.0,1.0,1.0
45.0,172.0,1.0,1.0,1.0
45.01,166.9889,1.0,1.0,1.0
45.02,180.0111,1.0,1.0,1.0
45.03,188.5167,1.0,1.0,1.0
45.04,179.0,1.0,1.0,1.0
45.05,216.4833,1.0,1.0,1.0
45.06,194.4944,1.0,1.0,1.0
45.07,181.0111,1.0,1.0,1.0
45.08,228.4944,1.0,1.0,1.0
45.09,201.0,1.0,1.0,1.0
45.1,221.4722,1.0,1.0,1.0
45.11,240.0222,1.0,1.0,1.0
45.12,270.0,1.0,1.0,1.0
45.13,272.0,1.0,1.0,1.0
45.14,245.0111,1.0,1.0,1.0
45.15,248.4833,1.0,1.0,1.0
45.16,251.4944,1.0,1.0,1.0
45.17,285.9889,1.0,1.0,1.0
45.18,274.5167,1.0,1.0,1.0
45.19,248.5056,1.0,1.0,1.0
45.2,282.4944,1.0,1.0,1.0
45.21,299.0111,1.0,1.0,1.0
45.22,272.4611,1.0,1.0,1.0
45.23,309.5278,1.0,1.0,1.0
45.24,302.4833,1.0,1.0,1.0
45.25,316.5056,1.0,1.0,1.0
45.26,353.0,1.0,1.0,1.0
45.27,327.5056,1.0,1.0,1.0
45.28,326.4611,1.0,1.0,1.0
45.29,323.5389,1.0,1.0,1.0
45.3,363.4833,1.0,1.0,1.0
45.31,360.0111,1.0,1.0,1.0
45.32,379.9889,1.0,1.0,1.0
45.33,336.5167,1.0,1.0,1.0
45.34,374.9667,1.0,1.0,1.0
45.35,368.5278,1.0,1.0,1.0
45.36,377.9889,1.0,1.0,1.0
45.37,386.0,1.0,1.0,1.0
45.38,382.0111,1.0,1.0,1.0
45.39,390.0,1.0,1.0,1.0
45.4,398.4833,1.0,1.0,1.0
45.41,376.0111,1.0,1.0,1.0
45.42,439.0,1.0,1.0,1.0
45.43,472.4833,1.0,1.0,1.0
45.44,428.5056,1.0,1.0,1.0
45.45,440.5278,1.0,1.0,1.0
45.46,422.9889,1.0,1.0,1.0
45.47,415.9889,1.0,1.0,1.0
45.48,464.4389,1.0,1.0,1.0
45.49,488.5611,1.0,1.0,1.0
45.5,478.5056,1.0,1.0,1.0
45.51,450.5167,1.0,1.0,1.0
45.52,516.9556,1.0,1.0,1.0
45.53,494.0111,1.0,1.0,1.0
45.54,497.4944,1.0,1.0,1.0
45.55,528.5056,1.0,1.0,1.0
45.56,531.0333,1.0,1.0,1.0
45.57,511.4722,1.0,1.0,1.0
45.58,554.0,1.0,1.0,1.0
45.59,508.0111,1.0,1.0,1.0
45.6,528.9778,1.0,1.0,1.0
45.61,523.9889,1.0,1.0,1.0
45.62,512.0444,1.0,1.0,1.0
45.63,541.9889,1.0,1.0,1.0
45.64,558.9889,1.0,1.0,1.0
45.65,585.9667,1.0,1.0,1.0
45.66,577.0111,1.0,1.0,1.0
45.67,599.4944,1.0,1.0,1.0
45.68,675.4944,1.0,1.0,1.0
45.69,635.5167,1.0,1.0,1.0
45.7,623.0222,1.0,1.0,1.0
45.71,616.4278,1.0,1.0,1.0
45.72,607.0667,1.0,1.0,1.0
45.73,622.9889,1.0,1.0,1.0
45.74,617.9556,1.0,1.0,1.0
45.75,667.5611,1.0,1.0,1.0
45.76,627.9667,1.0,1.0,1.0
45.77,649.5056,1.0,1.0,1.0
45.78,660.4944,1.0,1.0,1.0
45.79,641.5056,1.0,1.0,1.0
45.8,639.5167,1.0,1.0,1.0
45.81,651.9556,1.0,1.0,1.0
45.82,631.5278,1.0,1.0,1.0
45.83,676.0,1.0,1.0,1.0
45.84,667.5278,1.0,1.0,1.0
45.85,709.45,1.0,1.0,1.0
45.86,728.0222,1.0,1.0,1.0
45.87,672.5056,1.0,1.0,1.0
45.88,699.0444,1.0,1.0,1.0
45.89,692.9445,1.0,1.0,1.0
45.9,714.0222,1.0,1.0,1.0
45.91,741.9889,1.0,1.0,1.0
45.92,695.9889,1.0,1.0,1.0
45.93,733.4833,1.0,1.0,1.0
45.94,713.0222,1.0,1.0,1.0
45.95,708.4944,1.0,1.0,1.0
45.96,739.9667,1.0,1.0,1.0
45.97,736.0667,1.0,1.0,1.0
45.98,719.4611,1.0,1.0,1.0
45.99,726.4944,1.0,1.0,1.0
46.0,710.0222,1.0,1.0,1.0
46.01,776.9889,1.0,1.0,1.0
46.02,734.0,1.0,1.0,1.0
46.03,753.9667,1.0,1.0,1.0
46.04,765.55,1.0,1.0,1.0
46.05,759.9778,1.0,1.0,1.0
46.06,761.9889,1.0,1.0,1.0
46.07,757.5389,1.0,1.0,1.0
46.08,771.0,1.0,1.0,1.0
46.09,765.5056,1.0,1.0,1.0
46.1,758.9556,1.0,1.0,1.0
46.11,724.5167,1.0,1.0,1.0
46.12,692.0,1.0,1.0,1.0
46.13,756.4944,1.0,1.0,1.0
46.14,711.4611,1.0,1.0,1.0
46.15,727.0222,1.0,1.0,1.0
46.16,798.5278,1.0,1.0,1.0
46.17,745.5056,1.0,1.0,1.0
46.18,747.9889,1.0,1.0,1.0
46.19,680.5167,1.0,1.0,1.0
46.2,762.9556,1.0,1.0,1.0
46.21,714.55,1.0,1.0,1.0
46.22,789.5167,1.0,1.0,1.0
46.23,735.9667,1.0,1.0,1.0
46.24,765.4722,1.0,1.0,1.0
46.25,712.9889,1.0,1.0,1.0
46.26,693.5389,1.0,1.0,1.0
46.27,726.9556,1.0,1.0,1.0
46.28,739.0778,1.0,1.0,1.0
46.29,771.0111,1.0,1.0,1.0
46.3,724.9222,1.0,1.0,1.0
46.31,742.0444,1.0,1.0,1.0
46.32,743.4389,1.0,1.0,1.0
46.33,723.5389,1.0,1.0,1.0
46.34,728.9667,1.0,1.0,1.0
46.35,702.0333,1.0,1.0,1.0
46.36,725.55,1.0,1.0,1.0
46.37,710.4389,1.0,1.0,1.0
46.38,765.0,1.0,1.0,1.0
46.39,729.5056,1.0,1.0,1.0
46.4,751.5056,1.0,1.0,1.0
46.41,821.4944,1.0,1.0,1.0
46.42,733.9778,1.0,1.0,1.0
46.43,745.0333,1.0,1.0,1.0
46.44,786.5056,1.0,1.0,1.0
46.45,710.9667,1.0,1.0,1.0
46.46,695.5056,1.0,1.0,1.0
46.47,685.0,1.0,1.0,1.0
46.48,634.5611,1.0,1.0,1.0
46.49,691.9556,1.0,1.0,1.0
46.5,667.0222,1.0,1.0,1.0
46.51,659.4833,1.0,1.0,1.0
46.52,669.0,1.0,1.0,1.0
46.53,599.5278,1.0,1.0,1.0
46.54,557.5056,1.0,1.0,1.0
46.55,595.0111,1.0,1.0,1.0
46.56,590.9889,1.0,1.0,1.0
46.57,563.9667,1.0,1.0,1.0
46.58,600.0,1.0,1.0,1.0
46.59,546.0222,1.0,1.0,1.0
46.6,522.0222,1.0,1.0,1.0
46.61,543.9667,1.0,1.0,1.0
46.62,545.5056,1.0,1.0,1.0
46.63,502.0,1.0,1.0,1.0
46.64,510.0,1.0,1.0,1.0
46.65,505.9889,1.0,1.0,1.0
46.66,482.0444,1.0,1.0,1.0
46.67,508.9778,1.0,1.0,1.0
46.68,451.9889,1.0,1.0,1.0
46.69,465.0222,1.0,1.0,1.0
46.7,467.4833,1.0,1.0,1.0
46.71,439.5389,1.0,1.0,1.0
46.72,422.4611,1.0,1.0,1.0
46.73,427.0333,1.0,1.0,1.0
46.74,440.4833,1.0,1.0,1.0
46.75,404.5167,1.0,1.0,1.0
46.76,419.4944,1.0,1.0,1.0
46.77,385.9889,1.0,1.0,1.0
46.78,417.0111,1.0,1.0,1.0
46.79,329.9889,1.0,1.0,1.0
46.8,397.5056,1.0,1.0,1.0
46.81,347.0111,1.0,1.0,1.0
46.82,359.4833,1.0,1.0,1.0
46.83,345.4944,1.0,1.0,1.0
46.84,332.9889,1.0,1.0,1.0
46.85,348.5167,1.0,1.0,1.0
46.86,319.5167,1.0,1.0,1.0
46.87,275.9778,1.0,1.0,1.0
46.88,295.4833,1.0,1.0,1.0
46.89,280.55,1.0,1.0,1.0
46.9,294.4944,1.0,1.0,1.0
46.91,290.0111,1.0,1.0,1.0
46.92,279.9556,1.0,1.0,1.0
46.93,271.0444,1.0,1.0,1.0
46.94,252.4833,1.0,1.0,1.0
46.95,239.4944,1.0,1.0,1.0
46.96,252.0111,1.0,1.0,1.0
46.97,224.5056,1.0,1.0,1.0
46.98,229.4944,1.0,1.0,1.0
46.99,233.5056,1.0,1.0,1.0
47.0,241.9889,1.0,1.0,1.0
47.01,243.4833,1.0,1.0,1.0
47.02,181.5278,1.0,1.0,1.0
47.03,204.0,1.0,1.0,1.0
47.04,195.5056,1.0,1.0,1.0
47.05,242.9889,1.0,1.0,1.0
47.06,203.4944,1.0,1.0,1.0
47.07,224.0222,1.0,1.0,1.0
47.08,165.9889,1.0,1.0,1.0
47.09,174.9778,1.0,1.0,1.0
47.1,164.5389,1.0,1.0,1.0
47.11,182.9778,1.0,1.0,1.0
47.12,199.0111,1.0,1.0,1.0
47.13,209.9889,1.0,1.0,1.0
47.14,161.4833,1.0,1.0,1.0
47.15,169.4944,1.0,1.0,1.0
47.16,175.5056,1.0,1.0,1.0
47.17,185.5278,1.0,1.0,1.0
47.18,146.9889,1.0,1.0,1.0
47.19,177.0,1.0,1.0,1.0
47.2,193.0111,1.0,1.0,1.0
47.21,198.4944,1.0,1.0,1.0
47.22,197.0,1.0,1.0,1.0
47.23,196.0,1.0,1.0,1.0
47.24,179.4944,1.0,1.0,1.0
47.25,215.0111,1.0,1.0,1.0
47.26,188.4833,1.0,1.0,1.0
47.27,193.0,1.0,1.0,1.0
47.28,206.0,1.0,1.0,1.0
47.29,176.5278,1.0,1.0,1.0
47.3,170.9778,1.0,1.0,1.0
47.31,175.4944,1.0,1.0,1.0
47.32,161.0222,1.0,1.0,1.0
47.33,173.4944,1.0,1.0,1.0
47.34,157.9778,1.0,1.0,1.0
47.35,174.0,1.0,1.0,1.0
47.36,153.0,1.0,1.0,1.0
47.37,162.5278,1.0,1.0,1.0
47.38,136.4944,1.0,1.0,1.0
47.39,168.4944,1.0,1.0,1.0
47.4,156.0111,1.0,1.0,1.0
47.41,145.4833,1.0,1.0,1.0
47.42,157.5056,1.0,1.0,1.0
47.43,169.4944,1.0,1.0,1.0
47.44,132.4944,1.0,1.0,1.0
47.45,167.5167,1.0,1.0,1.0
47.46,163.4833,1.0,1.0,1.0
47.47,164.0111,1.0,1.0,1.0
47.48,172.5056,1.0,1.0,1.0
47.49,157.0,1.0,1.0,1.0
47.5,180.9778,1.0,1.0,1.0
47.51,190.0,1.0,1.0,1.0
47.52,201.0111,1.0,1.0,1.0
47.53,169.0111,1.0,1.0,1.0
47.54,203.4833,1.0,1.0,1.0
47.55,170.5167,1.0,1.0,1.0
47.56,215.0,1.0,1.0,1.0
47.57,261.0,1.0,1.0,1.0
47.58,268.4722,1.0,1.0,1.0
47.59,233.5167,1.0,1.0,1.0
47.6,236.9889,1.0,1.0,1.0
47.61,239.0111,1.0,1.0,1.0
47.62,226.4833,1.0,1.0,1.0
47.63,273.5167,1.0,1.0,1.0
47.64,267.4944,1.0,1.0,1.0
47.65,253.4944,1.0,1.0,1.0
47.66,268.9778,1.0,1.0,1.0
47.67,264.5278,1.0,1.0,1.0
47.68,314.4944,1.0,1.0,1.0
47.69,262.5056,1.0,1.0,1.0
47.7,309.0,1.0,1.0,1.0
47.71,270.0,1.0,1.0,1.0
47.72,318.9778,1.0,1.0,1.0
47.73,346.5167,1.0,1.0,1.0
47.74,338.4944,1.0,1.0,1.0
47.75,356.9556,1.0,1.0,1.0
47.76,380.0555,1.0,1.0,1.0
47.77,345.4944,1.0,1.0,1.0
47.78,414.4611,1.0,1.0,1.0
47.79,420.0333,1.0,1.0,1.0
47.8,399.0,1.0,1.0,1.0
47.81,456.5056,1.0,1.0,1.0
47.82,426.0,1.0,1.0,1.0
47.83,443.9556,1.0,1.0,1.0
47.84,427.5278,1.0,1.0,1.0
47.85,480.5056,1.0,1.0,1.0
47.86,498.4722,1.0,1.0,1.0
47.87,501.5278,1.0,1.0,1.0
47.88,492.9778,1.0,1.0,1.0
47.89,544.9778,1.0,1.0,1.0
47.9,532.0222,1.0,1.0,1.0
47.91,610.5056,1.0,1.0,1.0
47.92,649.4722,1.0,1.0,1.0
47.93,656.5278,1.0,1.0,1.0
47.94,652.0,1.0,1.0,1.0
47.95,673.5056,1.0,1.0,1.0
47.96,700.9445,1.0,1.0,1.0
47.97,751.5278,1.0,1.0,1.0
47.98,811.4833,1.0,1.0,1.0
47.99,841.5056,1.0,1.0,1.0
48.0,787.45,1.0,1.0,1.0
48.01,886.5944,1.0,1.0,1.0
48.02,906.4833,1.0,1.0,1.0
48.03,912.4278,1.0,1.0,1.0
48.04,933.0778,1.0,1.0,1.0
48.05,979.4833,1.0,1.0,1.0
48.06,1055.91,1.0,1.0,1.0
48.07,1066.01,1.0,1.0,1.0
48.08,1132.55,1.0,1.0,1.0
48.09,1205.46,1.0,1.0,1.0
48.1,1265.92,1.0,1.0,1.0
48.11,1329.57,1.0,1.0,1.0
48.12,1425.0,1.0,1.0,1.0
48.13,1422.46,1.0,1.0,1.0
48.14,1595.51,1.0,1.0,1.0
48.15,1612.48,1.0,1.0,1.0
48.16,1726.92,1.0,1.0,1.0
48.17,1872.54,1.0,1.0,1.0
48.18,2047.55,1.0,1.0,1.0
48.19,2025.42,1.0,1.0,1.0
48.2,2273.49,1.0,1.0,1.0
48.21,2410.54,1.0,1.0,1.0
48.22,2627.99,1.0,1.0,1.0
48.23,2782.98,1.0,1.0,1.0
48.24,2962.36,1.0,1.0,1.0
48.25,3278.04,1.0,1.0,1.0
48.26,3525.39,1.0,1.0,1.0
48.27,3863.04,1.0,1.0,1.0
48.28,4348.91,1.0,1.0,1.0
48.29,4834.439,1.0,1.0,1.0
48.3,5139.52,1.0,1.0,1.0
48.31,5896.9,1.0,1.0,1.0
48.32,6763.82,1.0,1.0,1.0
48.33,7672.91,1.0,1.0,1.0
48.34,8900.92,1.0,1.0,1.0
48.35,10598.6,1.0,1.0,1.0
48.36,13526.917,1.0,1.0,1.0
48.37,18202.1,1.0,1.0,1.0
48.38,22868.3,1.0,1.0,1.0
48.39,31035.3,1.0,1.0,1.0
48.4,50360.2,1.0,1.0,1.0
48.41,81027,1.0,1.0,1.0
48.42,97812.8,1.0,1.0,1.0
48.43,102106,1.0,1.0,1.0
48.44,121905,1.0,1.0,1.0
48.45,166176,1.0,1.0,1.0
48.46,266930.0,1.0,1.0,1.0
48.47,610032.875,1.0,1.0,1.0
48.48,2033821.875,1.0,1.0,1.0
48.49,5271445.5,1.0,1.0,1.0
48.5,9698226.0,1.0,1.0,1.0
48.51,15710641.0,1.0,1.0,1.0
48.52,14667935.0,1.0,1.0,1.0
48.53,5611931.5,1.0,1.0,1.0
48.54,1921719.5,1.0,1.0,1.0
48.55,933154,1.0,1.0,1.0
48.56,546846,1.0,1.0,1.0
48.57,328478.0,1.0,1.0,1.0
48.58,192798,1.0,1.0,1.0
48.59,114012,1.0,1.0,1.0
48.6,72626.8,1.0,1.0,1.0
48.61,48464.2,1.0,1.0,1.0
48.62,33520.4,1.0,1.0,1.0
48.63,24040.9,1.0,1.0,1.0
48.64,18239.4,1.0,1.0,1.0
48.65,14510.2,1.0,1.0,1.0
48.66,11876.4,1.0,1.0,1.0
48.67,9936.73,1.0,1.0,1.0
48.68,8127.54,1.0,1.0,1.0
48.69,6976.3,1.0,1.0,1.0
48.7,6165.41,1.0,1.0,1.0
48.71,5355.18,1.0,1.0,1.0
48.72,4634.54,1.0,1.0,1.0
48.73,4265.03,1.0,1.0,1.0
48.74,3742.55,1.0,1.0,1.0
48.75,3390.59,1.0,1.0,1.0
48.76,3092.99,1.0,1.0,1.0
48.77,2803.561,1.0,1.0,1.0
48.78,2578.02,1.0,1.0,1.0
48.79,2327.41,1.0,1.0,1.0
48.8,2105.12,1.0,1.0,1.0
48.81,1981.51,1.0,1.0,1.0
48.82,1795.0,1.0,1.0,1.0
48.83,1713.01,1.0,1.0,1.0
48.84,1625.03,1.0,1.0,1.0
48.85,1488.54,1.0,1.0,1.0
48.86,1342.94,1.0,1.0,1.0
48.87,1239.0,1.0,1.0,1.0
48.88,1195.56,1.0,1.0,1.0
48.89,1119.49,1.0,1.0,1.0
48.9,1034.49,1.0,1.0,1.0
48.91,975.5278,1.0,1.0,1.0
48.92,868.0333,1.0,1.0,1.0
48.93,814.4722,1.0,1.0,1.0
48.94,823.0222,1.0,1.0,1.0
48.95,748.5278,1.0,1.0,1.0
48.96,625.9889,1.0,1.0,1.0
48.97,594.5056,1.0,1.0,1.0
48.98,605.0,1.0,1.0,1.0
48.99,574.4944,1.0,1.0,1.0
49.0,522.4833,1.0,1.0,1.0
49.01,541.5167,1.0,1.0,1.0
49.02,575.9889,1.0,1.0,1.0
49.03,480.0444,1.0,1.0,1.0
49.04,452.4611,1.0,1.0,1.0
49.05,475.4944,1.0,1.0,1.0
49.06,417.5389,1.0,1.0,1.0
49.07,402.0,1.0,1.0,1.0
49.08,378.5056,1.0,1.0,1.0
49.09,353.9889,1.0,1.0,1.0
49.1,375.0222,1.0,1.0,1.0
49.11,308.9889,1.0,1.0,1.0
49.12,313.9667,1.0,1.0,1.0
49.13,343.0333,1.0,1.0,1.0
49.14,316.4833,1.0,1.0,1.0
49.15,283.0,1.0,1.0,1.0
49.16,269.0,1.0,1.0,1.0
49.17,259.4944,1.0,1.0,1.0
49.18,236.5056,1.0,1.0,1.0
49.19,245.5278,1.0,1.0,1.0
49.2,225.4944,1.0,1.0,1.0
49.21,209.5056,1.0,1.0,1.0
49.22,236.4722,1.0,1.0,1.0
49.23,181.0333,1.0,1.0,1.0
49.24,191.9667,1.0,1.0,1.0
49.25,225.5056,1.0,1.0,1.0
49.26,192.5167,1.0,1.0,1.0
49.27,170.0111,1.0,1.0,1.0
49.28,193.9778,1.0,1.0,1.0
49.29,143.5167,1.0,1.0,1.0
49.3,159.4833,1.0,1.0,1.0
49.31,148.0111,1.0,1.0,1.0
49.32,132.5056,1.0,1.0,1.0
49.33,179.4833,1.0,1.0,1.0
49.34,139.5056,1.0,1.0,1.0
49.35,144.0111,1.0,1.0,1.0
49.36,146.4944,1.0,1.0,1.0
49.37,136.0,1.0,1.0,1.0
49.38,136.5056,1.0,1.0,1.0
49.39,128.9778,1.0,1.0,1.0
49.4,148.0222,1.0,1.0,1.0
49.41,122.0111,1.0,1.0,1.0
49.42,149.9889,1.0,1.0,1.0
49.43,94.0111,1.0,1.0,1.0
49.44,100.9889,1.0,1.0,1.0
49.45,110.5056,1.0,1.0,1.0
49.46,129.4944,1.0,1.0,1.0
49.47,139.9889,1.0,1.0,1.0
49.48,106.0,1.0,1.0,1.0
49.49,94.5056,1.0,1.0,1.0
49.5,104.0111,1.0,1.0,1.0
49.51,78.4944,1.0,1.0,1.0
49.52,94.5056,1.0,1.0,1.0
49.53,95.0,1.0,1.0,1.0
49.54,91.9889,1.0,1.0,1.0
49.55,96.5167,1.0,1.0,1.0
49.56,116.9778,1.0,1.0,1.0
49.57,91.5167,1.0,1.0,1.0
49.58,104.9889,1.0,1.0,1.0
49.59,93.5167,1.0,1.0,1.0
49.6,91.4833,1.0,1.0,1.0
49.61,119.0,1.0,1.0,1.0
49.62,94.4944,1.0,1.0,1.0
49.63,85.0111,1.0,1.0,1.0
49.64,91.4944,1.0,1.0,1.0
49.65,96.5056,1.0,1.0,1.0
49.66,90.4944,1.0,1.0,1.0
49.67,78.5056,1.0,1.0,1.0
49.68,112.0,1.0,1.0,1.0
49.69,82.0111,1.0,1.0,1.0
49.7,79.4944,1.0,1.0,1.0
49.71,99.0,1.0,1.0,1.0
49.72,101.4944,1.0,1.0,1.0
49.73,113.0111,1.0,1.0,1.0
49.74,127.4833,1.0,1.0,1.0
49.75,144.5056,1.0,1.0,1.0
49.76,134.9667,1.0,1.0,1.0
49.77,143.5389,1.0,1.0,1.0
49.78,130.9889,1.0,1.0,1.0
49.79,127.5056,1.0,1.0,1.0
49.8,120.0111,1.0,1.0,1.0
49.81,129.4833,1.0,1.0,1.0
49.82,101.5167,1.0,1.0,1.0
49.83,100.4833,1.0,1.0,1.0
49.84,89.5056,1.0,1.0,1.0
49.85,94.0111,1.0,1.0,1.0
49.86,85.9889,1.0,1.0,1.0
49.87,80.0,1.0,1.0,1.0
49.88,91.5056,1.0,1.0,1.0
49.89,87.4944,1.0,1.0,1.0
49.9,59.0111,1.0,1.0,1.0
49.91,74.4944,1.0,1.0,1.0
49.92,65.5056,1.0,1.0,1.0
49.93,95.0,1.0,1.0,1.0
49.94,87.9889,1.0,1.0,1.0
49.95,74.9889,1.0,1.0,1.0
49.96,62.0222,1.0,1.0,1.0
49.97,97.9889,1.0,1.0,1.0
49.98,89.0111,1.0,1.0,1.0
49.99,66.9889,1.0,1.0,1.0
50.0,83.0,1.0,1.0,1.0
50.01,69.0111,1.0,1.0,1.0
50.02,61.0,1.0,1.0,1.0
50.03,98.9889,1.0,1.0,1.0
50.04,92.5056,1.0,1.0,1.0
50.05,86.5056,1.0,1.0,1.0
50.06,70.9889,1.0,1.0,1.0
50.07,61.5056,1.0,1.0,1.0
50.08,86.4833,1.0,1.0,1.0
50.09,58.0222,1.0,1.0,1.0
50.1,79.9889,1.0,1.0,1.0
50.11,81.5056,1.0,1.0,1.0
50.12,69.4944,1.0,1.0,1.0
50.13,82.5056,1.0,1.0,1.0
50.14,84.4944,1.0,1.0,1.0
50.15,80.0,1.0,1.0,1.0
50.16,90.0,1.0,1.0,1.0
50.17,65.0,1.0,1.0,1.0
50.18,80.4944,1.0,1.0,1.0
50.19,79.0,1.0,1.0,1.0
50.2,74.5167,1.0,1.0,1.0
50.21,74.9778,1.0,1.0,1.0
50.22,51.0222,1.0,1.0,1.0
50.23,60.4833,1.0,1.0,1.0
50.24,68.0111,1.0,1.0,1.0
50.25,72.5056,1.0,1.0,1.0
50.26,68.4944,1.0,1.0,1.0
50.27,83.5056,1.0,1.0,1.0
50.28,73.0,1.0,1.0,1.0
50.29,71.0,1.0,1.0,1.0
50.3,69.9889,1.0,1.0,1.0
50.31,59.4944,1.0,1.0,1.0
50.32,62.5056,1.0,1.0,1.0
50.33,68.5056,1.0,1.0,1.0
50.34,45.4944,1.0,1.0,1.0
50.35,51.4944,1.0,1.0,1.0
50.36,73.5056,1.0,1.0,1.0
50.37,55.0111,1.0,1.0,1.0
50.38,55.4944,1.0,1.0,1.0
50.39,64.9889,1.0,1.0,1.0
50.4,58.5167,1.0,1.0,1.0
50.41,76.0,1.0,1.0,1.0
50.42,43.0,1.0,1.0,1.0
50.43,50.9889,1.0,1.0,1.0
50.44,61.0,1.0,1.0,1.0
50.45,72.5056,1.0,1.0,1.0
50.46,52.4833,1.0,1.0,1.0
50.47,57.0111,1.0,1.0,1.0
50.48,61.5056,1.0,1.0,1.0
50.49,63.0,1.0,1.0,1.0
50.5,56.5056,1.0,1.0,1.0
50.51,63.0,1.0,1.0,1.0
50.52,60.4944,1.0,1.0,1.0
50.53,47.0,1.0,1.0,1.0
50.54,53.0,1.0,1.0,1.0
50.55,77.4944,1.0,1.0,1.0
50.56,48.0,1.0,1.0,1.0
50.57,53.5056,1.0,1.0,1.0
50.58,76.4944,1.0,1.0,1.0
50.59,61.5056,1.0,1.0,1.0
50.6,61.5056,1.0,1.0,1.0
50.61,61.4944,1.0,1.0,1.0
50.62,57.0,1.0,1.0,1.0
50.63,52.5056,1.0,1.0,1.0
50.64,60.9889,1.0,1.0,1.0
50.65,56.5056,1.0,1.0,1.0
50.66,53.0,1.0,1.0,1.0
50.67,59.0,1.0,1.0,1.0
50.68,45.5056,1.0,1.0,1.0
50.69,37.0,1.0,1.0,1.0
50.7,49.0,1.0,1.0,1.0
50.71,70.9889,1.0,1.0,1.0
50.72,43.5056,1.0,1.0,1.0
50.73,50.5056,1.0,1.0,1.0
50.74,60.4944,1.0,1.0,1.0
50.75,58.4833,1.0,1.0,1.0
50.76,70.0111,1.0,1.0,1.0
50.77,41.0,1.0,1.0,1.0
50.78,48.0111,1.0,1.0,1.0
50.79,45.4944,1.0,1.0,1.0
50.8,57.0,1.0,1.0,1.0
50.81,47.4944,1.0,1.0,1.0
50.82,63.5056,1.0,1.0,1.0
50.83,63.9889,1.0,1.0,1.0
50.84,52.5167,1.0,1.0,1.0
50.85,46.4833,1.0,1.0,1.0
50.86,47.5056,1.0,1.0,1.0
50.87,46.5056,1.0,1.0,1.0
50.88,40.4944,1.0,1.0,1.0
50.89,61.0111,1.0,1.0,1.0
50.9,57.4944,1.0,1.0,1.0
50.91,57.0,1.0,1.0,1.0
50.92,61.4944,1.0,1.0,1.0
50.93,66.5056,1.0,1.0,1.0
50.94,46.5056,1.0,1.0,1.0
50.95,54.4944,1.0,1.0,1.0
50.96,54.5056,1.0,1.0,1.0
50.97,67.4944,1.0,1.0,1.0
50.98,44.4944,1.0,1.0,1.0
50.99,69.5056,1.0,1.0,1.0
51.0,58.5056,1.0,1.0,1.0
51.01,35.9889,1.0,1.0,1.0
51.02,54.0111,1.0,1.0,1.0
51.03,50.4944,1.0,1.0,1.0
51.04,37.5056,1.0,1.0,1.0
51.05,48.9889,1.0,1.0,1.0
51.06,61.4944,1.0,1.0,1.0
51.07,74.5167,1.0,1.0,1.0
51.08,45.9889,1.0,1.0,1.0
51.09,63.5056,1.0,1.0,1.0
51.1,57.5056,1.0,1.0,1.0
51.11,62.4944,1.0,1.0,1.0
51.12,53.0,1.0,1.0,1.0
51.13,66.0,1.0,1.0,1.0
51.14,61.0,1.0,1.0,1.0
51.15,48.5056,1.0,1.0,1.0
51.16,44.4944,1.0,1.0,1.0
51.17,49.4944,1.0,1.0,1.0
51.18,56.0,1.0,1.0,1.0
51.19,36.5056,1.0,1.0,1.0
51.2,49.0,1.0,1.0,1.0
51.21,60.4944,1.0,1.0,1.0
51.22,68.0111,1.0,1.0,1.0
51.23,44.0,1.0,1.0,1.0
51.24,60.4944,1.0,1.0,1.0
51.25,55.4944,1.0,1.0,1.0
51.26,56.0111,1.0,1.0,1.0
51.27,61.0,1.0,1.0,1.0
51.28,51.0,1.0,1.0,1.0
51.29,48.9889,1.0,1.0,1.0
51.3,47.5056,1.0,1.0,1.0
51.31,57.0,1.0,1.0,1.0
51.32,67.5056,1.0,1.0,1.0
51.33,42.0,1.0,1.0,1.0
51.34,68.4944,1.0,1.0,1.0
51.35,58.0,1.0,1.0,1.0
51.36,56.5056,1.0,1.0,1.0
51.37,55.9889,1.0,1.0,1.0
51.38,40.0,1.0,1.0,1.0
51.39,63.5056,1.0,1.0,1.0
51.4,47.5056,1.0,1.0,1.0
51.41,47.0,1.0,1.0,1.0
51.42,57.4944,1.0,1.0,1.0
51.43,63.0,1.0,1.0,1.0
51.44,59.4944,1.0,1.0,1.0
51.45,62.0,1.0,1.0,1.0
51.46,56.0111,1.0,1.0,1.0
51.47,68.4944,1.0,1.0,1.0
51.48,58.4944,1.0,1.0,1.0
51.49,58.5056,1.0,1.0,1.0
51.5,47.5056,1.0,1.0,1.0
51.51,59.0,1.0,1.0,1.0
51.52,59.9889,1.0,1.0,1.0
51.53,51.0111,1.0,1.0,1.0
51.54,37.0,1.0,1.0,1.0
51.55,40.0,1.0,1.0,1.0
51.56,71.4944,1.0,1.0,1.0
51.57,64.5056,1.0,1.0,1.0
51.58,69.4944,1.0,1.0,1.0
51.59,40.5056,1.0,1.0,1.0
51.6,48.9889,1.0,1.0,1.0
51.61,63.4944,1.0,1.0,1.0
51.62,49.5167,1.0,1.0,1.0
51.63,59.4944,1.0,1.0,1.0
51.64,46.4944,1.0,1.0,1.0
51.65,59.5056,1.0,1.0,1.0
51.66,53.5056,1.0,1.0,1.0
51.67,55.0,1.0,1.0,1.0
51.68,53.4944,1.0,1.0,1.0
51.69,46.5056,1.0,1.0,1.0
51.7,51.9889,1.0,1.0,1.0
51.71,61.0111,1.0,1.0,1.0
51.72,54.0,1.0,1.0,1.0
51.73,49.4944,1.0,1.0,1.0
51.74,36.0,1.0,1.0,1.0
51.75,49.5056,1.0,1.0,1.0
51.76,39.4833,1.0,1.0,1.0
51.77,66.5056,1.0,1.0,1.0
51.78,67.0111,1.0,1.0,1.0
51.79,63.4944,1.0,1.0,1.0
51.8,51.5056,1.0,1.0,1.0
51.81,64.0,1.0,1.0,1.0
51.82,70.4944,1.0,1.0,1.0
51.83,44.0,1.0,1.0,1.0
51.84,56.5056,1.0,1.0,1.0
51.85,65.4944,1.0,1.0,1.0
51.86,65.4944,1.0,1.0,1.0
51.87,43.0111,1.0,1.0,1.0
51.88,52.0,1.0,1.0,1.0
51.89,43.4944,1.0,1.0,1.0
51.9,59.4944,1.0,1.0,1.0
51.91,56.0111,1.0,1.0,1.0
51.92,61.4833,1.0,1.0,1.0
51.93,55.5056,1.0,1.0,1.0
51.94,46.5056,1.0,1.0,1.0
51.95,49.5056,1.0,1.0,1.0
51.96,40.9889,1.0,1.0,1.0
51.97,52.0111,1.0,1.0,1.0
51.98,48.4944,1.0,1.0,1.0
51.99,72.5056,1.0,1.0,1.0
52.0,53.4944,1.0,1.0,1.0