File: XRD:XRR/LCO/22172_LCOL/22172_LCOL_002_XRD.csv
#twotheta, yobs, ycal, bkg, diff
42.0,23.0,1.0,1.0,1.0
42.01,23.0,1.0,1.0,1.0
42.02,14.4944,1.0,1.0,1.0
42.03,30.0,1.0,1.0,1.0
42.04,14.5056,1.0,1.0,1.0
42.05,8.0,1.0,1.0,1.0
42.06,12.0,1.0,1.0,1.0
42.07,13.4944,1.0,1.0,1.0
42.08,36.5056,1.0,1.0,1.0
42.09,15.4944,1.0,1.0,1.0
42.1,19.5056,1.0,1.0,1.0
42.11,19.0,1.0,1.0,1.0
42.12,21.0,1.0,1.0,1.0
42.13,11.0,1.0,1.0,1.0
42.14,5.0,1.0,1.0,1.0
42.15,20.0,1.0,1.0,1.0
42.16,17.4944,1.0,1.0,1.0
42.17,14.5056,1.0,1.0,1.0
42.18,14.0,1.0,1.0,1.0
42.19,17.0,1.0,1.0,1.0
42.2,9.0,1.0,1.0,1.0
42.21,26.0,1.0,1.0,1.0
42.22,20.0,1.0,1.0,1.0
42.23,7.4944,1.0,1.0,1.0
42.24,18.5056,1.0,1.0,1.0
42.25,17.0,1.0,1.0,1.0
42.26,20.0,1.0,1.0,1.0
42.27,13.0,1.0,1.0,1.0
42.28,25.0,1.0,1.0,1.0
42.29,26.0,1.0,1.0,1.0
42.3,18.4944,1.0,1.0,1.0
42.31,6.5056,1.0,1.0,1.0
42.32,15.0,1.0,1.0,1.0
42.33,27.0,1.0,1.0,1.0
42.34,31.0,1.0,1.0,1.0
42.35,27.0,1.0,1.0,1.0
42.36,29.0,1.0,1.0,1.0
42.37,31.4944,1.0,1.0,1.0
42.38,22.4944,1.0,1.0,1.0
42.39,26.0111,1.0,1.0,1.0
42.4,26.0,1.0,1.0,1.0
42.41,25.9889,1.0,1.0,1.0
42.42,30.4944,1.0,1.0,1.0
42.43,28.0111,1.0,1.0,1.0
42.44,33.0,1.0,1.0,1.0
42.45,45.5056,1.0,1.0,1.0
42.46,20.0,1.0,1.0,1.0
42.47,35.4944,1.0,1.0,1.0
42.48,21.5056,1.0,1.0,1.0
42.49,15.4944,1.0,1.0,1.0
42.5,20.4944,1.0,1.0,1.0
42.51,26.0111,1.0,1.0,1.0
42.52,13.0,1.0,1.0,1.0
42.53,33.0,1.0,1.0,1.0
42.54,12.4944,1.0,1.0,1.0
42.55,21.0,1.0,1.0,1.0
42.56,13.0,1.0,1.0,1.0
42.57,16.5056,1.0,1.0,1.0
42.58,19.4944,1.0,1.0,1.0
42.59,12.5056,1.0,1.0,1.0
42.6,31.4944,1.0,1.0,1.0
42.61,16.0,1.0,1.0,1.0
42.62,17.5056,1.0,1.0,1.0
42.63,14.0,1.0,1.0,1.0
42.64,16.0,1.0,1.0,1.0
42.65,20.0,1.0,1.0,1.0
42.66,21.0,1.0,1.0,1.0
42.67,15.0,1.0,1.0,1.0
42.68,12.0,1.0,1.0,1.0
42.69,14.0,1.0,1.0,1.0
42.7,21.0,1.0,1.0,1.0
42.71,22.4944,1.0,1.0,1.0
42.72,17.5056,1.0,1.0,1.0
42.73,17.0,1.0,1.0,1.0
42.74,18.9889,1.0,1.0,1.0
42.75,34.0111,1.0,1.0,1.0
42.76,30.0,1.0,1.0,1.0
42.77,38.0,1.0,1.0,1.0
42.78,29.4833,1.0,1.0,1.0
42.79,40.5167,1.0,1.0,1.0
42.8,23.4944,1.0,1.0,1.0
42.81,22.5056,1.0,1.0,1.0
42.82,17.0,1.0,1.0,1.0
42.83,43.0,1.0,1.0,1.0
42.84,44.0,1.0,1.0,1.0
42.85,33.9889,1.0,1.0,1.0
42.86,39.0111,1.0,1.0,1.0
42.87,36.4944,1.0,1.0,1.0
42.88,28.5056,1.0,1.0,1.0
42.89,40.9889,1.0,1.0,1.0
42.9,29.0111,1.0,1.0,1.0
42.91,51.9889,1.0,1.0,1.0
42.92,41.0111,1.0,1.0,1.0
42.93,33.0,1.0,1.0,1.0
42.94,46.0,1.0,1.0,1.0
42.95,33.0,1.0,1.0,1.0
42.96,31.9889,1.0,1.0,1.0
42.97,19.0111,1.0,1.0,1.0
42.98,24.0,1.0,1.0,1.0
42.99,27.9889,1.0,1.0,1.0
43.0,31.5056,1.0,1.0,1.0
43.01,19.5056,1.0,1.0,1.0
43.02,24.9889,1.0,1.0,1.0
43.03,22.0111,1.0,1.0,1.0
43.04,22.0,1.0,1.0,1.0
43.05,14.0,1.0,1.0,1.0
43.06,15.0,1.0,1.0,1.0
43.07,22.0,1.0,1.0,1.0
43.08,13.0,1.0,1.0,1.0
43.09,12.0,1.0,1.0,1.0
43.1,27.4944,1.0,1.0,1.0
43.11,16.5056,1.0,1.0,1.0
43.12,18.4944,1.0,1.0,1.0
43.13,26.5056,1.0,1.0,1.0
43.14,19.4944,1.0,1.0,1.0
43.15,18.5056,1.0,1.0,1.0
43.16,16.4944,1.0,1.0,1.0
43.17,21.5056,1.0,1.0,1.0
43.18,23.4833,1.0,1.0,1.0
43.19,42.5167,1.0,1.0,1.0
43.2,38.0,1.0,1.0,1.0
43.21,23.4944,1.0,1.0,1.0
43.22,33.5056,1.0,1.0,1.0
43.23,37.4944,1.0,1.0,1.0
43.24,50.9889,1.0,1.0,1.0
43.25,33.0,1.0,1.0,1.0
43.26,49.5167,1.0,1.0,1.0
43.27,29.0,1.0,1.0,1.0
43.28,50.9889,1.0,1.0,1.0
43.29,19.0111,1.0,1.0,1.0
43.3,58.4944,1.0,1.0,1.0
43.31,40.5056,1.0,1.0,1.0
43.32,33.0,1.0,1.0,1.0
43.33,36.0,1.0,1.0,1.0
43.34,35.0,1.0,1.0,1.0
43.35,58.0,1.0,1.0,1.0
43.36,55.0,1.0,1.0,1.0
43.37,59.4833,1.0,1.0,1.0
43.38,52.5167,1.0,1.0,1.0
43.39,31.0,1.0,1.0,1.0
43.4,34.0,1.0,1.0,1.0
43.41,39.0,1.0,1.0,1.0
43.42,37.0,1.0,1.0,1.0
43.43,33.9889,1.0,1.0,1.0
43.44,39.5056,1.0,1.0,1.0
43.45,41.5056,1.0,1.0,1.0
43.46,32.4944,1.0,1.0,1.0
43.47,40.5056,1.0,1.0,1.0
43.48,20.0,1.0,1.0,1.0
43.49,31.9889,1.0,1.0,1.0
43.5,33.0111,1.0,1.0,1.0
43.51,15.0,1.0,1.0,1.0
43.52,33.0,1.0,1.0,1.0
43.53,16.0,1.0,1.0,1.0
43.54,26.0,1.0,1.0,1.0
43.55,16.0,1.0,1.0,1.0
43.56,19.4944,1.0,1.0,1.0
43.57,9.5056,1.0,1.0,1.0
43.58,27.0,1.0,1.0,1.0
43.59,22.4944,1.0,1.0,1.0
43.6,18.5056,1.0,1.0,1.0
43.61,24.4944,1.0,1.0,1.0
43.62,30.5056,1.0,1.0,1.0
43.63,25.0,1.0,1.0,1.0
43.64,24.4944,1.0,1.0,1.0
43.65,28.4944,1.0,1.0,1.0
43.66,24.5056,1.0,1.0,1.0
43.67,25.4944,1.0,1.0,1.0
43.68,53.0,1.0,1.0,1.0
43.69,53.5056,1.0,1.0,1.0
43.7,42.5056,1.0,1.0,1.0
43.71,46.0,1.0,1.0,1.0
43.72,48.0,1.0,1.0,1.0
43.73,63.9889,1.0,1.0,1.0
43.74,58.0111,1.0,1.0,1.0
43.75,52.4944,1.0,1.0,1.0
43.76,64.5056,1.0,1.0,1.0
43.77,64.4944,1.0,1.0,1.0
43.78,82.4944,1.0,1.0,1.0
43.79,76.5056,1.0,1.0,1.0
43.8,96.0,1.0,1.0,1.0
43.81,69.9889,1.0,1.0,1.0
43.82,77.5056,1.0,1.0,1.0
43.83,83.0,1.0,1.0,1.0
43.84,66.5056,1.0,1.0,1.0
43.85,77.0,1.0,1.0,1.0
43.86,75.5056,1.0,1.0,1.0
43.87,56.4944,1.0,1.0,1.0
43.88,56.4944,1.0,1.0,1.0
43.89,45.0111,1.0,1.0,1.0
43.9,60.4944,1.0,1.0,1.0
43.91,57.0,1.0,1.0,1.0
43.92,50.5056,1.0,1.0,1.0
43.93,55.9889,1.0,1.0,1.0
43.94,32.5056,1.0,1.0,1.0
43.95,29.5056,1.0,1.0,1.0
43.96,13.9889,1.0,1.0,1.0
43.97,43.5056,1.0,1.0,1.0
43.98,34.4944,1.0,1.0,1.0
43.99,33.0111,1.0,1.0,1.0
44.0,35.0,1.0,1.0,1.0
44.01,16.0,1.0,1.0,1.0
44.02,28.9889,1.0,1.0,1.0
44.03,17.0111,1.0,1.0,1.0
44.04,15.0,1.0,1.0,1.0
44.05,41.0,1.0,1.0,1.0
44.06,30.4944,1.0,1.0,1.0
44.07,25.4944,1.0,1.0,1.0
44.08,41.0,1.0,1.0,1.0
44.09,30.0111,1.0,1.0,1.0
44.1,47.0,1.0,1.0,1.0
44.11,44.0,1.0,1.0,1.0
44.12,50.4944,1.0,1.0,1.0
44.13,48.0,1.0,1.0,1.0
44.14,60.9889,1.0,1.0,1.0
44.15,75.0111,1.0,1.0,1.0
44.16,81.4944,1.0,1.0,1.0
44.17,88.0111,1.0,1.0,1.0
44.18,86.9889,1.0,1.0,1.0
44.19,98.0,1.0,1.0,1.0
44.2,102.9889,1.0,1.0,1.0
44.21,104.0,1.0,1.0,1.0
44.22,124.0222,1.0,1.0,1.0
44.23,122.4722,1.0,1.0,1.0
44.24,118.0111,1.0,1.0,1.0
44.25,113.0,1.0,1.0,1.0
44.26,130.5056,1.0,1.0,1.0
44.27,122.4833,1.0,1.0,1.0
44.28,152.0222,1.0,1.0,1.0
44.29,120.4611,1.0,1.0,1.0
44.3,109.0333,1.0,1.0,1.0
44.31,124.0,1.0,1.0,1.0
44.32,111.5056,1.0,1.0,1.0
44.33,103.9889,1.0,1.0,1.0
44.34,87.5056,1.0,1.0,1.0
44.35,94.5056,1.0,1.0,1.0
44.36,94.0,1.0,1.0,1.0
44.37,96.4944,1.0,1.0,1.0
44.38,86.5056,1.0,1.0,1.0
44.39,70.9778,1.0,1.0,1.0
44.4,73.5167,1.0,1.0,1.0
44.41,68.5056,1.0,1.0,1.0
44.42,51.5056,1.0,1.0,1.0
44.43,59.4944,1.0,1.0,1.0
44.44,60.0,1.0,1.0,1.0
44.45,55.0,1.0,1.0,1.0
44.46,29.4944,1.0,1.0,1.0
44.47,21.0111,1.0,1.0,1.0
44.48,31.0,1.0,1.0,1.0
44.49,35.9778,1.0,1.0,1.0
44.5,36.5167,1.0,1.0,1.0
44.51,43.0,1.0,1.0,1.0
44.52,43.5056,1.0,1.0,1.0
44.53,32.4833,1.0,1.0,1.0
44.54,48.5167,1.0,1.0,1.0
44.55,55.9889,1.0,1.0,1.0
44.56,48.0111,1.0,1.0,1.0
44.57,81.4944,1.0,1.0,1.0
44.58,93.5056,1.0,1.0,1.0
44.59,112.9889,1.0,1.0,1.0
44.6,104.5056,1.0,1.0,1.0
44.61,123.5056,1.0,1.0,1.0
44.62,135.4833,1.0,1.0,1.0
44.63,155.5167,1.0,1.0,1.0
44.64,144.9778,1.0,1.0,1.0
44.65,189.4833,1.0,1.0,1.0
44.66,226.5389,1.0,1.0,1.0
44.67,219.4833,1.0,1.0,1.0
44.68,192.4722,1.0,1.0,1.0
44.69,245.0222,1.0,1.0,1.0
44.7,258.4833,1.0,1.0,1.0
44.71,245.5056,1.0,1.0,1.0
44.72,270.9889,1.0,1.0,1.0
44.73,305.5167,1.0,1.0,1.0
44.74,274.4944,1.0,1.0,1.0
44.75,262.0,1.0,1.0,1.0
44.76,280.4944,1.0,1.0,1.0
44.77,250.0111,1.0,1.0,1.0
44.78,280.4944,1.0,1.0,1.0
44.79,273.0222,1.0,1.0,1.0
44.8,278.4833,1.0,1.0,1.0
44.81,247.4833,1.0,1.0,1.0
44.82,243.9889,1.0,1.0,1.0
44.83,252.55,1.0,1.0,1.0
44.84,223.4722,1.0,1.0,1.0
44.85,212.5278,1.0,1.0,1.0
44.86,186.0,1.0,1.0,1.0
44.87,186.4833,1.0,1.0,1.0
44.88,169.5056,1.0,1.0,1.0
44.89,147.9889,1.0,1.0,1.0
44.9,132.0222,1.0,1.0,1.0
44.91,140.0,1.0,1.0,1.0
44.92,92.0,1.0,1.0,1.0
44.93,88.4944,1.0,1.0,1.0
44.94,76.0,1.0,1.0,1.0
44.95,65.9889,1.0,1.0,1.0
44.96,72.0111,1.0,1.0,1.0
44.97,77.0,1.0,1.0,1.0
44.98,64.0,1.0,1.0,1.0
44.99,101.4833,1.0,1.0,1.0
45.0,104.0111,1.0,1.0,1.0
45.01,126.4944,1.0,1.0,1.0
45.02,135.0,1.0,1.0,1.0
45.03,160.9889,1.0,1.0,1.0
45.04,191.0222,1.0,1.0,1.0
45.05,271.0,1.0,1.0,1.0
45.06,252.4944,1.0,1.0,1.0
45.07,328.4722,1.0,1.0,1.0
45.08,353.5278,1.0,1.0,1.0
45.09,361.45,1.0,1.0,1.0
45.1,431.4722,1.0,1.0,1.0
45.11,513.5389,1.0,1.0,1.0
45.12,540.4167,1.0,1.0,1.0
45.13,602.0555,1.0,1.0,1.0
45.14,627.0111,1.0,1.0,1.0
45.15,737.4278,1.0,1.0,1.0
45.16,783.5833,1.0,1.0,1.0
45.17,781.9667,1.0,1.0,1.0
45.18,895.9889,1.0,1.0,1.0
45.19,884.0222,1.0,1.0,1.0
45.2,893.0111,1.0,1.0,1.0
45.21,931.45,1.0,1.0,1.0
45.22,981.5278,1.0,1.0,1.0
45.23,957.5389,1.0,1.0,1.0
45.24,1014.42,1.0,1.0,1.0
45.25,1003.56,1.0,1.0,1.0
45.26,944.4833,1.0,1.0,1.0
45.27,970.4944,1.0,1.0,1.0
45.28,949.0111,1.0,1.0,1.0
45.29,950.9556,1.0,1.0,1.0
45.3,911.5056,1.0,1.0,1.0
45.31,848.5056,1.0,1.0,1.0
45.32,779.5389,1.0,1.0,1.0
45.33,690.4833,1.0,1.0,1.0
45.34,729.55,1.0,1.0,1.0
45.35,676.4944,1.0,1.0,1.0
45.36,578.9667,1.0,1.0,1.0
45.37,533.5278,1.0,1.0,1.0
45.38,474.5278,1.0,1.0,1.0
45.39,492.0111,1.0,1.0,1.0
45.4,370.9667,1.0,1.0,1.0
45.41,414.5056,1.0,1.0,1.0
45.42,391.0111,1.0,1.0,1.0
45.43,397.4722,1.0,1.0,1.0
45.44,401.0444,1.0,1.0,1.0
45.45,473.9556,1.0,1.0,1.0
45.46,511.0333,1.0,1.0,1.0
45.47,675.9556,1.0,1.0,1.0
45.48,680.9889,1.0,1.0,1.0
45.49,893.5056,1.0,1.0,1.0
45.5,1029.93,1.0,1.0,1.0
45.51,1263.0,1.0,1.0,1.0
45.52,1476.99,1.0,1.0,1.0
45.53,1809.96,1.0,1.0,1.0
45.54,2153.98,1.0,1.0,1.0
45.55,2549.98,1.0,1.0,1.0
45.56,2888.84,1.0,1.0,1.0
45.57,3418.99,1.0,1.0,1.0
45.58,3870.93,1.0,1.0,1.0
45.59,4329.93,1.0,1.0,1.0
45.6,5011.439,1.0,1.0,1.0
45.61,5663.47,1.0,1.0,1.0
45.62,6245.9,1.0,1.0,1.0
45.63,7050.9,1.0,1.0,1.0
45.64,7714.439,1.0,1.0,1.0
45.65,8584.41,1.0,1.0,1.0
45.66,9355.35,1.0,1.0,1.0
45.67,10301.5,1.0,1.0,1.0
45.68,11043.4,1.0,1.0,1.0
45.69,11965.4,1.0,1.0,1.0
45.7,13172.6,1.0,1.0,1.0
45.71,13904.2,1.0,1.0,1.0
45.72,14914.9,1.0,1.0,1.0
45.73,15788,1.0,1.0,1.0
45.74,16575.7,1.0,1.0,1.0
45.75,17456.9,1.0,1.0,1.0
45.76,18711.416,1.0,1.0,1.0
45.77,19237.8,1.0,1.0,1.0
45.78,20479.1,1.0,1.0,1.0
45.79,21460.7,1.0,1.0,1.0
45.8,21911.1,1.0,1.0,1.0
45.81,22938.7,1.0,1.0,1.0
45.82,24143.6,1.0,1.0,1.0
45.83,24576.7,1.0,1.0,1.0
45.84,25303,1.0,1.0,1.0
45.85,26011.2,1.0,1.0,1.0
45.86,26187.4,1.0,1.0,1.0
45.87,26857.6,1.0,1.0,1.0
45.88,27417,1.0,1.0,1.0
45.89,27581.9,1.0,1.0,1.0
45.9,28034.6,1.0,1.0,1.0
45.91,28196.416,1.0,1.0,1.0
45.92,28433.4,1.0,1.0,1.0
45.93,28764.5,1.0,1.0,1.0
45.94,28672.2,1.0,1.0,1.0
45.95,28348.8,1.0,1.0,1.0
45.96,28141.6,1.0,1.0,1.0
45.97,28057.2,1.0,1.0,1.0
45.98,27707.2,1.0,1.0,1.0
45.99,27257.7,1.0,1.0,1.0
46.0,26848.877,1.0,1.0,1.0
46.01,26335.4,1.0,1.0,1.0
46.02,25703.5,1.0,1.0,1.0
46.03,25034.4,1.0,1.0,1.0
46.04,24262.9,1.0,1.0,1.0
46.05,23697.416,1.0,1.0,1.0
46.06,22924.6,1.0,1.0,1.0
46.07,21819.2,1.0,1.0,1.0
46.08,20982.9,1.0,1.0,1.0
46.09,20072.7,1.0,1.0,1.0
46.1,19311.2,1.0,1.0,1.0
46.11,18252.1,1.0,1.0,1.0
46.12,17141.123,1.0,1.0,1.0
46.13,16033.5,1.0,1.0,1.0
46.14,15402.5,1.0,1.0,1.0
46.15,14378.8,1.0,1.0,1.0
46.16,13338.6,1.0,1.0,1.0
46.17,12317,1.0,1.0,1.0
46.18,11422.1,1.0,1.0,1.0
46.19,10521.1,1.0,1.0,1.0
46.2,9727.13,1.0,1.0,1.0
46.21,8783.1,1.0,1.0,1.0
46.22,7957.04,1.0,1.0,1.0
46.23,7261.1,1.0,1.0,1.0
46.24,6493.47,1.0,1.0,1.0
46.25,5761.18,1.0,1.0,1.0
46.26,5060.64,1.0,1.0,1.0
46.27,4458.42,1.0,1.0,1.0
46.28,3892.17,1.0,1.0,1.0
46.29,3430.49,1.0,1.0,1.0
46.3,3011.69,1.0,1.0,1.0
46.31,2602.47,1.0,1.0,1.0
46.32,2143.99,1.0,1.0,1.0
46.33,1918.08,1.0,1.0,1.0
46.34,1657.06,1.0,1.0,1.0
46.35,1337.0,1.0,1.0,1.0
46.36,1191.99,1.0,1.0,1.0
46.37,1108.04,1.0,1.0,1.0
46.38,987.4833,1.0,1.0,1.0
46.39,894.5056,1.0,1.0,1.0
46.4,835.0667,1.0,1.0,1.0
46.41,820.4389,1.0,1.0,1.0
46.42,801.9778,1.0,1.0,1.0
46.43,885.4944,1.0,1.0,1.0
46.44,941.5056,1.0,1.0,1.0
46.45,1032.47,1.0,1.0,1.0
46.46,1095.51,1.0,1.0,1.0
46.47,1239.46,1.0,1.0,1.0
46.48,1372.04,1.0,1.0,1.0
46.49,1472.38,1.0,1.0,1.0
46.5,1586.58,1.0,1.0,1.0
46.51,1592.94,1.0,1.0,1.0
46.52,1744.52,1.0,1.0,1.0
46.53,1828.96,1.0,1.0,1.0
46.54,1919.53,1.0,1.0,1.0
46.55,1994.49,1.0,1.0,1.0
46.56,2053.49,1.0,1.0,1.0
46.57,2127.03,1.0,1.0,1.0
46.58,2182.9,1.0,1.0,1.0
46.59,2204.01,1.0,1.0,1.0
46.6,2200.02,1.0,1.0,1.0
46.61,2211.49,1.0,1.0,1.0
46.62,2242.55,1.0,1.0,1.0
46.63,2164.439,1.0,1.0,1.0
46.64,2095.52,1.0,1.0,1.0
46.65,2067.02,1.0,1.0,1.0
46.66,2027.51,1.0,1.0,1.0
46.67,1945.01,1.0,1.0,1.0
46.68,1972.58,1.0,1.0,1.0
46.69,1833.94,1.0,1.0,1.0
46.7,1697.01,1.0,1.0,1.0
46.71,1639.01,1.0,1.0,1.0
46.72,1511.0,1.0,1.0,1.0
46.73,1383.01,1.0,1.0,1.0
46.74,1392.0,1.0,1.0,1.0
46.75,1263.07,1.0,1.0,1.0
46.76,1214.98,1.0,1.0,1.0
46.77,1079.0,1.0,1.0,1.0
46.78,955.5167,1.0,1.0,1.0
46.79,898.5278,1.0,1.0,1.0
46.8,825.4722,1.0,1.0,1.0
46.81,731.0333,1.0,1.0,1.0
46.82,731.0111,1.0,1.0,1.0
46.83,647.4722,1.0,1.0,1.0
46.84,612.5278,1.0,1.0,1.0
46.85,563.4833,1.0,1.0,1.0
46.86,559.9889,1.0,1.0,1.0
46.87,580.5278,1.0,1.0,1.0
46.88,572.9889,1.0,1.0,1.0
46.89,536.5056,1.0,1.0,1.0
46.9,625.4944,1.0,1.0,1.0
46.91,568.9889,1.0,1.0,1.0
46.92,667.5056,1.0,1.0,1.0
46.93,666.0,1.0,1.0,1.0
46.94,751.9667,1.0,1.0,1.0
46.95,787.55,1.0,1.0,1.0
46.96,797.4722,1.0,1.0,1.0
46.97,922.9778,1.0,1.0,1.0
46.98,940.0111,1.0,1.0,1.0
46.99,988.9556,1.0,1.0,1.0
47.0,1013.54,1.0,1.0,1.0
47.01,1123.98,1.0,1.0,1.0
47.02,1125.02,1.0,1.0,1.0
47.03,1156.47,1.0,1.0,1.0
47.04,1263.51,1.0,1.0,1.0
47.05,1243.94,1.0,1.0,1.0
47.06,1315.56,1.0,1.0,1.0
47.07,1406.46,1.0,1.0,1.0
47.08,1373.02,1.0,1.0,1.0
47.09,1372.96,1.0,1.0,1.0
47.1,1372.54,1.0,1.0,1.0
47.11,1489.45,1.0,1.0,1.0
47.12,1409.03,1.0,1.0,1.0
47.13,1337.96,1.0,1.0,1.0
47.14,1347.02,1.0,1.0,1.0
47.15,1272.58,1.0,1.0,1.0
47.16,1316.96,1.0,1.0,1.0
47.17,1299.51,1.0,1.0,1.0
47.18,1281.55,1.0,1.0,1.0
47.19,1221.96,1.0,1.0,1.0
47.2,1194.47,1.0,1.0,1.0
47.21,1217.53,1.0,1.0,1.0
47.22,1147.03,1.0,1.0,1.0
47.23,1091.02,1.0,1.0,1.0
47.24,1057.0,1.0,1.0,1.0
47.25,1035.46,1.0,1.0,1.0
47.26,982.0,1.0,1.0,1.0
47.27,896.0222,1.0,1.0,1.0
47.28,844.5056,1.0,1.0,1.0
47.29,972.5056,1.0,1.0,1.0
47.3,899.0,1.0,1.0,1.0
47.31,907.9445,1.0,1.0,1.0
47.32,923.0778,1.0,1.0,1.0
47.33,885.4167,1.0,1.0,1.0
47.34,901.5722,1.0,1.0,1.0
47.35,967.9333,1.0,1.0,1.0
47.36,985.0667,1.0,1.0,1.0
47.37,1046.45,1.0,1.0,1.0
47.38,1008.97,1.0,1.0,1.0
47.39,1073.11,1.0,1.0,1.0
47.4,1088.47,1.0,1.0,1.0
47.41,1126.41,1.0,1.0,1.0
47.42,1255.97,1.0,1.0,1.0
47.43,1341.01,1.0,1.0,1.0
47.44,1442.04,1.0,1.0,1.0
47.45,1517.48,1.0,1.0,1.0
47.46,1534.0,1.0,1.0,1.0
47.47,1663.43,1.0,1.0,1.0
47.48,1687.08,1.0,1.0,1.0
47.49,1752.41,1.0,1.0,1.0
47.5,1830.56,1.0,1.0,1.0
47.51,2006.97,1.0,1.0,1.0
47.52,2104.47,1.0,1.0,1.0
47.53,2090.45,1.0,1.0,1.0
47.54,2263.54,1.0,1.0,1.0
47.55,2333.46,1.0,1.0,1.0
47.56,2402.48,1.0,1.0,1.0
47.57,2419.53,1.0,1.0,1.0
47.58,2609.02,1.0,1.0,1.0
47.59,2869.98,1.0,1.0,1.0
47.6,2914.49,1.0,1.0,1.0
47.61,2884.439,1.0,1.0,1.0
47.62,2977.99,1.0,1.0,1.0
47.63,3098.55,1.0,1.0,1.0
47.64,3279.98,1.0,1.0,1.0
47.65,3387.96,1.0,1.0,1.0
47.66,3480.55,1.0,1.0,1.0
47.67,3720.46,1.0,1.0,1.0
47.68,3735.49,1.0,1.0,1.0
47.69,3935.96,1.0,1.0,1.0
47.7,4042.41,1.0,1.0,1.0
47.71,4403.49,1.0,1.0,1.0
47.72,4568.99,1.0,1.0,1.0
47.73,4857.93,1.0,1.0,1.0
47.74,5119.46,1.0,1.0,1.0
47.75,5676.54,1.0,1.0,1.0
47.76,6229.86,1.0,1.0,1.0
47.77,6691.87,1.0,1.0,1.0
47.78,7369.52,1.0,1.0,1.0
47.79,8325.88,1.0,1.0,1.0
47.8,9501.38,1.0,1.0,1.0
47.81,10827.9,1.0,1.0,1.0
47.82,12675.7,1.0,1.0,1.0
47.83,14983.6,1.0,1.0,1.0
47.84,18742.5,1.0,1.0,1.0
47.85,24654.334,1.0,1.0,1.0
47.86,34019.3,1.0,1.0,1.0
47.87,56780.1,1.0,1.0,1.0
47.88,172512,1.0,1.0,1.0
47.89,734399,1.0,1.0,1.0
47.9,1471851.75,1.0,1.0,1.0
47.91,2449409.25,1.0,1.0,1.0
47.92,1802591.375,1.0,1.0,1.0
47.93,1551345.625,1.0,1.0,1.0
47.94,1554067.375,1.0,1.0,1.0
47.95,1744818.0,1.0,1.0,1.0
47.96,3323261.5,1.0,1.0,1.0
47.97,4111437.75,1.0,1.0,1.0
47.98,5693869.0,1.0,1.0,1.0
47.99,24652184.0,1.0,1.0,1.0
48.0,14375355.0,1.0,1.0,1.0
48.01,4750030.5,1.0,1.0,1.0
48.02,2001651.5,1.0,1.0,1.0
48.03,962437.75,1.0,1.0,1.0
48.04,504432.5,1.0,1.0,1.0
48.05,267233,1.0,1.0,1.0
48.06,154074.875,1.0,1.0,1.0
48.07,94983,1.0,1.0,1.0
48.08,62292.1,1.0,1.0,1.0
48.09,44505.3,1.0,1.0,1.0
48.1,33127,1.0,1.0,1.0
48.11,24925.6,1.0,1.0,1.0
48.12,18968.7,1.0,1.0,1.0
48.13,15454.2,1.0,1.0,1.0
48.14,12271.8,1.0,1.0,1.0
48.15,10200.1,1.0,1.0,1.0
48.16,8630.583,1.0,1.0,1.0
48.17,7299.21,1.0,1.0,1.0
48.18,6457.1,1.0,1.0,1.0
48.19,5541.57,1.0,1.0,1.0
48.2,5122.0,1.0,1.0,1.0
48.21,4496.65,1.0,1.0,1.0
48.22,4033.03,1.0,1.0,1.0
48.23,3731.98,1.0,1.0,1.0
48.24,3344.18,1.0,1.0,1.0
48.25,3042.9,1.0,1.0,1.0
48.26,2862.06,1.0,1.0,1.0
48.27,2672.61,1.0,1.0,1.0
48.28,2463.01,1.0,1.0,1.0
48.29,2273.41,1.0,1.0,1.0
48.3,2166.07,1.0,1.0,1.0
48.31,1951.48,1.0,1.0,1.0
48.32,1885.56,1.0,1.0,1.0
48.33,1670.45,1.0,1.0,1.0
48.34,1546.02,1.0,1.0,1.0
48.35,1459.56,1.0,1.0,1.0
48.36,1380.98,1.0,1.0,1.0
48.37,1242.54,1.0,1.0,1.0
48.38,1222.97,1.0,1.0,1.0
48.39,1068.07,1.0,1.0,1.0
48.4,1012.93,1.0,1.0,1.0
48.41,934.0555,1.0,1.0,1.0
48.42,854.5056,1.0,1.0,1.0
48.43,830.9778,1.0,1.0,1.0
48.44,697.0333,1.0,1.0,1.0
48.45,671.5167,1.0,1.0,1.0
48.46,624.0222,1.0,1.0,1.0
48.47,609.4833,1.0,1.0,1.0
48.48,540.4833,1.0,1.0,1.0
48.49,489.0222,1.0,1.0,1.0
48.5,462.9556,1.0,1.0,1.0
48.51,472.55,1.0,1.0,1.0
48.52,393.9889,1.0,1.0,1.0
48.53,427.0111,1.0,1.0,1.0
48.54,433.0111,1.0,1.0,1.0
48.55,369.4944,1.0,1.0,1.0
48.56,328.0111,1.0,1.0,1.0
48.57,347.9778,1.0,1.0,1.0
48.58,346.9889,1.0,1.0,1.0
48.59,386.0111,1.0,1.0,1.0
48.6,326.5389,1.0,1.0,1.0
48.61,286.9667,1.0,1.0,1.0
48.62,297.5278,1.0,1.0,1.0
48.63,324.4611,1.0,1.0,1.0
48.64,319.0222,1.0,1.0,1.0
48.65,287.5167,1.0,1.0,1.0
48.66,290.4833,1.0,1.0,1.0
48.67,318.4722,1.0,1.0,1.0
48.68,281.0,1.0,1.0,1.0
48.69,273.5389,1.0,1.0,1.0
48.7,297.4722,1.0,1.0,1.0
48.71,270.5167,1.0,1.0,1.0
48.72,276.0333,1.0,1.0,1.0
48.73,246.9556,1.0,1.0,1.0
48.74,265.5167,1.0,1.0,1.0
48.75,232.0111,1.0,1.0,1.0
48.76,264.9778,1.0,1.0,1.0
48.77,224.9889,1.0,1.0,1.0
48.78,250.0333,1.0,1.0,1.0
48.79,227.9889,1.0,1.0,1.0
48.8,218.0222,1.0,1.0,1.0
48.81,225.9889,1.0,1.0,1.0
48.82,210.4944,1.0,1.0,1.0
48.83,226.4722,1.0,1.0,1.0
48.84,211.0333,1.0,1.0,1.0
48.85,165.9778,1.0,1.0,1.0
48.86,168.0222,1.0,1.0,1.0
48.87,170.0111,1.0,1.0,1.0
48.88,161.4833,1.0,1.0,1.0
48.89,178.0111,1.0,1.0,1.0
48.9,143.0111,1.0,1.0,1.0
48.91,127.4944,1.0,1.0,1.0
48.92,127.4833,1.0,1.0,1.0
48.93,103.0222,1.0,1.0,1.0
48.94,89.9889,1.0,1.0,1.0
48.95,102.0111,1.0,1.0,1.0
48.96,103.4833,1.0,1.0,1.0
48.97,97.5056,1.0,1.0,1.0
48.98,82.0111,1.0,1.0,1.0
48.99,79.9889,1.0,1.0,1.0
49.0,85.0,1.0,1.0,1.0
49.01,85.0,1.0,1.0,1.0
49.02,111.4944,1.0,1.0,1.0
49.03,86.0111,1.0,1.0,1.0
49.04,71.5056,1.0,1.0,1.0
49.05,70.0,1.0,1.0,1.0
49.06,61.4944,1.0,1.0,1.0
49.07,79.4833,1.0,1.0,1.0
49.08,104.5056,1.0,1.0,1.0
49.09,64.5167,1.0,1.0,1.0
49.1,61.4944,1.0,1.0,1.0
49.11,80.4944,1.0,1.0,1.0
49.12,55.0111,1.0,1.0,1.0
49.13,66.9889,1.0,1.0,1.0
49.14,95.9889,1.0,1.0,1.0
49.15,92.0222,1.0,1.0,1.0
49.16,91.0,1.0,1.0,1.0
49.17,77.9889,1.0,1.0,1.0
49.18,88.5056,1.0,1.0,1.0
49.19,87.5056,1.0,1.0,1.0
49.2,85.9889,1.0,1.0,1.0
49.21,81.4944,1.0,1.0,1.0
49.22,90.5056,1.0,1.0,1.0
49.23,102.5056,1.0,1.0,1.0
49.24,80.0,1.0,1.0,1.0
49.25,87.0,1.0,1.0,1.0
49.26,83.0,1.0,1.0,1.0
49.27,92.9889,1.0,1.0,1.0
49.28,73.4944,1.0,1.0,1.0
49.29,58.0222,1.0,1.0,1.0
49.3,71.4944,1.0,1.0,1.0
49.31,72.9889,1.0,1.0,1.0
49.32,67.0111,1.0,1.0,1.0
49.33,76.0,1.0,1.0,1.0
49.34,84.0,1.0,1.0,1.0
49.35,69.0,1.0,1.0,1.0
49.36,51.5056,1.0,1.0,1.0
49.37,54.4944,1.0,1.0,1.0
49.38,53.5056,1.0,1.0,1.0
49.39,50.0,1.0,1.0,1.0
49.4,40.0,1.0,1.0,1.0
49.41,44.0,1.0,1.0,1.0
49.42,32.4833,1.0,1.0,1.0
49.43,43.5167,1.0,1.0,1.0
49.44,49.0,1.0,1.0,1.0
49.45,49.0,1.0,1.0,1.0
49.46,30.9889,1.0,1.0,1.0
49.47,41.0111,1.0,1.0,1.0
49.48,23.0,1.0,1.0,1.0
49.49,26.4722,1.0,1.0,1.0
49.5,56.5278,1.0,1.0,1.0
49.51,21.0,1.0,1.0,1.0
49.52,30.4944,1.0,1.0,1.0
49.53,34.0,1.0,1.0,1.0
49.54,22.5056,1.0,1.0,1.0
49.55,33.0,1.0,1.0,1.0
49.56,34.9889,1.0,1.0,1.0
49.57,14.0111,1.0,1.0,1.0
49.58,19.0,1.0,1.0,1.0
49.59,35.0,1.0,1.0,1.0
49.6,44.9889,1.0,1.0,1.0
49.61,38.5056,1.0,1.0,1.0
49.62,44.0,1.0,1.0,1.0
49.63,32.5056,1.0,1.0,1.0
49.64,21.4944,1.0,1.0,1.0
49.65,38.0,1.0,1.0,1.0
49.66,39.0,1.0,1.0,1.0
49.67,42.5056,1.0,1.0,1.0
49.68,18.0,1.0,1.0,1.0
49.69,36.0,1.0,1.0,1.0
49.7,39.0,1.0,1.0,1.0
49.71,42.4944,1.0,1.0,1.0
49.72,41.0,1.0,1.0,1.0
49.73,54.0,1.0,1.0,1.0
49.74,31.5056,1.0,1.0,1.0
49.75,33.0,1.0,1.0,1.0
49.76,31.0,1.0,1.0,1.0
49.77,33.9889,1.0,1.0,1.0
49.78,32.0111,1.0,1.0,1.0
49.79,74.0,1.0,1.0,1.0
49.8,34.9778,1.0,1.0,1.0
49.81,27.0222,1.0,1.0,1.0
49.82,44.4833,1.0,1.0,1.0
49.83,27.0111,1.0,1.0,1.0
49.84,34.5056,1.0,1.0,1.0
49.85,19.0,1.0,1.0,1.0
49.86,28.0,1.0,1.0,1.0
49.87,25.4944,1.0,1.0,1.0
49.88,25.5056,1.0,1.0,1.0
49.89,25.9889,1.0,1.0,1.0
49.9,17.0111,1.0,1.0,1.0
49.91,18.0,1.0,1.0,1.0
49.92,29.0,1.0,1.0,1.0
49.93,21.0,1.0,1.0,1.0
49.94,13.0,1.0,1.0,1.0
49.95,14.0,1.0,1.0,1.0
49.96,6.0,1.0,1.0,1.0
49.97,9.0,1.0,1.0,1.0
49.98,27.0,1.0,1.0,1.0
49.99,20.0,1.0,1.0,1.0
50.0,26.0,1.0,1.0,1.0
50.01,18.4944,1.0,1.0,1.0
50.02,21.5056,1.0,1.0,1.0
50.03,20.0,1.0,1.0,1.0
50.04,13.4944,1.0,1.0,1.0
50.05,21.4944,1.0,1.0,1.0
50.06,33.5056,1.0,1.0,1.0
50.07,20.5056,1.0,1.0,1.0
50.08,9.0,1.0,1.0,1.0
50.09,15.0,1.0,1.0,1.0
50.1,21.0,1.0,1.0,1.0
50.11,19.0,1.0,1.0,1.0
50.12,26.0,1.0,1.0,1.0
50.13,24.0,1.0,1.0,1.0
50.14,36.0,1.0,1.0,1.0
50.15,18.4944,1.0,1.0,1.0
50.16,16.5056,1.0,1.0,1.0
50.17,13.0,1.0,1.0,1.0
50.18,33.4944,1.0,1.0,1.0
50.19,13.5056,1.0,1.0,1.0
50.2,17.0,1.0,1.0,1.0
50.21,19.0,1.0,1.0,1.0
50.22,27.4944,1.0,1.0,1.0
50.23,17.5056,1.0,1.0,1.0
50.24,24.0,1.0,1.0,1.0
50.25,38.0,1.0,1.0,1.0
50.26,17.4944,1.0,1.0,1.0
50.27,33.4944,1.0,1.0,1.0
50.28,15.0111,1.0,1.0,1.0
50.29,26.0,1.0,1.0,1.0
50.3,8.9889,1.0,1.0,1.0
50.31,19.0111,1.0,1.0,1.0
50.32,16.0,1.0,1.0,1.0
50.33,27.9889,1.0,1.0,1.0
50.34,29.5056,1.0,1.0,1.0
50.35,26.5056,1.0,1.0,1.0
50.36,21.0,1.0,1.0,1.0
50.37,19.4944,1.0,1.0,1.0
50.38,17.5056,1.0,1.0,1.0
50.39,14.4944,1.0,1.0,1.0
50.4,22.5056,1.0,1.0,1.0
50.41,17.0,1.0,1.0,1.0
50.42,13.0,1.0,1.0,1.0
50.43,2.0,1.0,1.0,1.0
50.44,12.0,1.0,1.0,1.0
50.45,24.4944,1.0,1.0,1.0
50.46,13.5056,1.0,1.0,1.0
50.47,18.0,1.0,1.0,1.0
50.48,9.0,1.0,1.0,1.0
50.49,3.4944,1.0,1.0,1.0
50.5,12.5056,1.0,1.0,1.0
50.51,15.0,1.0,1.0,1.0
50.52,15.0,1.0,1.0,1.0
50.53,8.0,1.0,1.0,1.0
50.54,8.9889,1.0,1.0,1.0
50.55,8.0111,1.0,1.0,1.0
50.56,7.0,1.0,1.0,1.0
50.57,21.0,1.0,1.0,1.0
50.58,3.0,1.0,1.0,1.0
50.59,20.4944,1.0,1.0,1.0
50.6,14.4944,1.0,1.0,1.0
50.61,12.0111,1.0,1.0,1.0
50.62,10.4944,1.0,1.0,1.0
50.63,20.5056,1.0,1.0,1.0
50.64,13.9889,1.0,1.0,1.0
50.65,23.0111,1.0,1.0,1.0
50.66,21.0,1.0,1.0,1.0
50.67,12.0,1.0,1.0,1.0
50.68,24.0,1.0,1.0,1.0
50.69,11.0,1.0,1.0,1.0
50.7,8.0,1.0,1.0,1.0
50.71,21.0,1.0,1.0,1.0
50.72,25.0,1.0,1.0,1.0
50.73,12.0,1.0,1.0,1.0
50.74,23.0,1.0,1.0,1.0
50.75,10.4944,1.0,1.0,1.0
50.76,21.0,1.0,1.0,1.0
50.77,17.5056,1.0,1.0,1.0
50.78,19.0,1.0,1.0,1.0
50.79,17.0,1.0,1.0,1.0
50.8,15.0,1.0,1.0,1.0
50.81,7.4944,1.0,1.0,1.0
50.82,18.5056,1.0,1.0,1.0
50.83,20.4944,1.0,1.0,1.0
50.84,11.5056,1.0,1.0,1.0
50.85,16.0,1.0,1.0,1.0
50.86,12.0,1.0,1.0,1.0
50.87,18.0,1.0,1.0,1.0
50.88,2.0,1.0,1.0,1.0
50.89,9.0,1.0,1.0,1.0
50.9,20.0,1.0,1.0,1.0
50.91,13.0,1.0,1.0,1.0
50.92,18.0,1.0,1.0,1.0
50.93,12.0,1.0,1.0,1.0
50.94,6.4944,1.0,1.0,1.0
50.95,17.5056,1.0,1.0,1.0
50.96,14.4944,1.0,1.0,1.0
50.97,9.5056,1.0,1.0,1.0
50.98,13.0,1.0,1.0,1.0
50.99,21.0,1.0,1.0,1.0
51.0,14.0,1.0,1.0,1.0
51.01,9.0,1.0,1.0,1.0
51.02,10.0,1.0,1.0,1.0
51.03,10.0,1.0,1.0,1.0
51.04,9.4944,1.0,1.0,1.0
51.05,7.5056,1.0,1.0,1.0
51.06,28.0,1.0,1.0,1.0
51.07,13.0,1.0,1.0,1.0
51.08,6.0,1.0,1.0,1.0
51.09,10.0,1.0,1.0,1.0
51.1,10.0,1.0,1.0,1.0
51.11,12.0,1.0,1.0,1.0
51.12,3.0,1.0,1.0,1.0
51.13,14.4944,1.0,1.0,1.0
51.14,10.5056,1.0,1.0,1.0
51.15,10.0,1.0,1.0,1.0
51.16,12.0,1.0,1.0,1.0
51.17,10.0,1.0,1.0,1.0
51.18,5.0,1.0,1.0,1.0
51.19,4.0,1.0,1.0,1.0
51.2,10.0,1.0,1.0,1.0
51.21,10.0,1.0,1.0,1.0
51.22,6.0,1.0,1.0,1.0
51.23,10.0,1.0,1.0,1.0
51.24,4.0,1.0,1.0,1.0
51.25,14.4944,1.0,1.0,1.0
51.26,6.5056,1.0,1.0,1.0
51.27,11.4944,1.0,1.0,1.0
51.28,8.5056,1.0,1.0,1.0
51.29,29.0,1.0,1.0,1.0
51.3,7.0,1.0,1.0,1.0
51.31,16.0,1.0,1.0,1.0
51.32,10.0,1.0,1.0,1.0
51.33,12.4944,1.0,1.0,1.0
51.34,10.5056,1.0,1.0,1.0
51.35,12.0,1.0,1.0,1.0
51.36,11.4944,1.0,1.0,1.0
51.37,9.5056,1.0,1.0,1.0
51.38,9.0,1.0,1.0,1.0
51.39,13.0,1.0,1.0,1.0
51.4,6.0,1.0,1.0,1.0
51.41,16.9889,1.0,1.0,1.0
51.42,13.0111,1.0,1.0,1.0
51.43,5.0,1.0,1.0,1.0
51.44,11.0,1.0,1.0,1.0
51.45,7.0,1.0,1.0,1.0
51.46,14.0,1.0,1.0,1.0
51.47,7.0,1.0,1.0,1.0
51.48,5.0,1.0,1.0,1.0
51.49,16.0,1.0,1.0,1.0
51.5,9.0,1.0,1.0,1.0
51.51,6.0,1.0,1.0,1.0
51.52,14.0,1.0,1.0,1.0
51.53,9.0,1.0,1.0,1.0
51.54,7.0,1.0,1.0,1.0
51.55,8.0,1.0,1.0,1.0
51.56,5.0,1.0,1.0,1.0
51.57,9.0,1.0,1.0,1.0
51.58,11.4944,1.0,1.0,1.0
51.59,19.5056,1.0,1.0,1.0
51.6,8.0,1.0,1.0,1.0
51.61,13.0,1.0,1.0,1.0
51.62,9.0,1.0,1.0,1.0
51.63,19.0,1.0,1.0,1.0
51.64,9.0,1.0,1.0,1.0
51.65,21.0,1.0,1.0,1.0
51.66,15.0,1.0,1.0,1.0
51.67,2.0,1.0,1.0,1.0
51.68,8.0,1.0,1.0,1.0
51.69,11.0,1.0,1.0,1.0
51.7,5.0,1.0,1.0,1.0
51.71,10.0,1.0,1.0,1.0
51.72,10.0,1.0,1.0,1.0
51.73,7.0,1.0,1.0,1.0
51.74,19.0,1.0,1.0,1.0
51.75,6.4944,1.0,1.0,1.0
51.76,11.0,1.0,1.0,1.0
51.77,7.5056,1.0,1.0,1.0
51.78,7.4944,1.0,1.0,1.0
51.79,16.0,1.0,1.0,1.0
51.8,16.5056,1.0,1.0,1.0
51.81,6.0,1.0,1.0,1.0
51.82,3.0,1.0,1.0,1.0
51.83,7.0,1.0,1.0,1.0
51.84,12.0,1.0,1.0,1.0
51.85,6.0,1.0,1.0,1.0
51.86,9.0,1.0,1.0,1.0
51.87,4.0,1.0,1.0,1.0
51.88,6.0,1.0,1.0,1.0
51.89,5.0,1.0,1.0,1.0
51.9,8.0,1.0,1.0,1.0
51.91,11.0,1.0,1.0,1.0
51.92,6.0,1.0,1.0,1.0
51.93,6.0,1.0,1.0,1.0
51.94,5.0,1.0,1.0,1.0
51.95,6.0,1.0,1.0,1.0
51.96,3.0,1.0,1.0,1.0
51.97,10.4944,1.0,1.0,1.0
51.98,9.5056,1.0,1.0,1.0
51.99,13.0,1.0,1.0,1.0
52.0,16.0,1.0,1.0,1.0
0.4,1608145.0,1.0,1.0,1.0
0.41,1636577.0,1.0,1.0,1.0
0.42,1663064.0,1.0,1.0,1.0
0.43,1691950.0,1.0,1.0,1.0
0.44,1714498.0,1.0,1.0,1.0
0.45,1737779.0,1.0,1.0,1.0
0.46,1758687.5,1.0,1.0,1.0
0.47,1778576.0,1.0,1.0,1.0
0.48,1798426.5,1.0,1.0,1.0
0.49,1815987.0,1.0,1.0,1.0
0.5,1829942.5,1.0,1.0,1.0
0.51,1843090.5,1.0,1.0,1.0
0.52,1849314.0,1.0,1.0,1.0
0.53,1856310.0,1.0,1.0,1.0
0.54,1859570.5,1.0,1.0,1.0
0.55,1860075.0,1.0,1.0,1.0
0.56,1851875.5,1.0,1.0,1.0
0.57,1892081.0,1.0,1.0,1.0
0.58,1893708.5,1.0,1.0,1.0
0.59,1867453.0,1.0,1.0,1.0
0.6,1829299.5,1.0,1.0,1.0
0.61,1786599.625,1.0,1.0,1.0
0.62,1735240.5,1.0,1.0,1.0
0.63,1624418.125,1.0,1.0,1.0
0.64,1560134.5,1.0,1.0,1.0
0.65,1497731.125,1.0,1.0,1.0
0.66,1430790.125,1.0,1.0,1.0
0.67,1357927.125,1.0,1.0,1.0
0.68,1282236.625,1.0,1.0,1.0
0.69,1205191.125,1.0,1.0,1.0
0.7,1126828.625,1.0,1.0,1.0
0.71,1.04797e+06,1.0,1.0,1.0
0.72,973459,1.0,1.0,1.0
0.73,897433,1.0,1.0,1.0
0.74,825420,1.0,1.0,1.0
0.75,762288,1.0,1.0,1.0
0.76,690526,1.0,1.0,1.0
0.77,626704,1.0,1.0,1.0
0.78,571826,1.0,1.0,1.0
0.79,517554,1.0,1.0,1.0
0.8,467180,1.0,1.0,1.0
0.81,422660,1.0,1.0,1.0
0.82,381942,1.0,1.0,1.0
0.83,345686,1.0,1.0,1.0
0.84,313801,1.0,1.0,1.0
0.85,285907,1.0,1.0,1.0
0.86,263710,1.0,1.0,1.0
0.87,238312,1.0,1.0,1.0
0.88,220612,1.0,1.0,1.0
0.89,204207,1.0,1.0,1.0
0.9,190112,1.0,1.0,1.0
0.91,176741.0,1.0,1.0,1.0
0.92,166064,1.0,1.0,1.0
0.93,155169,1.0,1.0,1.0
0.94,145641,1.0,1.0,1.0
0.95,136623.0,1.0,1.0,1.0
0.96,130082.0,1.0,1.0,1.0
0.97,122326,1.0,1.0,1.0
0.98,115143.0,1.0,1.0,1.0
0.99,108606,1.0,1.0,1.0
1.0,103050,1.0,1.0,1.0
1.01,97322.0,1.0,1.0,1.0
1.02,91827.5,1.0,1.0,1.0
1.03,86734,1.0,1.0,1.0
1.04,81877.0,1.0,1.0,1.0
1.05,77149.0,1.0,1.0,1.0
1.06,72864.5,1.0,1.0,1.0
1.07,68616.5,1.0,1.0,1.0
1.08,65266.0,1.0,1.0,1.0
1.09,61360,1.0,1.0,1.0
1.1,58054,1.0,1.0,1.0
1.11,55101,1.0,1.0,1.0
1.12,52605.5,1.0,1.0,1.0
1.13,49985.5,1.0,1.0,1.0
1.14,47385.5,1.0,1.0,1.0
1.15,45222.5,1.0,1.0,1.0
1.16,42998.5,1.0,1.0,1.0
1.17,41530.0,1.0,1.0,1.0
1.18,39715.5,1.0,1.0,1.0
1.19,38264,1.0,1.0,1.0
1.2,36720,1.0,1.0,1.0
1.21,35639.0,1.0,1.0,1.0
1.22,34221.5,1.0,1.0,1.0
1.23,32875.0,1.0,1.0,1.0
1.24,31635.5,1.0,1.0,1.0
1.25,30900.502,1.0,1.0,1.0
1.26,29891.002,1.0,1.0,1.0
1.27,28672.498,1.0,1.0,1.0
1.28,27928.0,1.0,1.0,1.0
1.29,26634.502,1.0,1.0,1.0
1.3,25735.002,1.0,1.0,1.0
1.31,24884.5,1.0,1.0,1.0
1.32,24065.0,1.0,1.0,1.0
1.33,23062.002,1.0,1.0,1.0
1.34,22501,1.0,1.0,1.0
1.35,21399.498,1.0,1.0,1.0
1.36,20505.502,1.0,1.0,1.0
1.37,19798.502,1.0,1.0,1.0
1.38,19077.0,1.0,1.0,1.0
1.39,18159.0,1.0,1.0,1.0
1.4,17453.5,1.0,1.0,1.0
1.41,16914.002,1.0,1.0,1.0
1.42,16171.999,1.0,1.0,1.0
1.43,15695.0,1.0,1.0,1.0
1.44,14931.002,1.0,1.0,1.0
1.45,14282.5,1.0,1.0,1.0
1.46,13688.001,1.0,1.0,1.0
1.47,13271.5,1.0,1.0,1.0
1.48,12849.5,1.0,1.0,1.0
1.49,12375.502,1.0,1.0,1.0
1.5,11781.498,1.0,1.0,1.0
1.51,11533.501,1.0,1.0,1.0
1.52,11118.0,1.0,1.0,1.0
1.53,10909.501,1.0,1.0,1.0
1.54,10416.5,1.0,1.0,1.0
1.55,9952.501,1.0,1.0,1.0
1.56,9821.501,1.0,1.0,1.0
1.57,9544.001,1.0,1.0,1.0
1.58,9360.499,1.0,1.0,1.0
1.59,9052.498,1.0,1.0,1.0
1.6,8926.5,1.0,1.0,1.0
1.61,8676.5,1.0,1.0,1.0
1.62,8328.999,1.0,1.0,1.0
1.63,8236.0,1.0,1.0,1.0
1.64,7900.0,1.0,1.0,1.0
1.65,7689,1.0,1.0,1.0
1.66,7475.5,1.0,1.0,1.0
1.67,7530,1.0,1.0,1.0
1.68,7171.001,1.0,1.0,1.0
1.69,6983.501,1.0,1.0,1.0
1.7,6721.5,1.0,1.0,1.0
1.71,6699.5,1.0,1.0,1.0
1.72,6564.5,1.0,1.0,1.0
1.73,6269.5,1.0,1.0,1.0
1.74,6084.5,1.0,1.0,1.0
1.75,5955,1.0,1.0,1.0
1.76,5835.5,1.0,1.0,1.0
1.77,5567.0,1.0,1.0,1.0
1.78,5357.501,1.0,1.0,1.0
1.79,5388.5,1.0,1.0,1.0
1.8,5053.0,1.0,1.0,1.0
1.81,5010.0,1.0,1.0,1.0
1.82,4735.5,1.0,1.0,1.0
1.83,4721.0,1.0,1.0,1.0
1.84,4529.5,1.0,1.0,1.0
1.85,4454.001,1.0,1.0,1.0
1.86,4260.0,1.0,1.0,1.0
1.87,4121,1.0,1.0,1.0
1.88,4082.5,1.0,1.0,1.0
1.89,3926,1.0,1.0,1.0
1.9,3905.501,1.0,1.0,1.0
1.91,3772.5,1.0,1.0,1.0
1.92,3731,1.0,1.0,1.0
1.93,3566.0,1.0,1.0,1.0
1.94,3589.5,1.0,1.0,1.0
1.95,3486,1.0,1.0,1.0
1.96,3351.999,1.0,1.0,1.0
1.97,3218.5,1.0,1.0,1.0
1.98,3227.5,1.0,1.0,1.0
1.99,3166,1.0,1.0,1.0
2.0,3059.5,1.0,1.0,1.0
2.01,3088.5,1.0,1.0,1.0
2.02,3030,1.0,1.0,1.0
2.03,2930.5,1.0,1.0,1.0
2.04,2942.5,1.0,1.0,1.0
2.05,2848.5,1.0,1.0,1.0
2.06,2893.5,1.0,1.0,1.0
2.07,2759,1.0,1.0,1.0
2.08,2787.0,1.0,1.0,1.0
2.09,2666.0,1.0,1.0,1.0
2.1,2612.0,1.0,1.0,1.0
2.11,2615.5,1.0,1.0,1.0
2.12,2578,1.0,1.0,1.0
2.13,2455.001,1.0,1.0,1.0
2.14,2494.5,1.0,1.0,1.0
2.15,2541,1.0,1.0,1.0
2.16,2527.5,1.0,1.0,1.0
2.17,2351,1.0,1.0,1.0
2.18,2364,1.0,1.0,1.0
2.19,2314,1.0,1.0,1.0
2.2,2303.5,1.0,1.0,1.0
2.21,2127,1.0,1.0,1.0
2.22,2214.0,1.0,1.0,1.0
2.23,2172,1.0,1.0,1.0
2.24,2022,1.0,1.0,1.0
2.25,2008,1.0,1.0,1.0
2.26,1987,1.0,1.0,1.0
2.27,1879.5,1.0,1.0,1.0
2.28,1894,1.0,1.0,1.0
2.29,1852,1.0,1.0,1.0
2.3,1865,1.0,1.0,1.0
2.31,1847,1.0,1.0,1.0
2.32,1761,1.0,1.0,1.0
2.33,1722.5,1.0,1.0,1.0
2.34,1699.0,1.0,1.0,1.0
2.35,1770.5,1.0,1.0,1.0
2.36,1685,1.0,1.0,1.0
2.37,1588,1.0,1.0,1.0
2.38,1666.5,1.0,1.0,1.0
2.39,1671,1.0,1.0,1.0
2.4,1659.5,1.0,1.0,1.0
2.41,1607,1.0,1.0,1.0
2.42,1596.5,1.0,1.0,1.0
2.43,1642,1.0,1.0,1.0
2.44,1594.5,1.0,1.0,1.0
2.45,1543,1.0,1.0,1.0
2.46,1533.5,1.0,1.0,1.0
2.47,1520.0,1.0,1.0,1.0
2.48,1503.0,1.0,1.0,1.0
2.49,1442,1.0,1.0,1.0
2.5,1470.5,1.0,1.0,1.0
2.51,1486.0,1.0,1.0,1.0
2.52,1390.5,1.0,1.0,1.0
2.53,1453.5,1.0,1.0,1.0
2.54,1402.5,1.0,1.0,1.0
2.55,1465.0,1.0,1.0,1.0
2.56,1432.5,1.0,1.0,1.0
2.57,1369.5,1.0,1.0,1.0
2.58,1372,1.0,1.0,1.0
2.59,1360,1.0,1.0,1.0
2.6,1390,1.0,1.0,1.0
2.61,1296.5,1.0,1.0,1.0
2.62,1277.5,1.0,1.0,1.0
2.63,1298.5,1.0,1.0,1.0
2.64,1291.5,1.0,1.0,1.0
2.65,1274.5,1.0,1.0,1.0
2.66,1233,1.0,1.0,1.0
2.67,1227,1.0,1.0,1.0
2.68,1240,1.0,1.0,1.0
2.69,1197.5,1.0,1.0,1.0
2.7,1158.0,1.0,1.0,1.0
2.71,1170,1.0,1.0,1.0
2.72,1187,1.0,1.0,1.0
2.73,1108.5,1.0,1.0,1.0
2.74,1115.5,1.0,1.0,1.0
2.75,1211.5,1.0,1.0,1.0
2.76,1101.0,1.0,1.0,1.0
2.77,1088,1.0,1.0,1.0
2.78,1096.5,1.0,1.0,1.0
2.79,1122,1.0,1.0,1.0
2.8,1076.5,1.0,1.0,1.0
2.81,1112.5,1.0,1.0,1.0
2.82,1024.5,1.0,1.0,1.0
2.83,1061,1.0,1.0,1.0
2.84,1062,1.0,1.0,1.0
2.85,1101.5,1.0,1.0,1.0
2.86,1007,1.0,1.0,1.0
2.87,954.4999,1.0,1.0,1.0
2.88,1006,1.0,1.0,1.0
2.89,1044,1.0,1.0,1.0
2.9,1011.0,1.0,1.0,1.0
2.91,960.5002,1.0,1.0,1.0
2.92,997.9998,1.0,1.0,1.0
2.93,982.5002,1.0,1.0,1.0
2.94,940.0003,1.0,1.0,1.0
2.95,977.9998,1.0,1.0,1.0
2.96,950.0001,1.0,1.0,1.0
2.97,900.9996,1.0,1.0,1.0
2.98,930.5006,1.0,1.0,1.0
2.99,913.4994,1.0,1.0,1.0
3.0,960.5002,1.0,1.0,1.0
3.01,932.4996,1.0,1.0,1.0
3.02,913.5002,1.0,1.0,1.0
3.03,939.5002,1.0,1.0,1.0
3.04,866.0,1.0,1.0,1.0
3.05,841.4996,1.0,1.0,1.0
3.06,902.5001,1.0,1.0,1.0
3.07,878.0003,1.0,1.0,1.0
3.08,873.5001,1.0,1.0,1.0
3.09,865.9999,1.0,1.0,1.0
3.1,832.0001,1.0,1.0,1.0
3.11,796.5001,1.0,1.0,1.0
3.12,782.4999,1.0,1.0,1.0
3.13,786.9997,1.0,1.0,1.0
3.14,796.5005,1.0,1.0,1.0
3.15,799.4995,1.0,1.0,1.0
3.16,749.5002,1.0,1.0,1.0
3.17,767.9998,1.0,1.0,1.0
3.18,777.5005,1.0,1.0,1.0
3.19,748.4996,1.0,1.0,1.0
3.2,767.9998,1.0,1.0,1.0
3.21,739.5005,1.0,1.0,1.0
3.22,767.9999,1.0,1.0,1.0
3.23,632.5001,1.0,1.0,1.0
3.24,740.9999,1.0,1.0,1.0
3.25,682.5001,1.0,1.0,1.0
3.26,700.0001,1.0,1.0,1.0
3.27,695.4996,1.0,1.0,1.0
3.28,692.0003,1.0,1.0,1.0
3.29,679.4998,1.0,1.0,1.0
3.3,666.5004,1.0,1.0,1.0
3.31,681.4998,1.0,1.0,1.0
3.32,723.0,1.0,1.0,1.0
3.33,635.4999,1.0,1.0,1.0
3.34,670.5002,1.0,1.0,1.0
3.35,656.4998,1.0,1.0,1.0
3.36,604.0003,1.0,1.0,1.0
3.37,632.9999,1.0,1.0,1.0
3.38,603.0004,1.0,1.0,1.0
3.39,632.4998,1.0,1.0,1.0
3.4,628.4998,1.0,1.0,1.0
3.41,629.0002,1.0,1.0,1.0
3.42,614.0002,1.0,1.0,1.0
3.43,581.4998,1.0,1.0,1.0
3.44,590.5002,1.0,1.0,1.0
3.45,605.0,1.0,1.0,1.0
3.46,581.9999,1.0,1.0,1.0
3.47,581.4999,1.0,1.0,1.0
3.48,566.5001,1.0,1.0,1.0
3.49,616.5001,1.0,1.0,1.0
3.5,571.9999,1.0,1.0,1.0
3.51,543.5001,1.0,1.0,1.0
3.52,504.0,1.0,1.0,1.0
3.53,527.0003,1.0,1.0,1.0
3.54,547.9996,1.0,1.0,1.0
3.55,515.5002,1.0,1.0,1.0
3.56,527.5001,1.0,1.0,1.0
3.57,506.0001,1.0,1.0,1.0
3.58,496.4999,1.0,1.0,1.0
3.59,529.0,1.0,1.0,1.0
3.6,499.4997,1.0,1.0,1.0
3.61,469.5003,1.0,1.0,1.0
3.62,384.0,1.0,1.0,1.0
3.63,471.9996,1.0,1.0,1.0
3.64,439.0004,1.0,1.0,1.0
3.65,462.5001,1.0,1.0,1.0
3.66,435.5001,1.0,1.0,1.0
3.67,451.0,1.0,1.0,1.0
3.68,432.4999,1.0,1.0,1.0
3.69,436.5001,1.0,1.0,1.0
3.7,419.4997,1.0,1.0,1.0
3.71,389.5003,1.0,1.0,1.0
3.72,400.0,1.0,1.0,1.0
3.73,442.9999,1.0,1.0,1.0
3.74,455.0,1.0,1.0,1.0
3.75,370.0004,1.0,1.0,1.0
3.76,394.4996,1.0,1.0,1.0
3.77,402.9998,1.0,1.0,1.0
3.78,416.5004,1.0,1.0,1.0
3.79,408.5001,1.0,1.0,1.0
3.8,372.4998,1.0,1.0,1.0
3.81,394.5001,1.0,1.0,1.0
3.82,389.5001,1.0,1.0,1.0
3.83,401.4997,1.0,1.0,1.0
3.84,370.0002,1.0,1.0,1.0
3.85,413.4998,1.0,1.0,1.0
3.86,360.0,1.0,1.0,1.0
3.87,387.5002,1.0,1.0,1.0
3.88,366.0,1.0,1.0,1.0
3.89,357.0001,1.0,1.0,1.0
3.9,316.4998,1.0,1.0,1.0
3.91,366.5001,1.0,1.0,1.0
3.92,309.5001,1.0,1.0,1.0
3.93,316.4998,1.0,1.0,1.0
3.94,314.0,1.0,1.0,1.0
3.95,325.0002,1.0,1.0,1.0
3.96,321.4999,1.0,1.0,1.0
3.97,284.5001,1.0,1.0,1.0
3.98,274.9997,1.0,1.0,1.0
3.99,289.0002,1.0,1.0,1.0
4.0,310.5002,1.0,1.0,1.0
4.01,273.9998,1.0,1.0,1.0
4.02,286.0,1.0,1.0,1.0
4.03,302.0,1.0,1.0,1.0
4.04,275.0002,1.0,1.0,1.0
4.05,298.4998,1.0,1.0,1.0
4.06,286.0002,1.0,1.0,1.0
4.07,253.9999,1.0,1.0,1.0
4.08,283.5001,1.0,1.0,1.0
4.09,257.9998,1.0,1.0,1.0
4.1,237.0,1.0,1.0,1.0
4.11,257.5002,1.0,1.0,1.0
4.12,235.4999,1.0,1.0,1.0
4.13,216.9999,1.0,1.0,1.0
4.14,210.0002,1.0,1.0,1.0
4.15,241.0,1.0,1.0,1.0
4.16,256.9998,1.0,1.0,1.0
4.17,258.0003,1.0,1.0,1.0
4.18,214.4998,1.0,1.0,1.0
4.19,234.0,1.0,1.0,1.0
4.2,212.4999,1.0,1.0,1.0
4.21,220.0001,1.0,1.0,1.0
4.22,242.4997,1.0,1.0,1.0
4.23,209.5004,1.0,1.0,1.0
4.24,219.9998,1.0,1.0,1.0
4.25,233.9999,1.0,1.0,1.0
4.26,209.0002,1.0,1.0,1.0
4.27,217.0,1.0,1.0,1.0
4.28,158.4999,1.0,1.0,1.0
4.29,203.5001,1.0,1.0,1.0
4.3,179.0,1.0,1.0,1.0
4.31,218.0,1.0,1.0,1.0
4.32,214.4998,1.0,1.0,1.0
4.33,185.0002,1.0,1.0,1.0
4.34,212.0,1.0,1.0,1.0
4.35,201.9997,1.0,1.0,1.0
4.36,188.0003,1.0,1.0,1.0
4.37,166.4998,1.0,1.0,1.0
4.38,155.4999,1.0,1.0,1.0
4.39,155.5003,1.0,1.0,1.0
4.4,175.4999,1.0,1.0,1.0
4.41,171.9999,1.0,1.0,1.0
4.42,184.5001,1.0,1.0,1.0
4.43,147.5001,1.0,1.0,1.0
4.44,168.0,1.0,1.0,1.0
4.45,162.4999,1.0,1.0,1.0
4.46,167.0,1.0,1.0,1.0
4.47,158.4999,1.0,1.0,1.0
4.48,146.4999,1.0,1.0,1.0
4.49,169.5001,1.0,1.0,1.0
4.5,147.4999,1.0,1.0,1.0