File: XRD:XRR/LCO/22163_LCOT/22163_103_RSM_2-Theta_Omega.asc
*TYPE		=  Raw
*CLASS		=
*SAMPLE		=
*COMMENT	=
*FNAME		=  22163_103_RSM_2-Theta_Omega.asc
*DATE		=  27-Nov-22 04:06

*GROUP_COUNT	=  1
*GONIO		=  SmartLab(In-plane), 0.000000
*ATTACHMENT	=  Z-Phi Stage
*ASC		=  0, 0, 0.000000, 0.000000
*I_MONOCHRO	=  Ge(220)x2, 0.000000
*FILTER		=  None
*C_MONOCHRO	=  None, 0.000000
*SLIT_NAME	=  0, Incident slit
*SLIT_NAME	=  1, Receiving slit # 1
*SLIT_NAME	=  2, Receiving slit # 2
*COUNTER	=  D/teX Ultra 250, 0
*POS_FORMAT	=  0
*SCAN_AXIS	=  2Theta/Omega
*MEAS_MODE	=  Continuous Scanning
*TARGET		=  29
*XRAY_CHAR	=  K-ALPHA1
*WAVE_LENGTH1	=  1.54059
*WAVE_LENGTH2	=  1.54441
*THICKNESS	=  0, 0.000000
*MU		=  0, 0.000000
*SCAN_MODE	=  2Theta/Omega
*SPEED_DIM	=  sec./step
*XUNIT		=  deg.
*YUNIT		=  counts
*SCALE_MODE	=  1
*REP_COUNT	=  0
*SE_COUNT	=  0
*STD_MATERIAL	=  Unknown, Unknown, 0.000000, 0.000000, 0.000000, 0.000000, 0.000000, 0.000000
*LATT_CONS	=  0, Unknown, Unknown, 0.000000, 0.000000, 0.000000, 0.000000, 0.000000, 0.000000
*SEC_COUNT	=  81
*TSPEC_SIZE	=  0
*EXTRA_SIZE	=  0
*MEMO		=

*BEGIN
*GROUP		=  0
*START		=  70
*STOP		=  85
*STEP		=  0.1
*OFFSET		=  16.3405
*SPEED		=  9.917
*SLIT_SPEC	=  0, 0.500mm, 0.5, 0.000000
*SLIT_SPEC	=  1, 0.500mm, 0.5, 0.000000
*SLIT_SPEC	=  2, 0.500mm, 0.5, 0.000000
*KV		=  40
*MA		=  30
*LOW		=  0.000000
*HIGH		=  0.000000
*CTEMPER	=  0, 0.000000
*CTEMPER	=  1, 0.000000
*CTEMPER	=  2, 0.000000
*PAREX		=  0, 0.000000
*PAREX		=  1, 0.000000
*PAREX		=  2, 0.000000
*PAREX		=  3, 0.000000
*PAREX		=  4, 0.000000
*PAREX		=  5, 0.000000
*PAREX		=  6, 0.000000
*PAREX		=  7, 0.000000
*PAREX		=  8, 0.000000
*PAREX		=  9, 0.000000
*PAREX		=  10, 0.000000
*PAREX		=  11, 0.000000
*PAREX		=  12, 0.000000
*PAREX		=  13, 0.000000
*PAREX		=  14, 0.000000
*PAREX		=  15, 0.000000
*FULL_SCALE	=  36.3013
*INDEX		=  0, 0, 0
*COUNT		=  151
2, 2, 4, 5
5, 2, 3, 0.000000
2, 2, 3, 0.000000
5, 1, 3, 9
3, 3, 3, 2
2, 0.000000, 2, 0.000000
0.000000, 2, 0.000000, 4
4, 0.000000, 2, 4
3, 2, 2, 0.000000
2, 2, 2, 2
4, 8, 2, 2
0.000000, 4, 3, 0.000000
2, 0.000000, 0.000000, 7
6, 8, 4, 0.000000
3, 7, 6, 4
5, 5, 6, 7
4, 6, 7, 6
4, 13, 8, 5
2, 9, 2, 4
14, 6, 2, 4.90033
6.09967, 2, 3, 2
0.000000, 2.90033, 2.09967, 9
4, 8, 5, 0.000000
9.90033, 11.0997, 8, 2
7, 8, 3, 5
0.000000, 7, 9, 5
0.000000, 2, 0.000000, 2
4, 5, 7, 4
2, 5, 4.90033, 2.09967
0.000000, 2, 3, 7
11, 0.000000, 0.000000, 2
2, 4, 10, 3
0.000000, 6, 7, 2
2, 6, 3, 8
4, 0.000000, 2, 2
0.000000, 2, 6, 1
4, 2, 5, 4
0.000000, 2, 0.000000
*END

*BEGIN
*GROUP		=  0
*START		=  70
*STOP		=  85
*STEP		=  0.1
*OFFSET		=  16.3906
*SPEED		=  9.917
*SLIT_SPEC	=  0, 0.500mm, 0.5, 0.000000
*SLIT_SPEC	=  1, 0.500mm, 0.5, 0.000000
*SLIT_SPEC	=  2, 0.500mm, 0.5, 0.000000
*KV		=  40
*MA		=  30
*LOW		=  0.000000
*HIGH		=  0.000000
*CTEMPER	=  0, 0.000000
*CTEMPER	=  1, 0.000000
*CTEMPER	=  2, 0.000000
*PAREX		=  0, 0.000000
*PAREX		=  1, 0.000000
*PAREX		=  2, 0.000000
*PAREX		=  3, 0.000000
*PAREX		=  4, 0.000000
*PAREX		=  5, 0.000000
*PAREX		=  6, 0.000000
*PAREX		=  7, 0.000000
*PAREX		=  8, 0.000000
*PAREX		=  9, 0.000000
*PAREX		=  10, 0.000000
*PAREX		=  11, 0.000000
*PAREX		=  12, 0.000000
*PAREX		=  13, 0.000000
*PAREX		=  14, 0.000000
*PAREX		=  15, 0.000000
*FULL_SCALE	=  36.3013
*INDEX		=  0, 0, 0
*COUNT		=  151
4.90033, 5, 3.09967, 0.000000
0.000000, 5, 5, 12
0.000000, 2, 2, 3
0.000000, 2, 0.000000, 2
2, 3, 0.000000, 0.000000
2, 2, 0.000000, 0.000000
2, 2, 0.000000, 2
2, 2, 0.000000, 5
6, 4, 1, 2
3, 7, 4, 0.000000
6, 4, 2, 5
7, 1, 13, 6
5, 0.000000, 12, 8
6, 2, 3, 4
2, 3, 6, 3
4, 4, 4, 3
2, 7, 10, 5
2, 5, 2, 7
3, 10, 4, 2
7, 3, 3, 0.000000
6, 8, 4, 2
6, 4, 0.000000, 8
7.80066, 1.19934, 9, 0.000000
0.000000, 1, 2, 6
9, 6, 4, 4
4, 9, 2, 2
6, 5, 6, 10
2, 0.000000, 0.000000, 7
3, 4, 6, 0.000000
0.000000, 4, 0.000000, 5
1, 0.000000, 2, 5
2, 5, 0.000000, 0.000000
0.000000, 2, 3, 2
0.000000, 0.000000, 0.000000, 6
0.000000, 4, 2, 6
2, 7, 2, 2
3, 4, 0.000000, 6
0.000000, 2, 2
*END

*BEGIN
*GROUP		=  0
*START		=  70
*STOP		=  85
*STEP		=  0.1
*OFFSET		=  16.4406
*SPEED		=  9.917
*SLIT_SPEC	=  0, 0.500mm, 0.5, 0.000000
*SLIT_SPEC	=  1, 0.500mm, 0.5, 0.000000
*SLIT_SPEC	=  2, 0.500mm, 0.5, 0.000000
*KV		=  40
*MA		=  30
*LOW		=  0.000000
*HIGH		=  0.000000
*CTEMPER	=  0, 0.000000
*CTEMPER	=  1, 0.000000
*CTEMPER	=  2, 0.000000
*PAREX		=  0, 0.000000
*PAREX		=  1, 0.000000
*PAREX		=  2, 0.000000
*PAREX		=  3, 0.000000
*PAREX		=  4, 0.000000
*PAREX		=  5, 0.000000
*PAREX		=  6, 0.000000
*PAREX		=  7, 0.000000
*PAREX		=  8, 0.000000
*PAREX		=  9, 0.000000
*PAREX		=  10, 0.000000
*PAREX		=  11, 0.000000
*PAREX		=  12, 0.000000
*PAREX		=  13, 0.000000
*PAREX		=  14, 0.000000
*PAREX		=  15, 0.000000
*FULL_SCALE	=  36.3013
*INDEX		=  0, 0, 0
*COUNT		=  151
0.000000, 0.000000, 0.000000, 2
4, 4, 2, 8
7, 5, 4, 3
3, 2, 5, 0.000000
7, 6, 4, 5
4, 4, 2, 5
0.000000, 0.000000, 9, 4
7, 0.000000, 0.000000, 0.000000
0.000000, 2, 4, 2
4, 2, 6, 0.000000
2, 0.000000, 2, 8
0.000000, 3, 4, 3
2, 6, 9.90033, 5.09967
9, 7, 6, 9
0.000000, 2, 0.000000, 2
4.90033, 8.09967, 2, 10
4, 4, 7, 4
7, 5, 8.90033, 6.09967
3, 4, 8, 6
2, 6, 2, 2
5, 11, 2, 6
5.90033, 8.09967, 3, 9
8, 7, 4.90033, 4.09967
2, 10, 4, 2
0.000000, 4, 0.000000, 7
2, 7, 10, 4
8, 2, 0.000000, 5
0.000000, 5, 2, 8
5, 2, 0.000000, 4
2, 2, 2, 0.000000
5, 0.000000, 2, 3
0.000000, 0.000000, 5, 2
0.000000, 7, 0.000000, 8
6, 5, 0.000000, 3
0.000000, 11, 0.000000, 4
2, 0.000000, 5, 1.90033
2.09967, 2, 0.000000, 0.000000
2, 0.000000, 2
*END

*BEGIN
*GROUP		=  0
*START		=  70
*STOP		=  85
*STEP		=  0.1
*OFFSET		=  16.4906
*SPEED		=  9.917
*SLIT_SPEC	=  0, 0.500mm, 0.5, 0.000000
*SLIT_SPEC	=  1, 0.500mm, 0.5, 0.000000
*SLIT_SPEC	=  2, 0.500mm, 0.5, 0.000000
*KV		=  40
*MA		=  30
*LOW		=  0.000000
*HIGH		=  0.000000
*CTEMPER	=  0, 0.000000
*CTEMPER	=  1, 0.000000
*CTEMPER	=  2, 0.000000
*PAREX		=  0, 0.000000
*PAREX		=  1, 0.000000
*PAREX		=  2, 0.000000
*PAREX		=  3, 0.000000
*PAREX		=  4, 0.000000
*PAREX		=  5, 0.000000
*PAREX		=  6, 0.000000
*PAREX		=  7, 0.000000
*PAREX		=  8, 0.000000
*PAREX		=  9, 0.000000
*PAREX		=  10, 0.000000
*PAREX		=  11, 0.000000
*PAREX		=  12, 0.000000
*PAREX		=  13, 0.000000
*PAREX		=  14, 0.000000
*PAREX		=  15, 0.000000
*FULL_SCALE	=  24.2009
*INDEX		=  0, 0, 0
*COUNT		=  151
0.000000, 2, 0.000000, 0.000000
0.000000, 0.000000, 2, 3
5, 2, 3, 3
2, 2, 2, 6
6, 4, 6, 0.000000
0.000000, 0.000000, 2, 2
0.000000, 2, 4, 2
0.000000, 0.000000, 4, 0.000000
2, 2, 5, 0.000000
2, 6, 0.000000, 4
7, 2, 3, 2
2, 4, 3, 6
4, 0.000000, 2, 8
4, 2, 7, 15
2, 7, 10, 8
0.000000, 2, 2, 5
0.000000, 4, 8, 5
8, 12.9003, 2.09967, 5
5, 0.000000, 8, 7
4, 11, 0.000000, 12
1, 4, 8, 0.000000
3.90033, 2.09967, 6, 5
3, 5, 6, 2
0.000000, 0.000000, 4, 5
2.90033, 11.0997, 2, 4
2, 2, 3, 5
4, 0.000000, 5, 4
11, 0.000000, 5.90033, 5.09967
4.90033, 2.09967, 3, 6
4, 3, 0.000000, 2
5, 0.000000, 6, 2
0.000000, 0.000000, 2, 9
0.000000, 5, 2, 0.000000
6, 0.000000, 4, 2
0.000000, 0.000000, 7, 0.000000
0.000000, 2, 2, 2
0.000000, 0.000000, 2, 0.000000
5, 0.000000, 2
*END

*BEGIN
*GROUP		=  0
*START		=  70
*STOP		=  85
*STEP		=  0.1
*OFFSET		=  16.5405
*SPEED		=  9.917
*SLIT_SPEC	=  0, 0.500mm, 0.5, 0.000000
*SLIT_SPEC	=  1, 0.500mm, 0.5, 0.000000
*SLIT_SPEC	=  2, 0.500mm, 0.5, 0.000000
*KV		=  40
*MA		=  30
*LOW		=  0.000000
*HIGH		=  0.000000
*CTEMPER	=  0, 0.000000
*CTEMPER	=  1, 0.000000
*CTEMPER	=  2, 0.000000
*PAREX		=  0, 0.000000
*PAREX		=  1, 0.000000
*PAREX		=  2, 0.000000
*PAREX		=  3, 0.000000
*PAREX		=  4, 0.000000
*PAREX		=  5, 0.000000
*PAREX		=  6, 0.000000
*PAREX		=  7, 0.000000
*PAREX		=  8, 0.000000
*PAREX		=  9, 0.000000
*PAREX		=  10, 0.000000
*PAREX		=  11, 0.000000
*PAREX		=  12, 0.000000
*PAREX		=  13, 0.000000
*PAREX		=  14, 0.000000
*PAREX		=  15, 0.000000
*FULL_SCALE	=  36.3013
*INDEX		=  0, 0, 0
*COUNT		=  151
5, 0.000000, 0.000000, 0.000000
0.000000, 7, 0.000000, 10
2, 0.000000, 4, 0.000000
0.000000, 3, 2, 0.000000
2, 2, 3, 7
0.000000, 3, 2, 0.000000
3, 6.90033, 7.09967, 2
5, 2, 0.000000, 2
2, 4, 7, 5
0.000000, 0.000000, 0.000000, 2
3, 9, 4, 7
9, 3.90033, 2.09967, 5
5, 12, 2, 2
0.000000, 6, 11, 0.000000
12, 2, 4, 9
8, 8, 7, 6
2, 2, 2, 6
0.90033, 10.0997, 1, 14
2, 7.90033, 2.09967, 7
5, 8, 0.000000, 11
2, 7, 3, 4
6, 5, 8, 6
4, 14.9003, 4.09967, 0.000000
8, 2, 11, 4
5, 6, 2, 2
0.000000, 3, 3, 0.000000
0.000000, 3, 4, 0.000000
4, 0.000000, 2, 0.000000
5, 6, 0.000000, 2
4, 3, 4, 8
7, 0.000000, 5, 2
3, 0.000000, 3, 8
4, 0.000000, 2, 9
0.000000, 2, 0.000000, 4
2, 0.000000, 0.000000, 2
0.000000, 5, 5, 10
2, 2, 2, 0.000000
0.000000, 4, 4
*END

*BEGIN
*GROUP		=  0
*START		=  70
*STOP		=  85
*STEP		=  0.1
*OFFSET		=  16.5906
*SPEED		=  9.917
*SLIT_SPEC	=  0, 0.500mm, 0.5, 0.000000
*SLIT_SPEC	=  1, 0.500mm, 0.5, 0.000000
*SLIT_SPEC	=  2, 0.500mm, 0.5, 0.000000
*KV		=  40
*MA		=  30
*LOW		=  0.000000
*HIGH		=  0.000000
*CTEMPER	=  0, 0.000000
*CTEMPER	=  1, 0.000000
*CTEMPER	=  2, 0.000000
*PAREX		=  0, 0.000000
*PAREX		=  1, 0.000000
*PAREX		=  2, 0.000000
*PAREX		=  3, 0.000000
*PAREX		=  4, 0.000000
*PAREX		=  5, 0.000000
*PAREX		=  6, 0.000000
*PAREX		=  7, 0.000000
*PAREX		=  8, 0.000000
*PAREX		=  9, 0.000000
*PAREX		=  10, 0.000000
*PAREX		=  11, 0.000000
*PAREX		=  12, 0.000000
*PAREX		=  13, 0.000000
*PAREX		=  14, 0.000000
*PAREX		=  15, 0.000000
*FULL_SCALE	=  36.3013
*INDEX		=  0, 0, 0
*COUNT		=  151
2, 0.000000, 0.000000, 2
2, 4, 2, 0.000000
3, 2, 0.000000, 3
3, 4, 6, 0.000000
8, 0.000000, 2, 3
8, 5, 9, 4
0.000000, 0.000000, 0.000000, 0.000000
2, 0.000000, 2, 7
0.000000, 0.000000, 0.000000, 2
2, 9, 0.000000, 9
0.000000, 7, 3, 2
2, 6, 6, 2
0.000000, 4, 0.000000, 2
16, 4, 2, 2
5, 11, 8, 4
7, 14, 0.000000, 0.000000
2, 2, 0.000000, 2
6, 4.90033, 11.0997, 4
12, 4.90033, 9.09967, 2
5, 2, 6, 5
4, 2, 0.000000, 2
4, 0.000000, 7, 0.000000
0.000000, 6, 2, 5
2, 0.000000, 0.000000, 8
9, 6, 2, 11
0.000000, 2, 2, 2
4, 7.90033, 2.09967, 0.000000
2, 2, 4, 2
0.000000, 2, 4, 6
0.000000, 5, 5, 4
0.000000, 6, 2, 0.000000
4, 0.000000, 0.000000, 3
3, 7, 0.000000, 2
2, 2, 0.000000, 2
4, 0.000000, 4, 0.000000
2, 2, 4, 2
6.90033, 0.0996704, 4, 0.000000
2, 0.000000, 4
*END

*BEGIN
*GROUP		=  0
*START		=  70
*STOP		=  85
*STEP		=  0.1
*OFFSET		=  16.6406
*SPEED		=  9.917
*SLIT_SPEC	=  0, 0.500mm, 0.5, 0.000000
*SLIT_SPEC	=  1, 0.500mm, 0.5, 0.000000
*SLIT_SPEC	=  2, 0.500mm, 0.5, 0.000000
*KV		=  40
*MA		=  30
*LOW		=  0.000000
*HIGH		=  0.000000
*CTEMPER	=  0, 0.000000
*CTEMPER	=  1, 0.000000
*CTEMPER	=  2, 0.000000
*PAREX		=  0, 0.000000
*PAREX		=  1, 0.000000
*PAREX		=  2, 0.000000
*PAREX		=  3, 0.000000
*PAREX		=  4, 0.000000
*PAREX		=  5, 0.000000
*PAREX		=  6, 0.000000
*PAREX		=  7, 0.000000
*PAREX		=  8, 0.000000
*PAREX		=  9, 0.000000
*PAREX		=  10, 0.000000
*PAREX		=  11, 0.000000
*PAREX		=  12, 0.000000
*PAREX		=  13, 0.000000
*PAREX		=  14, 0.000000
*PAREX		=  15, 0.000000
*FULL_SCALE	=  24.2009
*INDEX		=  0, 0, 0
*COUNT		=  151
0.000000, 0.000000, 0.000000, 3
2, 0.000000, 0.000000, 0.000000
2, 5, 2, 0.000000
3.90033, 2.09967, 4, 4
0.000000, 0.000000, 0.000000, 5
4, 4, 0.000000, 0.000000
0.000000, 2, 4, 0.000000
2, 1, 3, 0.000000
3, 2, 0.000000, 2
5, 8, 6, 2
2, 4, 6, 6
2, 0.000000, 0.000000, 6
0.000000, 3, 6, 5
5, 8, 4, 6
5.80066, 3.19934, 2, 9
16.9003, 6.09967, 2, 5
3, 2, 6, 5
2, 11, 2, 14
10, 10, 9, 7
4, 7, 5, 5
0.000000, 7, 15, 4
6, 12.9003, 2.09967, 0.000000
3, 0.000000, 2, 4
4, 5, 10, 2
0.000000, 9.90033, 4.09967, 5
5, 2, 0.000000, 3
4, 2, 12, 8.90033
7.09967, 0.000000, 4, 2
4, 2, 0.000000, 2
3, 7.90033, 5.09967, 0.000000
5, 6, 2, 2
4, 2, 4, 4
0.000000, 2, 2, 0.000000
3, 0.000000, 5, 0.000000
0.000000, 0.000000, 0.000000, 4
6, 2, 0.000000, 0.000000
0.000000, 3, 2, 0.000000
4, 3, 0.000000
*END

*BEGIN
*GROUP		=  0
*START		=  70
*STOP		=  85
*STEP		=  0.1
*OFFSET		=  16.6906
*SPEED		=  9.917
*SLIT_SPEC	=  0, 0.500mm, 0.5, 0.000000
*SLIT_SPEC	=  1, 0.500mm, 0.5, 0.000000
*SLIT_SPEC	=  2, 0.500mm, 0.5, 0.000000
*KV		=  40
*MA		=  30
*LOW		=  0.000000
*HIGH		=  0.000000
*CTEMPER	=  0, 0.000000
*CTEMPER	=  1, 0.000000
*CTEMPER	=  2, 0.000000
*PAREX		=  0, 0.000000
*PAREX		=  1, 0.000000
*PAREX		=  2, 0.000000
*PAREX		=  3, 0.000000
*PAREX		=  4, 0.000000
*PAREX		=  5, 0.000000
*PAREX		=  6, 0.000000
*PAREX		=  7, 0.000000
*PAREX		=  8, 0.000000
*PAREX		=  9, 0.000000
*PAREX		=  10, 0.000000
*PAREX		=  11, 0.000000
*PAREX		=  12, 0.000000
*PAREX		=  13, 0.000000
*PAREX		=  14, 0.000000
*PAREX		=  15, 0.000000
*FULL_SCALE	=  24.2009
*INDEX		=  0, 0, 0
*COUNT		=  151
6, 6, 3, 2
4, 0.000000, 5, 4
4, 4.90033, 5.09967, 3
5, 4, 2, 0.000000
0.000000, 2, 2, 0.000000
4, 0.000000, 5, 5
0.000000, 0.000000, 2, 0.000000
0.000000, 4, 2, 2
4, 2, 4, 3
0.000000, 13, 2, 4
0.000000, 7, 2, 5
6, 5, 6, 6
5, 5.90033, 3.09967, 5
4, 2, 2, 4
4, 4, 8, 6
6, 14, 0.000000, 4
6.90033, 6.09967, 3, 6
4, 0.000000, 9.90033, 8
5.09967, 2.90033, 9.09967, 5.80066
8.19934, 11, 4, 6
2, 3.80066, 1.19934, 4
9, 2, 8, 0.000000
12, 8, 2, 7
4, 11, 10, 4
6, 4, 4, 6
0.000000, 2, 4, 0.000000
4, 2, 2, 4
2.90033, 4.09967, 6, 5
4, 6, 9, 2
2, 0.000000, 6, 6
0.000000, 4, 2, 2
4, 2, 4, 2
3, 2, 0.000000, 0.000000
0.000000, 0.000000, 0.000000, 2
0.000000, 0.000000, 0.000000, 2
2, 2, 2, 0.000000
0.000000, 3, 5, 0.000000
0.000000, 0.000000, 2
*END

*BEGIN
*GROUP		=  0
*START		=  70
*STOP		=  85
*STEP		=  0.1
*OFFSET		=  16.7406
*SPEED		=  9.917
*SLIT_SPEC	=  0, 0.500mm, 0.5, 0.000000
*SLIT_SPEC	=  1, 0.500mm, 0.5, 0.000000
*SLIT_SPEC	=  2, 0.500mm, 0.5, 0.000000
*KV		=  40
*MA		=  30
*LOW		=  0.000000
*HIGH		=  0.000000
*CTEMPER	=  0, 0.000000
*CTEMPER	=  1, 0.000000
*CTEMPER	=  2, 0.000000
*PAREX		=  0, 0.000000
*PAREX		=  1, 0.000000
*PAREX		=  2, 0.000000
*PAREX		=  3, 0.000000
*PAREX		=  4, 0.000000
*PAREX		=  5, 0.000000
*PAREX		=  6, 0.000000
*PAREX		=  7, 0.000000
*PAREX		=  8, 0.000000
*PAREX		=  9, 0.000000
*PAREX		=  10, 0.000000
*PAREX		=  11, 0.000000
*PAREX		=  12, 0.000000
*PAREX		=  13, 0.000000
*PAREX		=  14, 0.000000
*PAREX		=  15, 0.000000
*FULL_SCALE	=  24.2009
*INDEX		=  0, 0, 0
*COUNT		=  151
3, 2, 0.000000, 0.000000
0.000000, 9, 0.000000, 2
2, 8, 0.000000, 1
0.000000, 2, 2, 0.000000
7, 4, 0.000000, 3
5, 7, 2, 7.80066
5.09967, 3.09967, 0.000000, 6
2, 4, 0.000000, 0.000000
2, 2, 2, 4
8, 5, 0.000000, 2
2, 2, 2, 6
0.000000, 2, 2, 6
7, 4, 8, 2
8, 2, 8, 6
5, 9, 4, 3
10, 4, 13, 2
9, 2, 14, 9
11, 9, 12, 3
15, 3, 6, 8
0.000000, 2, 12, 7.90033
4.09967, 4, 9, 4
0.000000, 3, 8, 3
3, 6, 2, 2
4, 0.000000, 8, 8
0.90033, 6.09967, 2, 2
0.000000, 9, 2, 0.000000
5, 2, 2, 4
2, 0.000000, 2, 0.000000
9, 0.000000, 7, 10
2, 0.000000, 2, 2
4, 2, 2, 0.000000
0.000000, 2, 4, 2
4, 6, 5, 4
3, 3, 8, 2
4, 0.000000, 2, 5
3, 2, 2, 0.000000
2, 2, 0.000000, 0.000000
2, 2, 5
*END

*BEGIN
*GROUP		=  0
*START		=  70
*STOP		=  85
*STEP		=  0.1
*OFFSET		=  16.7905
*SPEED		=  9.917
*SLIT_SPEC	=  0, 0.500mm, 0.5, 0.000000
*SLIT_SPEC	=  1, 0.500mm, 0.5, 0.000000
*SLIT_SPEC	=  2, 0.500mm, 0.5, 0.000000
*KV		=  40
*MA		=  30
*LOW		=  0.000000
*HIGH		=  0.000000
*CTEMPER	=  0, 0.000000
*CTEMPER	=  1, 0.000000
*CTEMPER	=  2, 0.000000
*PAREX		=  0, 0.000000
*PAREX		=  1, 0.000000
*PAREX		=  2, 0.000000
*PAREX		=  3, 0.000000
*PAREX		=  4, 0.000000
*PAREX		=  5, 0.000000
*PAREX		=  6, 0.000000
*PAREX		=  7, 0.000000
*PAREX		=  8, 0.000000
*PAREX		=  9, 0.000000
*PAREX		=  10, 0.000000
*PAREX		=  11, 0.000000
*PAREX		=  12, 0.000000
*PAREX		=  13, 0.000000
*PAREX		=  14, 0.000000
*PAREX		=  15, 0.000000
*FULL_SCALE	=  24.2009
*INDEX		=  0, 0, 0
*COUNT		=  151
4, 0.000000, 4, 2
4, 0.000000, 0.000000, 0.000000
0.000000, 4, 4, 2
0.000000, 0.000000, 8, 7
4, 2, 2, 2
6, 2, 4, 4
0.000000, 2, 2, 0.000000
0.000000, 0.000000, 2, 0.000000
2, 0.000000, 0.000000, 2
10, 0.000000, 0.000000, 10
0.000000, 13.9003, 5.09967, 9
4, 3, 2, 3
4, 6.90033, 8.09967, 11
0.000000, 4, 0.000000, 2
0.000000, 6, 2, 6
4, 7, 6, 8
11, 7, 8, 3
9, 9, 14, 8
0.000000, 9, 13, 11
3, 2, 8, 9
14, 2, 6, 2
2, 5, 2, 5
6, 0.000000, 2, 2
2, 0.000000, 2, 2
7, 7, 0.000000, 5
0.000000, 0.000000, 4, 3
0.000000, 0.000000, 4, 9
2, 2, 5, 2
0.000000, 5, 0.000000, 5
3, 0.000000, 0.000000, 3
4, 0.000000, 4, 3
0.000000, 2, 4, 4
2, 2, 2, 3
2, 0.000000, 4, 6
2, 4, 0.000000, 0.000000
0.000000, 2, 6, 2
8, 4, 3, 0.000000
0.000000, 0.000000, 1
*END

*BEGIN
*GROUP		=  0
*START		=  70
*STOP		=  85
*STEP		=  0.1
*OFFSET		=  16.8406
*SPEED		=  9.917
*SLIT_SPEC	=  0, 0.500mm, 0.5, 0.000000
*SLIT_SPEC	=  1, 0.500mm, 0.5, 0.000000
*SLIT_SPEC	=  2, 0.500mm, 0.5, 0.000000
*KV		=  40
*MA		=  30
*LOW		=  0.000000
*HIGH		=  0.000000
*CTEMPER	=  0, 0.000000
*CTEMPER	=  1, 0.000000
*CTEMPER	=  2, 0.000000
*PAREX		=  0, 0.000000
*PAREX		=  1, 0.000000
*PAREX		=  2, 0.000000
*PAREX		=  3, 0.000000
*PAREX		=  4, 0.000000
*PAREX		=  5, 0.000000
*PAREX		=  6, 0.000000
*PAREX		=  7, 0.000000
*PAREX		=  8, 0.000000
*PAREX		=  9, 0.000000
*PAREX		=  10, 0.000000
*PAREX		=  11, 0.000000
*PAREX		=  12, 0.000000
*PAREX		=  13, 0.000000
*PAREX		=  14, 0.000000
*PAREX		=  15, 0.000000
*FULL_SCALE	=  24.2009
*INDEX		=  0, 0, 0
*COUNT		=  151
0.000000, 4, 6, 6
3, 2, 4, 0.000000
2, 3, 0.000000, 0.000000
4, 2, 2, 2
4, 0.000000, 0.000000, 4
0.000000, 6, 0.000000, 2
3, 0.000000, 2, 3
5, 0.000000, 0.000000, 6
4, 6, 0.000000, 2
0.000000, 2, 7, 3
1, 3, 2, 3
7, 3, 0.000000, 2
0.000000, 2, 3, 0.000000
6, 3, 5, 13
4, 10, 5, 7
10, 8, 10.9003, 7.09967
5, 4, 8, 13.9003
2.09967, 7, 2, 14
5, 8, 5, 5
0.000000, 5, 4, 7
4, 12, 7, 9
4, 7, 4, 2
3, 4, 5.90033, 4.09967
2, 2, 5, 8.90033
4.09967, 0.000000, 4, 6
4, 5, 5, 5
2, 0.000000, 2, 5
2, 10, 0.000000, 0.000000
7, 5, 0.90033, 6.09967
4, 2, 2, 4
4, 4, 4, 2
3, 6.90033, 0.0996704, 0.000000
2, 4, 2, 2
2, 0.000000, 2, 2
2, 3, 2, 6
0.000000, 5.90033, 3.09967, 2
8, 3, 0.000000, 5
0.000000, 3, 3.90033
*END

*BEGIN
*GROUP		=  0
*START		=  70
*STOP		=  85
*STEP		=  0.1
*OFFSET		=  16.8906
*SPEED		=  9.917
*SLIT_SPEC	=  0, 0.500mm, 0.5, 0.000000
*SLIT_SPEC	=  1, 0.500mm, 0.5, 0.000000
*SLIT_SPEC	=  2, 0.500mm, 0.5, 0.000000
*KV		=  40
*MA		=  30
*LOW		=  0.000000
*HIGH		=  0.000000
*CTEMPER	=  0, 0.000000
*CTEMPER	=  1, 0.000000
*CTEMPER	=  2, 0.000000
*PAREX		=  0, 0.000000
*PAREX		=  1, 0.000000
*PAREX		=  2, 0.000000
*PAREX		=  3, 0.000000
*PAREX		=  4, 0.000000
*PAREX		=  5, 0.000000
*PAREX		=  6, 0.000000
*PAREX		=  7, 0.000000
*PAREX		=  8, 0.000000
*PAREX		=  9, 0.000000
*PAREX		=  10, 0.000000
*PAREX		=  11, 0.000000
*PAREX		=  12, 0.000000
*PAREX		=  13, 0.000000
*PAREX		=  14, 0.000000
*PAREX		=  15, 0.000000
*FULL_SCALE	=  24.2009
*INDEX		=  0, 0, 0
*COUNT		=  151
0.000000, 3, 4, 2
2, 0.000000, 2, 0.000000
5, 4, 0.000000, 4
2, 2, 0.000000, 0.000000
0.000000, 0.000000, 2, 0.000000
4, 5, 2, 0.000000
0.000000, 0.000000, 2, 0.000000
4, 0.000000, 6, 0.000000
2, 2, 2, 8
3, 2, 0.000000, 0.000000
8, 0.000000, 9, 2
2, 2, 0.000000, 3
6.90033, 3.09967, 4, 2
0.000000, 6, 8, 3
9, 4, 5, 2
9, 8, 6, 7
5, 2, 9, 8
6, 6, 6, 21
4, 9, 11, 2
8, 14, 4, 2
6, 5, 4, 3
5, 2, 4, 7
4, 6, 2, 7
4, 15.9003, 2.09967, 4
4, 2, 8, 5
0.90033, 5.09967, 2, 3
6, 10, 4, 2
2, 7, 2, 6
2, 4, 6, 2
4, 0.000000, 2, 6
0.000000, 4, 4, 4
2, 7, 10, 4
4, 0.000000, 2, 0.000000
2, 4, 2, 0.000000
0.000000, 9, 8, 4.90033
1.09967, 2, 0.000000, 6
0.000000, 4, 2, 0.000000
3, 2, 0.000000
*END

*BEGIN
*GROUP		=  0
*START		=  70
*STOP		=  85
*STEP		=  0.1
*OFFSET		=  16.9406
*SPEED		=  9.917
*SLIT_SPEC	=  0, 0.500mm, 0.5, 0.000000
*SLIT_SPEC	=  1, 0.500mm, 0.5, 0.000000
*SLIT_SPEC	=  2, 0.500mm, 0.5, 0.000000
*KV		=  40
*MA		=  30
*LOW		=  0.000000
*HIGH		=  0.000000
*CTEMPER	=  0, 0.000000
*CTEMPER	=  1, 0.000000
*CTEMPER	=  2, 0.000000
*PAREX		=  0, 0.000000
*PAREX		=  1, 0.000000
*PAREX		=  2, 0.000000
*PAREX		=  3, 0.000000
*PAREX		=  4, 0.000000
*PAREX		=  5, 0.000000
*PAREX		=  6, 0.000000
*PAREX		=  7, 0.000000
*PAREX		=  8, 0.000000
*PAREX		=  9, 0.000000
*PAREX		=  10, 0.000000
*PAREX		=  11, 0.000000
*PAREX		=  12, 0.000000
*PAREX		=  13, 0.000000
*PAREX		=  14, 0.000000
*PAREX		=  15, 0.000000
*FULL_SCALE	=  411.415
*INDEX		=  0, 0, 0
*COUNT		=  151
0.000000, 7, 4, 2
0.000000, 0.000000, 3, 0.000000
2, 4, 3, 3
2, 2, 2, 8
2, 2, 0.000000, 4
0.000000, 0.000000, 2, 0.000000
0.000000, 0.000000, 7, 2
2, 4, 2, 2
1, 9, 2, 2
39, 4, 7, 2
6, 6, 5, 2
2, 7, 2, 4
2, 5, 7, 0.000000
5, 10, 2, 2
0.000000, 8, 2, 4
5, 12, 5, 6
19, 9, 9, 3
6, 7, 10, 12
3, 13, 15, 6
3, 4, 8, 7
9, 4, 11, 6
7, 5, 5, 2.90033
3.09967, 2, 5, 6
5.90033, 7.09967, 0.000000, 4
12, 4, 3, 6
3, 0.000000, 2, 0.000000
6, 8, 3, 0.000000
9, 3, 0.000000, 3
12, 2, 9, 4
2, 2, 5, 5
4, 4, 5, 0.000000
0.000000, 5, 0.000000, 2
3, 4, 6, 2
3, 6, 0.000000, 5
0.000000, 2, 8, 2
1, 0.000000, 3.80066, 5.19934
4, 0.000000, 4, 2
2, 2, 0.000000
*END

*BEGIN
*GROUP		=  0
*START		=  70
*STOP		=  85
*STEP		=  0.1
*OFFSET		=  16.9906
*SPEED		=  9.917
*SLIT_SPEC	=  0, 0.500mm, 0.5, 0.000000
*SLIT_SPEC	=  1, 0.500mm, 0.5, 0.000000
*SLIT_SPEC	=  2, 0.500mm, 0.5, 0.000000
*KV		=  40
*MA		=  30
*LOW		=  0.000000
*HIGH		=  0.000000
*CTEMPER	=  0, 0.000000
*CTEMPER	=  1, 0.000000
*CTEMPER	=  2, 0.000000
*PAREX		=  0, 0.000000
*PAREX		=  1, 0.000000
*PAREX		=  2, 0.000000
*PAREX		=  3, 0.000000
*PAREX		=  4, 0.000000
*PAREX		=  5, 0.000000
*PAREX		=  6, 0.000000
*PAREX		=  7, 0.000000
*PAREX		=  8, 0.000000
*PAREX		=  9, 0.000000
*PAREX		=  10, 0.000000
*PAREX		=  11, 0.000000
*PAREX		=  12, 0.000000
*PAREX		=  13, 0.000000
*PAREX		=  14, 0.000000
*PAREX		=  15, 0.000000
*FULL_SCALE	=  36.3013
*INDEX		=  0, 0, 0
*COUNT		=  151
3, 4, 2, 0.000000
4, 0.000000, 1.90033, 0.0996704
0.000000, 8, 0.000000, 6
0.000000, 2, 2, 2
5, 0.000000, 3, 5
2, 0.000000, 0.000000, 7
7, 5.90033, 10.0997, 2
9.90033, 1.09967, 5, 4
4, 0.000000, 4, 2
9.90033, 0.0996704, 2, 3
0.000000, 10, 2, 9
7, 2, 4, 5
0.000000, 2, 3, 6
4, 1.90033, 7, 7.09967
14, 0.000000, 7, 4
5.90033, 5.09967, 3, 7
6, 5, 8, 10
11, 7, 5, 4
15, 6, 10, 7
1.90033, 11.0997, 0.000000, 3
8, 8, 7, 2
10, 4, 0.000000, 7
8, 5, 5, 2
0.90033, 2.09967, 5, 0.000000
2, 0.000000, 7, 4
2, 5, 2, 2
0.000000, 0.000000, 1, 2
0.000000, 3, 6, 4
7, 8, 2, 0.000000
4, 2, 3, 4
4, 0.000000, 2, 6
4, 5, 3, 3
0.000000, 4.90033, 5.09967, 4
2, 0.000000, 2, 7
6, 10, 4, 0.000000
2, 2, 2, 0.000000
2, 2, 0.000000, 0.000000
3.90033, 2.09967, 3
*END

*BEGIN
*GROUP		=  0
*START		=  70
*STOP		=  85
*STEP		=  0.1
*OFFSET		=  17.0405
*SPEED		=  9.917
*SLIT_SPEC	=  0, 0.500mm, 0.5, 0.000000
*SLIT_SPEC	=  1, 0.500mm, 0.5, 0.000000
*SLIT_SPEC	=  2, 0.500mm, 0.5, 0.000000
*KV		=  40
*MA		=  30
*LOW		=  0.000000
*HIGH		=  0.000000
*CTEMPER	=  0, 0.000000
*CTEMPER	=  1, 0.000000
*CTEMPER	=  2, 0.000000
*PAREX		=  0, 0.000000
*PAREX		=  1, 0.000000
*PAREX		=  2, 0.000000
*PAREX		=  3, 0.000000
*PAREX		=  4, 0.000000
*PAREX		=  5, 0.000000
*PAREX		=  6, 0.000000
*PAREX		=  7, 0.000000
*PAREX		=  8, 0.000000
*PAREX		=  9, 0.000000
*PAREX		=  10, 0.000000
*PAREX		=  11, 0.000000
*PAREX		=  12, 0.000000
*PAREX		=  13, 0.000000
*PAREX		=  14, 0.000000
*PAREX		=  15, 0.000000
*FULL_SCALE	=  181.507
*INDEX		=  0, 0, 0
*COUNT		=  151
2, 6, 4, 2
2, 0.000000, 0.000000, 2
2, 0.000000, 6, 0.000000
2, 2.90033, 12.0997, 0.000000
0.000000, 7, 0.000000, 0.000000
2, 3, 4, 6
2, 9, 5, 0.000000
7, 0.000000, 4, 0.000000
0.000000, 0.000000, 2, 6
9, 2, 0.000000, 9
2, 2, 4, 5
8, 0.000000, 2, 7
6, 2, 2, 4
0.000000, 11, 4, 3
2, 0.000000, 9, 7
8, 4, 5, 2
9, 15, 9, 7
6, 12, 11, 15.9003
5.09967, 6, 4, 8
4, 14, 6, 11
10, 6, 10, 14
2, 0.000000, 8, 3
5, 8, 4, 3
9, 2, 5, 9
4, 5, 0.000000, 2
0.000000, 0.000000, 4, 6
0.000000, 6, 0.000000, 0.000000
0.000000, 0.000000, 1, 3
9, 4, 2, 0.000000
2, 9, 1, 2
0.000000, 2, 9, 6
2, 4, 3, 11
0.000000, 0.000000, 5, 4
0.000000, 3, 0.000000, 4
15, 2, 4, 0.000000
0.000000, 2, 2, 0.000000
4, 0.000000, 3, 5
5, 4, 0.000000
*END

*BEGIN
*GROUP		=  0
*START		=  70
*STOP		=  85
*STEP		=  0.1
*OFFSET		=  17.0906
*SPEED		=  9.917
*SLIT_SPEC	=  0, 0.500mm, 0.5, 0.000000
*SLIT_SPEC	=  1, 0.500mm, 0.5, 0.000000
*SLIT_SPEC	=  2, 0.500mm, 0.5, 0.000000
*KV		=  40
*MA		=  30
*LOW		=  0.000000
*HIGH		=  0.000000
*CTEMPER	=  0, 0.000000
*CTEMPER	=  1, 0.000000
*CTEMPER	=  2, 0.000000
*PAREX		=  0, 0.000000
*PAREX		=  1, 0.000000
*PAREX		=  2, 0.000000
*PAREX		=  3, 0.000000
*PAREX		=  4, 0.000000
*PAREX		=  5, 0.000000
*PAREX		=  6, 0.000000
*PAREX		=  7, 0.000000
*PAREX		=  8, 0.000000
*PAREX		=  9, 0.000000
*PAREX		=  10, 0.000000
*PAREX		=  11, 0.000000
*PAREX		=  12, 0.000000
*PAREX		=  13, 0.000000
*PAREX		=  14, 0.000000
*PAREX		=  15, 0.000000
*FULL_SCALE	=  48.4018
*INDEX		=  0, 0, 0
*COUNT		=  151
4, 2, 2, 2
3, 0.000000, 1, 2
0.000000, 4, 2, 4
4, 0.000000, 3.90033, 1.09967
4, 2, 0.000000, 6
4, 0.000000, 0.000000, 4
5.80066, 0.199341, 0.000000, 5
4, 0.000000, 4, 0.000000
4, 4, 5, 0.000000
4, 7, 2, 8
6, 4, 7, 4
2, 0.000000, 2, 6
5, 4, 5, 3
4, 0.000000, 7, 6
4, 2, 0.000000, 6.80066
9.09967, 3.09967, 10, 8
6, 1.90033, 6.09967, 23
18, 2, 10, 6
7, 9, 6, 2
6, 9, 11, 8
5, 14, 9, 6
6.90033, 2.09967, 12, 2
15, 8, 4, 12
9, 0.000000, 4, 9
4, 7, 6, 2
0.000000, 3, 2, 3
8, 0.000000, 10, 6
5, 4, 5, 0.000000
6.90033, 4.09967, 2, 0.000000
6, 4, 2, 8
3, 3, 2, 3.90033
7.09967, 0.000000, 5, 3
8, 2, 2, 6
4, 2, 0.000000, 2
4, 4, 2, 0.000000
0.000000, 0.000000, 3, 7
4, 4, 2, 5
6, 0.000000, 0.000000
*END

*BEGIN
*GROUP		=  0
*START		=  70
*STOP		=  85
*STEP		=  0.1
*OFFSET		=  17.1406
*SPEED		=  9.917
*SLIT_SPEC	=  0, 0.500mm, 0.5, 0.000000
*SLIT_SPEC	=  1, 0.500mm, 0.5, 0.000000
*SLIT_SPEC	=  2, 0.500mm, 0.5, 0.000000
*KV		=  40
*MA		=  30
*LOW		=  0.000000
*HIGH		=  0.000000
*CTEMPER	=  0, 0.000000
*CTEMPER	=  1, 0.000000
*CTEMPER	=  2, 0.000000
*PAREX		=  0, 0.000000
*PAREX		=  1, 0.000000
*PAREX		=  2, 0.000000
*PAREX		=  3, 0.000000
*PAREX		=  4, 0.000000
*PAREX		=  5, 0.000000
*PAREX		=  6, 0.000000
*PAREX		=  7, 0.000000
*PAREX		=  8, 0.000000
*PAREX		=  9, 0.000000
*PAREX		=  10, 0.000000
*PAREX		=  11, 0.000000
*PAREX		=  12, 0.000000
*PAREX		=  13, 0.000000
*PAREX		=  14, 0.000000
*PAREX		=  15, 0.000000
*FULL_SCALE	=  24.2009
*INDEX		=  0, 0, 0
*COUNT		=  151
0.000000, 3, 4, 4
0.000000, 0.000000, 2, 3.90033
0.0996704, 2, 0.000000, 0.000000
2, 4, 3, 4
5, 3, 0.000000, 2
2, 0.000000, 0.000000, 2
2, 2, 0.000000, 5
4, 2, 0.000000, 0.000000
1.90033, 8.09967, 4, 2
4, 0.000000, 2, 2
7, 4, 4, 4
2, 0.000000, 3, 4
2, 5, 4.90033, 4.09967
4, 5, 11, 2
2, 5, 6.90033, 6.09967
6, 6, 9.90033, 13.0997
7, 5, 14, 7
7.90033, 8.09967, 21.8007, 17.1993
16, 12, 25, 8
7, 9, 7, 8
14.9003, 5.09967, 2, 8
5, 2, 8, 2
4, 7, 4.90033, 6.09967
0.000000, 6, 4, 9
0.000000, 5, 5, 10
2, 2, 6, 0.000000
0.000000, 6, 0.000000, 2
0.000000, 6, 6, 2
2, 4, 4, 7
0.000000, 0.000000, 0.000000, 0.000000
0.000000, 2, 0.000000, 3
2, 2, 0.000000, 0.000000
0.000000, 5, 3, 0.000000
2, 0.000000, 4, 3
7, 6, 2, 2
0.000000, 0.000000, 5, 2
4, 0.000000, 7, 2
2, 2, 4
*END

*BEGIN
*GROUP		=  0
*START		=  70
*STOP		=  85
*STEP		=  0.1
*OFFSET		=  17.1906
*SPEED		=  9.917
*SLIT_SPEC	=  0, 0.500mm, 0.5, 0.000000
*SLIT_SPEC	=  1, 0.500mm, 0.5, 0.000000
*SLIT_SPEC	=  2, 0.500mm, 0.5, 0.000000
*KV		=  40
*MA		=  30
*LOW		=  0.000000
*HIGH		=  0.000000
*CTEMPER	=  0, 0.000000
*CTEMPER	=  1, 0.000000
*CTEMPER	=  2, 0.000000
*PAREX		=  0, 0.000000
*PAREX		=  1, 0.000000
*PAREX		=  2, 0.000000
*PAREX		=  3, 0.000000
*PAREX		=  4, 0.000000
*PAREX		=  5, 0.000000
*PAREX		=  6, 0.000000
*PAREX		=  7, 0.000000
*PAREX		=  8, 0.000000
*PAREX		=  9, 0.000000
*PAREX		=  10, 0.000000
*PAREX		=  11, 0.000000
*PAREX		=  12, 0.000000
*PAREX		=  13, 0.000000
*PAREX		=  14, 0.000000
*PAREX		=  15, 0.000000
*FULL_SCALE	=  24.2009
*INDEX		=  0, 0, 0
*COUNT		=  151
4, 0.000000, 3, 2
2, 4, 0.000000, 2
0.000000, 2, 2, 7.90033
2.09967, 2, 6, 2
0.000000, 0.000000, 0.000000, 5
6, 0.000000, 2, 2
2, 2, 0.000000, 2
2, 7, 2, 3
9, 4, 6, 0.000000
5, 4, 2, 8
6, 0.000000, 2, 0.000000
6, 2, 8, 4
2, 6, 8, 4
5, 0.000000, 0.000000, 0.000000
9, 9, 2, 6
4, 2, 9, 16
12, 12, 7, 5
9, 9, 12, 16
4, 7, 6, 7
9, 8, 7, 10
6, 10, 4, 7
12, 2, 2, 2
3, 8, 7, 6
11, 9, 0.000000, 9
7.90033, 2.09967, 8, 4
6, 8, 5, 4
2, 0.000000, 4, 5
0.000000, 7, 4, 8
4, 7, 0.000000, 2
6, 0.000000, 7, 2
5, 3, 0.000000, 2
2, 1, 4, 0.000000
5, 4, 2, 1
4, 0.000000, 0.000000, 0.000000
3, 3, 7, 4
3, 0.000000, 2, 4
4, 0.000000, 8, 3
0.000000, 2, 0.000000
*END

*BEGIN
*GROUP		=  0
*START		=  70
*STOP		=  85
*STEP		=  0.1
*OFFSET		=  17.2406
*SPEED		=  9.917
*SLIT_SPEC	=  0, 0.500mm, 0.5, 0.000000
*SLIT_SPEC	=  1, 0.500mm, 0.5, 0.000000
*SLIT_SPEC	=  2, 0.500mm, 0.5, 0.000000
*KV		=  40
*MA		=  30
*LOW		=  0.000000
*HIGH		=  0.000000
*CTEMPER	=  0, 0.000000
*CTEMPER	=  1, 0.000000
*CTEMPER	=  2, 0.000000
*PAREX		=  0, 0.000000
*PAREX		=  1, 0.000000
*PAREX		=  2, 0.000000
*PAREX		=  3, 0.000000
*PAREX		=  4, 0.000000
*PAREX		=  5, 0.000000
*PAREX		=  6, 0.000000
*PAREX		=  7, 0.000000
*PAREX		=  8, 0.000000
*PAREX		=  9, 0.000000
*PAREX		=  10, 0.000000
*PAREX		=  11, 0.000000
*PAREX		=  12, 0.000000
*PAREX		=  13, 0.000000
*PAREX		=  14, 0.000000
*PAREX		=  15, 0.000000
*FULL_SCALE	=  36.3013
*INDEX		=  0, 0, 0
*COUNT		=  151
2, 2, 3, 0.000000
0.000000, 3, 0.000000, 0.000000
1.90033, 6, 4.09967, 0.000000
4, 0.000000, 6, 0.000000
0.000000, 2, 1, 3
2, 5, 0.000000, 4
2, 0.000000, 0.000000, 3
0.000000, 4, 2, 0.000000
2, 5, 2.90033, 1.09967
2, 0.000000, 0.000000, 2
2, 0.000000, 0.000000, 0.000000
0.000000, 2, 2, 0.000000
5, 3, 2, 4
4, 7, 0.000000, 8
2, 0.000000, 7, 9
5, 8, 4, 8
8, 7, 17, 6
7, 21, 8, 9
11.9003, 9.09967, 14, 8
4, 7, 10.9003, 11.0997
5, 3, 4, 12
17, 11, 14, 9
9, 4, 8, 5.90033
6.09967, 9, 11, 6
5, 2, 3, 4
0.000000, 7, 3, 0.000000
0.000000, 2, 4, 0.000000
4, 6, 4, 2
0.000000, 0.000000, 4, 0.000000
4, 5.90033, 4.09967, 12
2, 0.000000, 5, 6
0.000000, 4, 0.000000, 5
6, 6, 3, 0.000000
2, 6, 2.90033, 3.09967
3, 0.000000, 0.000000, 4
2, 10, 0.000000, 0.000000
0.000000, 2, 0.000000, 3
3, 0.000000, 2
*END

*BEGIN
*GROUP		=  0
*START		=  70
*STOP		=  85
*STEP		=  0.1
*OFFSET		=  17.2905
*SPEED		=  9.917
*SLIT_SPEC	=  0, 0.500mm, 0.5, 0.000000
*SLIT_SPEC	=  1, 0.500mm, 0.5, 0.000000
*SLIT_SPEC	=  2, 0.500mm, 0.5, 0.000000
*KV		=  40
*MA		=  30
*LOW		=  0.000000
*HIGH		=  0.000000
*CTEMPER	=  0, 0.000000
*CTEMPER	=  1, 0.000000
*CTEMPER	=  2, 0.000000
*PAREX		=  0, 0.000000
*PAREX		=  1, 0.000000
*PAREX		=  2, 0.000000
*PAREX		=  3, 0.000000
*PAREX		=  4, 0.000000
*PAREX		=  5, 0.000000
*PAREX		=  6, 0.000000
*PAREX		=  7, 0.000000
*PAREX		=  8, 0.000000
*PAREX		=  9, 0.000000
*PAREX		=  10, 0.000000
*PAREX		=  11, 0.000000
*PAREX		=  12, 0.000000
*PAREX		=  13, 0.000000
*PAREX		=  14, 0.000000
*PAREX		=  15, 0.000000
*FULL_SCALE	=  36.3013
*INDEX		=  0, 0, 0
*COUNT		=  151
5, 0.000000, 2, 4
5, 0.000000, 10, 0.000000
0.000000, 0.000000, 4, 4
2, 6, 2, 2
4, 2, 2, 8
0.000000, 11, 0.000000, 2
2, 0.000000, 2, 2
0.000000, 0.000000, 6, 4
5, 4, 2, 2
0.000000, 4, 3, 4
4, 2, 9, 2
7, 2, 5, 3
4, 5, 2, 6
8, 2, 6, 6
6, 6, 6, 4
5, 3, 5, 8
9, 12, 11, 5.90033
10.0997, 9, 12, 15
8, 9, 19, 12
7.90033, 12.0997, 4, 10
5, 9, 10, 3
6, 4, 4, 4
6, 7, 5.90033, 6.09967
12, 3, 2, 2
0.000000, 0.000000, 4, 5
3, 5, 2, 2
8, 0.000000, 5, 2
4, 4, 2, 2
2, 4, 2, 6
6, 2, 0.000000, 2
0.000000, 1.90033, 5.09967, 0.000000
2, 5, 4, 3
4, 0.000000, 4, 2
7, 0.000000, 8.90033, 2.09967
0.000000, 0.000000, 0.000000, 0.000000
6, 3, 7, 3.90033
5.09967, 2, 2, 2
2, 0.000000, 2
*END

*BEGIN
*GROUP		=  0
*START		=  70
*STOP		=  85
*STEP		=  0.1
*OFFSET		=  17.3406
*SPEED		=  9.917
*SLIT_SPEC	=  0, 0.500mm, 0.5, 0.000000
*SLIT_SPEC	=  1, 0.500mm, 0.5, 0.000000
*SLIT_SPEC	=  2, 0.500mm, 0.5, 0.000000
*KV		=  40
*MA		=  30
*LOW		=  0.000000
*HIGH		=  0.000000
*CTEMPER	=  0, 0.000000
*CTEMPER	=  1, 0.000000
*CTEMPER	=  2, 0.000000
*PAREX		=  0, 0.000000
*PAREX		=  1, 0.000000
*PAREX		=  2, 0.000000
*PAREX		=  3, 0.000000
*PAREX		=  4, 0.000000
*PAREX		=  5, 0.000000
*PAREX		=  6, 0.000000
*PAREX		=  7, 0.000000
*PAREX		=  8, 0.000000
*PAREX		=  9, 0.000000
*PAREX		=  10, 0.000000
*PAREX		=  11, 0.000000
*PAREX		=  12, 0.000000
*PAREX		=  13, 0.000000
*PAREX		=  14, 0.000000
*PAREX		=  15, 0.000000
*FULL_SCALE	=  24.2009
*INDEX		=  0, 0, 0
*COUNT		=  151
6, 0.000000, 0.000000, 0.000000
2, 0.000000, 2, 0.000000
0.000000, 2, 0.000000, 0.000000
0.000000, 0.000000, 0.000000, 0.000000
2, 3, 0.000000, 2
2, 0.000000, 4, 3
0.000000, 4, 2, 0.000000
4, 1, 2, 7
2, 0.000000, 6, 5
2, 2, 2, 0.000000
5, 2, 2, 0.000000
9, 3, 0.000000, 2
0.000000, 4, 4, 6
4.90033, 8.09967, 4, 2
6, 7, 8, 4
9, 15, 17, 6
7, 15, 10, 7
9, 13, 0.000000, 10
17, 11, 6, 16
11, 11, 8.90033, 3.09967
14, 7, 7, 8
8, 2, 2, 7
5, 7, 8, 2.90033
5.09967, 6, 11, 4
7, 2, 6, 2
0.000000, 2.90033, 7.09967, 4
6, 8, 4, 3
4, 2, 0.000000, 0.000000
2, 0.000000, 2, 5
4, 6, 0.000000, 4
4, 4, 2, 2
5, 4, 2, 0.000000
2, 4, 2, 4
0.000000, 2, 0.000000, 2
0.000000, 2, 2, 3
0.000000, 4, 0.000000, 2
6, 0.000000, 2, 4
2, 0.000000, 5
*END

*BEGIN
*GROUP		=  0
*START		=  70
*STOP		=  85
*STEP		=  0.1
*OFFSET		=  17.3906
*SPEED		=  9.917
*SLIT_SPEC	=  0, 0.500mm, 0.5, 0.000000
*SLIT_SPEC	=  1, 0.500mm, 0.5, 0.000000
*SLIT_SPEC	=  2, 0.500mm, 0.5, 0.000000
*KV		=  40
*MA		=  30
*LOW		=  0.000000
*HIGH		=  0.000000
*CTEMPER	=  0, 0.000000
*CTEMPER	=  1, 0.000000
*CTEMPER	=  2, 0.000000
*PAREX		=  0, 0.000000
*PAREX		=  1, 0.000000
*PAREX		=  2, 0.000000
*PAREX		=  3, 0.000000
*PAREX		=  4, 0.000000
*PAREX		=  5, 0.000000
*PAREX		=  6, 0.000000
*PAREX		=  7, 0.000000
*PAREX		=  8, 0.000000
*PAREX		=  9, 0.000000
*PAREX		=  10, 0.000000
*PAREX		=  11, 0.000000
*PAREX		=  12, 0.000000
*PAREX		=  13, 0.000000
*PAREX		=  14, 0.000000
*PAREX		=  15, 0.000000
*FULL_SCALE	=  36.3013
*INDEX		=  0, 0, 0
*COUNT		=  151
5, 0.000000, 0.000000, 6
3, 0.000000, 9, 4
0.000000, 2, 8, 2
2, 4, 6, 2
2, 4, 0.000000, 2
0.000000, 3, 0.000000, 4
0.000000, 4, 2, 0.000000
5, 0.000000, 2, 0.000000
4, 0.000000, 3, 0.000000
2, 4, 10, 4
5, 4, 7, 2
2, 3, 0.000000, 0.000000
2, 6, 3, 2
7.90033, 2.09967, 12, 3
2, 5, 3.80066, 5.19934
8, 9, 4, 5
5, 6, 9, 8
12, 7, 13, 6
14.9003, 15.0997, 25, 11
8, 27, 9, 10
17, 6.90033, 14.0997, 7
8, 2, 9, 8
4, 6, 6, 2
0.000000, 5, 0.000000, 4
0.000000, 3, 5, 7
2, 2, 5, 8
3, 4, 2, 2
4, 2, 2, 4
4, 2, 6, 0.000000
6, 13, 0.000000, 2
7, 2, 0.000000, 2
2, 0.000000, 0.000000, 2
7, 2, 5, 2
2, 3, 5, 4
0.000000, 2, 0.000000, 2
0.000000, 0.000000, 6, 2
0.000000, 4, 0.000000, 3
2, 0.000000, 3
*END

*BEGIN
*GROUP		=  0
*START		=  70
*STOP		=  85
*STEP		=  0.1
*OFFSET		=  17.4406
*SPEED		=  9.917
*SLIT_SPEC	=  0, 0.500mm, 0.5, 0.000000
*SLIT_SPEC	=  1, 0.500mm, 0.5, 0.000000
*SLIT_SPEC	=  2, 0.500mm, 0.5, 0.000000
*KV		=  40
*MA		=  30
*LOW		=  0.000000
*HIGH		=  0.000000
*CTEMPER	=  0, 0.000000
*CTEMPER	=  1, 0.000000
*CTEMPER	=  2, 0.000000
*PAREX		=  0, 0.000000
*PAREX		=  1, 0.000000
*PAREX		=  2, 0.000000
*PAREX		=  3, 0.000000
*PAREX		=  4, 0.000000
*PAREX		=  5, 0.000000
*PAREX		=  6, 0.000000
*PAREX		=  7, 0.000000
*PAREX		=  8, 0.000000
*PAREX		=  9, 0.000000
*PAREX		=  10, 0.000000
*PAREX		=  11, 0.000000
*PAREX		=  12, 0.000000
*PAREX		=  13, 0.000000
*PAREX		=  14, 0.000000
*PAREX		=  15, 0.000000
*FULL_SCALE	=  36.3013
*INDEX		=  0, 0, 0
*COUNT		=  151
2, 0.000000, 0.000000, 2
2, 4, 2, 0.000000
6, 0.000000, 2, 4
0.000000, 7, 4, 7
0.000000, 0.000000, 0.000000, 0.000000
3, 4, 2, 7
4, 6, 0.000000, 1
2, 0.000000, 0.000000, 4
2, 2, 4, 0.000000
2, 8, 4, 4
0.000000, 7, 6, 0.000000
6, 5, 4, 2
5, 2, 5, 2
5, 2, 6, 6
3, 0.000000, 2, 2
6, 6, 6, 10
8, 13, 12, 18
8, 16, 19, 10
17, 17, 7, 26.9003
21.0997, 15, 14, 8
6, 9, 4, 7
8, 4, 10, 9
9, 8, 2, 5.90033
5.09967, 0.000000, 5, 2
5, 6, 6.90033, 4.09967
6, 7, 4, 8
0.000000, 0.000000, 2, 2
0.000000, 0.000000, 2, 0.000000
6, 5, 2, 6
2, 3.80066, 2.19934, 4
8, 5, 4, 6
6, 0.000000, 7, 0.000000
2, 0.000000, 5, 2
0.000000, 0.000000, 4, 0.000000
6, 8, 2, 0.000000
6, 2, 0.000000, 2
0.000000, 2, 0.000000, 4
2, 0.000000, 2
*END

*BEGIN
*GROUP		=  0
*START		=  70
*STOP		=  85
*STEP		=  0.1
*OFFSET		=  17.4906
*SPEED		=  9.917
*SLIT_SPEC	=  0, 0.500mm, 0.5, 0.000000
*SLIT_SPEC	=  1, 0.500mm, 0.5, 0.000000
*SLIT_SPEC	=  2, 0.500mm, 0.5, 0.000000
*KV		=  40
*MA		=  30
*LOW		=  0.000000
*HIGH		=  0.000000
*CTEMPER	=  0, 0.000000
*CTEMPER	=  1, 0.000000
*CTEMPER	=  2, 0.000000
*PAREX		=  0, 0.000000
*PAREX		=  1, 0.000000
*PAREX		=  2, 0.000000
*PAREX		=  3, 0.000000
*PAREX		=  4, 0.000000
*PAREX		=  5, 0.000000
*PAREX		=  6, 0.000000
*PAREX		=  7, 0.000000
*PAREX		=  8, 0.000000
*PAREX		=  9, 0.000000
*PAREX		=  10, 0.000000
*PAREX		=  11, 0.000000
*PAREX		=  12, 0.000000
*PAREX		=  13, 0.000000
*PAREX		=  14, 0.000000
*PAREX		=  15, 0.000000
*FULL_SCALE	=  36.3013
*INDEX		=  0, 0, 0
*COUNT		=  151
0.000000, 4, 3, 2
0.000000, 2, 4, 9
2, 3, 2, 0.000000
0.000000, 2, 0.000000, 2
0.000000, 4, 5, 0.000000
0.000000, 0.000000, 10, 4
0.000000, 0.000000, 2, 0.000000
0.000000, 0.000000, 2, 2
6, 3, 0.000000, 0.000000
2, 2, 3, 7
6, 0.000000, 2, 6
6, 7, 2, 4
2, 4, 5, 11
2, 2, 0.000000, 6
11, 2, 13, 0.000000
4, 4, 21, 10
9, 13, 10, 5
16, 16, 6, 14.9003
11.0997, 15, 7, 8
23, 6, 17, 8.90033
12.0997, 6, 7, 8
7, 19, 11, 2.90033
5.09967, 5, 11, 11
2, 2, 2, 2
2, 13, 6, 0.000000
7, 7, 0.000000, 2
3, 2, 0.000000, 2
2, 0.000000, 2, 6
9, 5, 0.000000, 3
4, 2, 9, 0.000000
3, 2, 4, 0.000000
2, 0.000000, 2, 6
0.000000, 4, 0.000000, 4
5, 0.000000, 2, 4
4, 0.000000, 2, 0.000000
0.000000, 0.000000, 1, 4
0.000000, 2, 0.000000, 2
0.000000, 2, 2
*END

*BEGIN
*GROUP		=  0
*START		=  70
*STOP		=  85
*STEP		=  0.1
*OFFSET		=  17.5405
*SPEED		=  9.917
*SLIT_SPEC	=  0, 0.500mm, 0.5, 0.000000
*SLIT_SPEC	=  1, 0.500mm, 0.5, 0.000000
*SLIT_SPEC	=  2, 0.500mm, 0.5, 0.000000
*KV		=  40
*MA		=  30
*LOW		=  0.000000
*HIGH		=  0.000000
*CTEMPER	=  0, 0.000000
*CTEMPER	=  1, 0.000000
*CTEMPER	=  2, 0.000000
*PAREX		=  0, 0.000000
*PAREX		=  1, 0.000000
*PAREX		=  2, 0.000000
*PAREX		=  3, 0.000000
*PAREX		=  4, 0.000000
*PAREX		=  5, 0.000000
*PAREX		=  6, 0.000000
*PAREX		=  7, 0.000000
*PAREX		=  8, 0.000000
*PAREX		=  9, 0.000000
*PAREX		=  10, 0.000000
*PAREX		=  11, 0.000000
*PAREX		=  12, 0.000000
*PAREX		=  13, 0.000000
*PAREX		=  14, 0.000000
*PAREX		=  15, 0.000000
*FULL_SCALE	=  36.3013
*INDEX		=  0, 0, 0
*COUNT		=  151
3, 0.000000, 0.000000, 0.000000
2, 4, 5, 3
0.000000, 0.000000, 0.000000, 6
0.000000, 5, 2, 2
3, 0.000000, 0.000000, 0.000000
0.000000, 0.000000, 6, 2
0.000000, 2, 4, 6.90033
9.09967, 2, 2, 4
0.000000, 0.000000, 2, 2
4, 2, 2, 3
4, 0.000000, 0.000000, 0.000000
4, 2, 2, 6
4, 2, 7, 4
4, 2, 0.000000, 10
5, 5, 5, 4
0.000000, 10, 15, 12
5, 7, 6, 11
16, 9.80066, 17.1993, 24.9003
19.0997, 15, 23.9003, 18.0997
10, 20, 4, 3
12, 12, 8, 4
10, 23, 13, 6
2, 14, 2, 5
4, 3, 5, 13.9003
5.09967, 2, 4, 7
4, 2, 4, 6
4, 2, 2, 11
6, 2, 4, 4
6, 7, 0.000000, 0.000000
1, 4, 7, 5.90033
4.09967, 0.000000, 0.000000, 0.000000
0.000000, 3, 2, 8
0.000000, 0.000000, 0.000000, 6
2, 2, 4, 3
0.000000, 4, 4, 6
2, 4, 6, 6
1.90033, 3.09967, 9, 0.000000
4, 4, 6
*END

*BEGIN
*GROUP		=  0
*START		=  70
*STOP		=  85
*STEP		=  0.1
*OFFSET		=  17.5906
*SPEED		=  9.917
*SLIT_SPEC	=  0, 0.500mm, 0.5, 0.000000
*SLIT_SPEC	=  1, 0.500mm, 0.5, 0.000000
*SLIT_SPEC	=  2, 0.500mm, 0.5, 0.000000
*KV		=  40
*MA		=  30
*LOW		=  0.000000
*HIGH		=  0.000000
*CTEMPER	=  0, 0.000000
*CTEMPER	=  1, 0.000000
*CTEMPER	=  2, 0.000000
*PAREX		=  0, 0.000000
*PAREX		=  1, 0.000000
*PAREX		=  2, 0.000000
*PAREX		=  3, 0.000000
*PAREX		=  4, 0.000000
*PAREX		=  5, 0.000000
*PAREX		=  6, 0.000000
*PAREX		=  7, 0.000000
*PAREX		=  8, 0.000000
*PAREX		=  9, 0.000000
*PAREX		=  10, 0.000000
*PAREX		=  11, 0.000000
*PAREX		=  12, 0.000000
*PAREX		=  13, 0.000000
*PAREX		=  14, 0.000000
*PAREX		=  15, 0.000000
*FULL_SCALE	=  60.5022
*INDEX		=  0, 0, 0
*COUNT		=  151
0.000000, 0.000000, 2, 2
0.000000, 0.000000, 0.000000, 0.000000
0.000000, 7, 2, 2
3, 2, 0.000000, 7
2, 0.000000, 5, 6
0.000000, 2, 0.000000, 2
3, 4, 0.000000, 5
2, 3, 2, 0.90033
3.09967, 2, 0.000000, 3
2, 0.000000, 2.90033, 3.09967
0.000000, 3, 0.000000, 4
4, 2, 5, 9
2, 4, 3, 7
3, 8, 7, 8
5, 5, 7, 8
6, 15, 4, 7
11.9003, 12.0997, 20, 12
9.90033, 20.0997, 37, 24
28, 8, 13, 15
11, 16, 14.9003, 8.09967
10, 21, 8, 7
6, 3, 7, 4
4, 8, 9, 7
12, 3, 4, 9
2, 2, 2, 5
6, 5, 8, 2
5, 2, 2, 0.000000
0.000000, 2, 0.000000, 2
0.000000, 2, 4, 0.000000
0.000000, 2, 7, 5
4, 3, 0.000000, 2
0.000000, 4, 0.000000, 2
7.90033, 2.09967, 2, 0.000000
5, 2, 0.000000, 0.000000
6, 2, 2, 7
0.000000, 2, 0.000000, 5
2, 0.000000, 2, 2
4, 0.000000, 8
*END

*BEGIN
*GROUP		=  0
[...]
*CTEMPER	=  0, 0.000000
*CTEMPER	=  1, 0.000000
*CTEMPER	=  2, 0.000000
*PAREX		=  0, 0.000000
*PAREX		=  1, 0.000000
*PAREX		=  2, 0.000000
*PAREX		=  3, 0.000000
*PAREX		=  4, 0.000000
*PAREX		=  5, 0.000000
*PAREX		=  6, 0.000000
*PAREX		=  7, 0.000000
*PAREX		=  8, 0.000000
*PAREX		=  9, 0.000000
*PAREX		=  10, 0.000000
*PAREX		=  11, 0.000000
*PAREX		=  12, 0.000000
*PAREX		=  13, 0.000000
*PAREX		=  14, 0.000000
*PAREX		=  15, 0.000000
*FULL_SCALE	=  36.3013
*INDEX		=  0, 0, 0
*COUNT		=  151
0.000000, 5, 2, 0.000000
3, 2, 2, 0.000000
3, 4, 4.80066, 2.19934
0.000000, 6, 2, 0.000000
7, 0.000000, 2, 0.000000
5, 2, 2, 4
7, 2, 2, 0.000000
4, 0.000000, 0.000000, 0.000000
0.000000, 2, 0.000000, 2
2, 4, 2, 4
0.000000, 0.000000, 0.000000, 2
2, 2, 9.90033, 2.09967
2, 7, 3, 4
5, 3, 6, 9
0.000000, 4, 3, 8.90033
4.09967, 4, 6, 5
8.90033, 13.0997, 4, 8.90033
4.09967, 2, 10, 5
5, 9, 10, 8.90033
6.09967, 6, 7, 5
10, 10, 15, 5
5, 3, 11, 10
6, 2, 0.000000, 4
4, 3, 2, 2
5, 4.90033, 5.09967, 3
7, 2, 3, 6
6, 0.000000, 0.000000, 2
0.000000, 0.000000, 7, 0.000000
0.000000, 3, 3.80066, 8.09967
2.09967, 6, 2, 2
3, 4, 0.000000, 2
2, 7, 5, 0.000000
2, 0.000000, 6, 1
4, 8, 0.000000, 6.90033
3.09967, 6, 0.000000, 2
0.000000, 0.000000, 5, 5
3.90033, 0.0996704, 2, 5
4, 4, 4
*END

*BEGIN
*GROUP		=  0
*START		=  70
*STOP		=  85
*STEP		=  0.1
*OFFSET		=  19.7905
*SPEED		=  9.917
*SLIT_SPEC	=  0, 0.500mm, 0.5, 0.000000
*SLIT_SPEC	=  1, 0.500mm, 0.5, 0.000000
*SLIT_SPEC	=  2, 0.500mm, 0.5, 0.000000
*KV		=  40
*MA		=  30
*LOW		=  0.000000
*HIGH		=  0.000000
*CTEMPER	=  0, 0.000000
*CTEMPER	=  1, 0.000000
*CTEMPER	=  2, 0.000000
*PAREX		=  0, 0.000000
*PAREX		=  1, 0.000000
*PAREX		=  2, 0.000000
*PAREX		=  3, 0.000000
*PAREX		=  4, 0.000000
*PAREX		=  5, 0.000000
*PAREX		=  6, 0.000000
*PAREX		=  7, 0.000000
*PAREX		=  8, 0.000000
*PAREX		=  9, 0.000000
*PAREX		=  10, 0.000000
*PAREX		=  11, 0.000000
*PAREX		=  12, 0.000000
*PAREX		=  13, 0.000000
*PAREX		=  14, 0.000000
*PAREX		=  15, 0.000000
*FULL_SCALE	=  36.3013
*INDEX		=  0, 0, 0
*COUNT		=  151
0.000000, 7, 0.000000, 2
0.000000, 0.000000, 0.000000, 3
2, 2, 1.90033, 4.09967
0.000000, 0.000000, 0.000000, 4
4, 2, 0.000000, 0.000000
2, 0.000000, 2, 2
3, 6, 0.000000, 2
5, 3, 0.000000, 0.000000
2, 0.000000, 0.000000, 2
0.000000, 2, 4, 0.000000
7, 8, 4, 4
7, 4, 8, 2
0.000000, 3.90033, 1.09967, 8
0.000000, 2.90033, 0.0996704, 5
8, 4, 2, 5
2, 5, 9, 10
11, 5, 5, 8
7, 6, 0.000000, 3
4, 6, 3, 4
2, 2, 5, 7
5, 0.000000, 7, 2
3, 0.000000, 8, 6
2, 4, 4, 5
0.000000, 4, 0.000000, 6
6, 8, 2, 3
0.000000, 4, 6, 5
11, 5, 3, 3
4, 4, 0.000000, 4
2, 0.000000, 4, 0.000000
0.000000, 0.000000, 2, 0.000000
2, 0.000000, 4, 0.000000
0.000000, 2, 6, 2
0.000000, 3, 4, 4
6, 2, 0.000000, 0.000000
4, 0.000000, 4, 3
0.000000, 3, 1.90033, 3.09967
4, 0.000000, 0.000000, 6
4, 0.000000, 0.000000
*END

*BEGIN
*GROUP		=  0
*START		=  70
*STOP		=  85
*STEP		=  0.1
*OFFSET		=  19.8405
*SPEED		=  9.917
*SLIT_SPEC	=  0, 0.500mm, 0.5, 0.000000
*SLIT_SPEC	=  1, 0.500mm, 0.5, 0.000000
*SLIT_SPEC	=  2, 0.500mm, 0.5, 0.000000
*KV		=  40
*MA		=  30
*LOW		=  0.000000
*HIGH		=  0.000000
*CTEMPER	=  0, 0.000000
*CTEMPER	=  1, 0.000000
*CTEMPER	=  2, 0.000000
*PAREX		=  0, 0.000000
*PAREX		=  1, 0.000000
*PAREX		=  2, 0.000000
*PAREX		=  3, 0.000000
*PAREX		=  4, 0.000000
*PAREX		=  5, 0.000000
*PAREX		=  6, 0.000000
*PAREX		=  7, 0.000000
*PAREX		=  8, 0.000000
*PAREX		=  9, 0.000000
*PAREX		=  10, 0.000000
*PAREX		=  11, 0.000000
*PAREX		=  12, 0.000000
*PAREX		=  13, 0.000000
*PAREX		=  14, 0.000000
*PAREX		=  15, 0.000000
*FULL_SCALE	=  48.4018
*INDEX		=  0, 0, 0
*COUNT		=  151
3, 0.000000, 3, 0.000000
4, 2, 6, 4
0.000000, 0.000000, 0.000000, 2
2, 2, 0.000000, 7
0.000000, 0.000000, 2, 0.000000
4, 4, 3, 4
4, 0.000000, 2, 2
0.000000, 0.000000, 6, 2.90033
3.09967, 0.000000, 0.000000, 2
2, 3, 2, 6
4, 3, 2, 3
0.000000, 7, 4, 0.000000
2, 0.90033, 1.09967, 0.000000
5, 4, 8, 4
10, 0.000000, 4, 2
10, 6, 6, 4
8, 0.000000, 13, 12
0.000000, 4, 9, 10
10.9003, 2.09967, 2, 4
9, 2, 4, 7
8, 0.000000, 4, 7
9, 4, 3, 4
5, 10, 9, 2
3, 3, 5, 2
0.000000, 8, 5, 3
0.000000, 2, 6, 5
0.000000, 2, 0.000000, 2
2, 0.000000, 4, 2
0.000000, 4, 8, 4
0.000000, 2, 0.000000, 0.000000
2, 7, 0.000000, 10
2, 0.000000, 0.000000, 0.000000
3, 3, 2, 0.000000
0.000000, 6, 2, 2
4, 4, 0.000000, 0.000000
2, 0.000000, 2, 4
0.000000, 9, 0.000000, 5.90033
6.09967, 5, 1
*END

*BEGIN
*GROUP		=  0
*START		=  70
*STOP		=  85
*STEP		=  0.1
*OFFSET		=  19.8905
*SPEED		=  9.917
*SLIT_SPEC	=  0, 0.500mm, 0.5, 0.000000
*SLIT_SPEC	=  1, 0.500mm, 0.5, 0.000000
*SLIT_SPEC	=  2, 0.500mm, 0.5, 0.000000
*KV		=  40
*MA		=  30
*LOW		=  0.000000
*HIGH		=  0.000000
*CTEMPER	=  0, 0.000000
*CTEMPER	=  1, 0.000000
*CTEMPER	=  2, 0.000000
*PAREX		=  0, 0.000000
*PAREX		=  1, 0.000000
*PAREX		=  2, 0.000000
*PAREX		=  3, 0.000000
*PAREX		=  4, 0.000000
*PAREX		=  5, 0.000000
*PAREX		=  6, 0.000000
*PAREX		=  7, 0.000000
*PAREX		=  8, 0.000000
*PAREX		=  9, 0.000000
*PAREX		=  10, 0.000000
*PAREX		=  11, 0.000000
*PAREX		=  12, 0.000000
*PAREX		=  13, 0.000000
*PAREX		=  14, 0.000000
*PAREX		=  15, 0.000000
*FULL_SCALE	=  24.2009
*INDEX		=  0, 0, 0
*COUNT		=  151
4, 0.000000, 8, 2.80066
2.19934, 5, 2, 4
0.000000, 2, 0.000000, 2
5.90033, 1.09967, 0.000000, 2
0.000000, 2, 2, 0.90033
1.09967, 0.000000, 4.90033, 6.09967
2, 4, 4, 0.000000
2, 0.000000, 0.000000, 5
0.000000, 0.000000, 6, 0.000000
4, 2, 0.000000, 2
5, 2, 5, 7
0.000000, 0.000000, 2, 3
2, 0.000000, 0.000000, 4
4, 2, 0.000000, 2
2, 5, 4, 2
2, 4, 4, 0.000000
2, 5, 4, 0.000000
7, 8, 2, 6
3, 10, 12, 9
6, 11, 8, 7
0.000000, 0.000000, 8, 3
12, 0.90033, 6.09967, 4
13, 2, 2, 0.000000
2, 2, 0.000000, 2
2, 6, 3, 3
0.000000, 16, 2, 2
2, 0.000000, 0.000000, 2
2, 5, 2, 3
2, 0.90033, 5, 4.09967
0.000000, 2, 5, 2
0.000000, 2, 0.000000, 2
0.000000, 2, 3, 0.000000
5, 0.000000, 6, 2
4, 2, 4, 10
2, 4, 2, 4
0.000000, 0.000000, 0.000000, 5
4, 2, 2, 8
4, 2, 0.000000
*END

*BEGIN
*GROUP		=  0
*START		=  70
*STOP		=  85
*STEP		=  0.1
*OFFSET		=  19.9405
*SPEED		=  9.917
*SLIT_SPEC	=  0, 0.500mm, 0.5, 0.000000
*SLIT_SPEC	=  1, 0.500mm, 0.5, 0.000000
*SLIT_SPEC	=  2, 0.500mm, 0.5, 0.000000
*KV		=  40
*MA		=  30
*LOW		=  0.000000
*HIGH		=  0.000000
*CTEMPER	=  0, 0.000000
*CTEMPER	=  1, 0.000000
*CTEMPER	=  2, 0.000000
*PAREX		=  0, 0.000000
*PAREX		=  1, 0.000000
*PAREX		=  2, 0.000000
*PAREX		=  3, 0.000000
*PAREX		=  4, 0.000000
*PAREX		=  5, 0.000000
*PAREX		=  6, 0.000000
*PAREX		=  7, 0.000000
*PAREX		=  8, 0.000000
*PAREX		=  9, 0.000000
*PAREX		=  10, 0.000000
*PAREX		=  11, 0.000000
*PAREX		=  12, 0.000000
*PAREX		=  13, 0.000000
*PAREX		=  14, 0.000000
*PAREX		=  15, 0.000000
*FULL_SCALE	=  24.2009
*INDEX		=  0, 0, 0
*COUNT		=  151
0.000000, 1, 4, 0.000000
2, 0.000000, 2, 2
0.000000, 0.000000, 0.000000, 2
2, 0.000000, 0.000000, 4
6, 0.000000, 0.000000, 2
2, 5, 2, 4
0.000000, 9, 5, 4
0.000000, 0.000000, 0.000000, 5
0.000000, 6, 2, 0.000000
0.000000, 7, 2, 9
9, 2, 6, 0.000000
3, 2, 4, 10
2, 12, 0.000000, 2
2, 2, 4, 4
4, 4, 6, 0.000000
8, 5, 5, 2
2, 9, 6, 9
5, 2, 10, 4
3, 6, 0.000000, 5
4, 3, 2, 4
10, 5, 9, 8
10, 7, 4, 6
1, 7, 9, 2
6, 2, 2, 6
2, 10, 5, 0.000000
0.000000, 0.000000, 4, 6.90033
0.0996704, 9, 2, 2.90033
4.09967, 3, 0.000000, 7
0.000000, 6, 2, 2
5, 4, 0.000000, 4
2, 0.000000, 0.000000, 7
0.000000, 0.000000, 0.000000, 3
0.000000, 2, 0.000000, 9
0.000000, 4, 2, 2
3, 0.000000, 0.000000, 0.000000
4, 2, 4, 2
4, 3, 2, 0.000000
3, 0.000000, 2
*END

*BEGIN
*GROUP		=  0
*START		=  70
*STOP		=  85
*STEP		=  0.1
*OFFSET		=  19.9905
*SPEED		=  9.917
*SLIT_SPEC	=  0, 0.500mm, 0.5, 0.000000
*SLIT_SPEC	=  1, 0.500mm, 0.5, 0.000000
*SLIT_SPEC	=  2, 0.500mm, 0.5, 0.000000
*KV		=  40
*MA		=  30
*LOW		=  0.000000
*HIGH		=  0.000000
*CTEMPER	=  0, 0.000000
*CTEMPER	=  1, 0.000000
*CTEMPER	=  2, 0.000000
*PAREX		=  0, 0.000000
*PAREX		=  1, 0.000000
*PAREX		=  2, 0.000000
*PAREX		=  3, 0.000000
*PAREX		=  4, 0.000000
*PAREX		=  5, 0.000000
*PAREX		=  6, 0.000000
*PAREX		=  7, 0.000000
*PAREX		=  8, 0.000000
*PAREX		=  9, 0.000000
*PAREX		=  10, 0.000000
*PAREX		=  11, 0.000000
*PAREX		=  12, 0.000000
*PAREX		=  13, 0.000000
*PAREX		=  14, 0.000000
*PAREX		=  15, 0.000000
*FULL_SCALE	=  48.4018
*INDEX		=  0, 0, 0
*COUNT		=  151
0.000000, 5, 5, 2
0.000000, 0.000000, 0.000000, 8
0.000000, 2, 6, 0.000000
0.000000, 2, 3, 0.000000
4, 3, 2, 4
3, 6, 4, 2
2, 0.000000, 0.000000, 0.000000
4, 2, 6, 0.000000
2, 8, 2, 8
6, 4, 2, 4
2, 4, 4, 2
5, 2, 0.000000, 0.000000
5, 0.000000, 3, 7
4, 0.000000, 2, 0.000000
8, 4, 0.000000, 6
2, 0.000000, 7, 3
4, 4, 6, 0.000000
2, 2, 4, 9
7, 7, 14, 4
6, 9, 0.000000, 7
3.90033, 14.0997, 2, 11
6, 9, 6, 4
2, 4, 9, 1
2, 7, 6, 4
2, 0.000000, 3, 3
5, 2, 9, 9
2, 7, 2, 4
0.000000, 4, 2, 3
5, 3, 5, 3
0.000000, 4, 1.80066, 3.19934
2, 2, 2, 2
5, 0.000000, 2, 8
5, 0.000000, 0.000000, 5
2, 0.000000, 2, 0.000000
0.000000, 0.000000, 3, 6
0.000000, 0.000000, 2, 0.000000
2, 0.000000, 0.000000, 2.90033
1.09967, 2, 2
*END

*BEGIN
*GROUP		=  0
*START		=  70
*STOP		=  85
*STEP		=  0.1
*OFFSET		=  20.0405
*SPEED		=  9.917
*SLIT_SPEC	=  0, 0.500mm, 0.5, 0.000000
*SLIT_SPEC	=  1, 0.500mm, 0.5, 0.000000
*SLIT_SPEC	=  2, 0.500mm, 0.5, 0.000000
*KV		=  40
*MA		=  30
*LOW		=  0.000000
*HIGH		=  0.000000
*CTEMPER	=  0, 0.000000
*CTEMPER	=  1, 0.000000
*CTEMPER	=  2, 0.000000
*PAREX		=  0, 0.000000
*PAREX		=  1, 0.000000
*PAREX		=  2, 0.000000
*PAREX		=  3, 0.000000
*PAREX		=  4, 0.000000
*PAREX		=  5, 0.000000
*PAREX		=  6, 0.000000
*PAREX		=  7, 0.000000
*PAREX		=  8, 0.000000
*PAREX		=  9, 0.000000
*PAREX		=  10, 0.000000
*PAREX		=  11, 0.000000
*PAREX		=  12, 0.000000
*PAREX		=  13, 0.000000
*PAREX		=  14, 0.000000
*PAREX		=  15, 0.000000
*FULL_SCALE	=  24.2009
*INDEX		=  0, 0, 0
*COUNT		=  151
0.000000, 0.000000, 2, 3
0.000000, 0.000000, 0.000000, 0.000000
0.000000, 5, 6, 0.000000
2, 2, 2, 2
4, 2, 0.000000, 2
0.000000, 2, 3, 3
0.000000, 0.000000, 4, 0.000000
6, 0.000000, 5, 2
3, 0.000000, 2, 2
2, 6, 3, 2
0.000000, 3, 0.000000, 5
2, 0.000000, 3, 4
4, 0.000000, 2, 8
0.90033, 1.09967, 2, 6
0.000000, 2, 4, 4
2, 4, 2, 8
2, 5, 6, 9
4, 7, 7, 2
8, 2, 0.000000, 0.000000
4, 8, 2, 2
10, 6, 4, 2
2, 3, 10, 6
0.000000, 8, 2, 7
2, 0.000000, 0.000000, 2
4, 2, 4, 0.000000
0.000000, 4, 0.000000, 7
4, 0.000000, 4, 3
5, 0.000000, 0.000000, 8
4, 0.000000, 3, 0.000000
1, 3.90033, 0.0996704, 0.000000
0.000000, 0.000000, 0.000000, 3
0.000000, 6.90033, 2.09967, 5
0.000000, 2, 2, 0.000000
0.000000, 2, 0.000000, 4
2, 0.000000, 0.000000, 0.000000
1, 2, 0.000000, 0.000000
0.000000, 0.000000, 3, 2
0.000000, 0.000000, 0.000000
*END

*BEGIN
*GROUP		=  0
*START		=  70
*STOP		=  85
*STEP		=  0.1
*OFFSET		=  20.0905
*SPEED		=  9.917
*SLIT_SPEC	=  0, 0.500mm, 0.5, 0.000000
*SLIT_SPEC	=  1, 0.500mm, 0.5, 0.000000
*SLIT_SPEC	=  2, 0.500mm, 0.5, 0.000000
*KV		=  40
*MA		=  30
*LOW		=  0.000000
*HIGH		=  0.000000
*CTEMPER	=  0, 0.000000
*CTEMPER	=  1, 0.000000
*CTEMPER	=  2, 0.000000
*PAREX		=  0, 0.000000
*PAREX		=  1, 0.000000
*PAREX		=  2, 0.000000
*PAREX		=  3, 0.000000
*PAREX		=  4, 0.000000
*PAREX		=  5, 0.000000
*PAREX		=  6, 0.000000
*PAREX		=  7, 0.000000
*PAREX		=  8, 0.000000
*PAREX		=  9, 0.000000
*PAREX		=  10, 0.000000
*PAREX		=  11, 0.000000
*PAREX		=  12, 0.000000
*PAREX		=  13, 0.000000
*PAREX		=  14, 0.000000
*PAREX		=  15, 0.000000
*FULL_SCALE	=  24.2009
*INDEX		=  0, 0, 0
*COUNT		=  151
2, 2, 2, 0.000000
0.000000, 0.000000, 0.000000, 2
1.90033, 2.09967, 2, 0.000000
2, 2, 0.000000, 5
4, 2, 2.90033, 1.09967
0.000000, 5, 0.000000, 0.000000
5, 2, 2, 0.000000
2, 0.000000, 5, 3
0.000000, 8, 7, 2
4, 2, 4, 6
2, 0.000000, 0.000000, 2
2, 0.000000, 0.000000, 0.000000
0.90033, 3.09967, 2, 4
4, 4, 7, 4
2, 4, 5, 0.000000
0.000000, 4, 0.000000, 5
3, 7, 6, 5
2, 5, 2, 2
6, 2, 8, 0.000000
0.000000, 2, 4, 0.000000
3, 4, 7, 7
3, 0.000000, 6, 2
2, 0.000000, 12, 4
5, 2, 0.000000, 2
0.000000, 7, 0.90033, 6.09967
6, 0.000000, 2, 0.000000
4, 2, 8, 2
0.000000, 2, 4, 4
0.000000, 4, 6.90033, 5.09967
0.000000, 0.000000, 0.000000, 0.000000
2, 2, 0.000000, 2
2, 7, 2, 0.000000
0.000000, 4, 7, 0.000000
4, 4, 0.000000, 0.000000
4, 5, 2, 0.000000
3, 0.000000, 5, 2
3, 8, 2, 0.000000
2, 0.000000, 0.000000
*END

*BEGIN
*GROUP		=  0
*START		=  70
*STOP		=  85
*STEP		=  0.1
*OFFSET		=  20.1405
*SPEED		=  9.917
*SLIT_SPEC	=  0, 0.500mm, 0.5, 0.000000
*SLIT_SPEC	=  1, 0.500mm, 0.5, 0.000000
*SLIT_SPEC	=  2, 0.500mm, 0.5, 0.000000
*KV		=  40
*MA		=  30
*LOW		=  0.000000
*HIGH		=  0.000000
*CTEMPER	=  0, 0.000000
*CTEMPER	=  1, 0.000000
*CTEMPER	=  2, 0.000000
*PAREX		=  0, 0.000000
*PAREX		=  1, 0.000000
*PAREX		=  2, 0.000000
*PAREX		=  3, 0.000000
*PAREX		=  4, 0.000000
*PAREX		=  5, 0.000000
*PAREX		=  6, 0.000000
*PAREX		=  7, 0.000000
*PAREX		=  8, 0.000000
*PAREX		=  9, 0.000000
*PAREX		=  10, 0.000000
*PAREX		=  11, 0.000000
*PAREX		=  12, 0.000000
*PAREX		=  13, 0.000000
*PAREX		=  14, 0.000000
*PAREX		=  15, 0.000000
*FULL_SCALE	=  24.2009
*INDEX		=  0, 0, 0
*COUNT		=  151
0.000000, 2, 0.000000, 0.000000
0.000000, 2, 4, 2
0.000000, 4, 2, 0.000000
6, 2, 2, 0.000000
0.000000, 3, 0.000000, 2
2, 0.000000, 0.000000, 6
2, 0.000000, 3, 5
2.90033, 0.0996704, 0.90033, 6.09967
3, 0.000000, 2, 2
2, 0.000000, 4, 0.000000
0.000000, 6, 2, 4.90033
4.09967, 4, 0.000000, 4
1, 0.000000, 8, 0.000000
2, 0.000000, 2, 2
3, 2, 7, 2
8, 9, 4, 2
3, 3, 0.000000, 0.000000
2.90033, 4.09967, 8, 2
2, 2, 7, 0.000000
2, 2, 0.000000, 5
2, 0.000000, 6, 7
6, 3, 6, 3
2, 4, 2, 0.000000
4, 6, 0.000000, 3
6, 4, 10, 4
2, 2, 3, 6
2, 8, 4, 2
4, 7, 0.000000, 5
0.000000, 0.000000, 0.000000, 4
4, 0.000000, 2, 4
7, 2, 3, 2
4, 0.000000, 0.000000, 2
2, 2, 2, 4
2, 2, 4, 0.000000
0.000000, 0.000000, 2, 0.000000
3, 4, 2, 4
0.000000, 0.000000, 0.000000, 0.000000
0.000000, 3, 4
*END

*BEGIN
*GROUP		=  0
*START		=  70
*STOP		=  85
*STEP		=  0.1
*OFFSET		=  20.1905
*SPEED		=  9.917
*SLIT_SPEC	=  0, 0.500mm, 0.5, 0.000000
*SLIT_SPEC	=  1, 0.500mm, 0.5, 0.000000
*SLIT_SPEC	=  2, 0.500mm, 0.5, 0.000000
*KV		=  40
*MA		=  30
*LOW		=  0.000000
*HIGH		=  0.000000
*CTEMPER	=  0, 0.000000
*CTEMPER	=  1, 0.000000
*CTEMPER	=  2, 0.000000
*PAREX		=  0, 0.000000
*PAREX		=  1, 0.000000
*PAREX		=  2, 0.000000
*PAREX		=  3, 0.000000
*PAREX		=  4, 0.000000
*PAREX		=  5, 0.000000
*PAREX		=  6, 0.000000
*PAREX		=  7, 0.000000
*PAREX		=  8, 0.000000
*PAREX		=  9, 0.000000
*PAREX		=  10, 0.000000
*PAREX		=  11, 0.000000
*PAREX		=  12, 0.000000
*PAREX		=  13, 0.000000
*PAREX		=  14, 0.000000
*PAREX		=  15, 0.000000
*FULL_SCALE	=  24.2009
*INDEX		=  0, 0, 0
*COUNT		=  151
0.000000, 0.000000, 0.000000, 0.000000
0.000000, 0.000000, 0.000000, 2
2, 0.000000, 6, 2
6, 3, 4, 0.000000
4, 2, 0.000000, 2.90033
1.09967, 0.000000, 4, 0.000000
4, 1, 7, 0.000000
4, 0.000000, 4, 5
0.000000, 0.000000, 2, 4
1.90033, 0.0996704, 0.000000, 0.000000
0.000000, 3, 3, 2
3, 1, 0.000000, 3
4, 0.000000, 0.000000, 0.000000
0.000000, 12, 0.000000, 2
2, 5, 0.000000, 2
5, 2, 3, 0.000000
2, 2, 2, 6
4, 3, 4, 7
3, 4, 2, 2
5, 0.000000, 0.000000, 5
0.000000, 5, 2, 9
0.000000, 4, 4, 0.000000
9, 5, 0.000000, 6
6, 3, 3, 4
4, 0.000000, 4, 2
6, 0.000000, 2, 0.000000
0.000000, 4, 2, 6
0.000000, 3, 3, 2
2, 2, 2, 0.000000
0.000000, 2, 4, 4
4, 8, 0.000000, 0.000000
0.000000, 4, 2, 0.000000
0.000000, 4, 5, 0.000000
0.000000, 2, 9, 4
2, 7, 2, 0.000000
0.000000, 2, 5, 0.000000
5, 0.000000, 4, 4
4, 0.000000, 2
*END

*BEGIN
*GROUP		=  0
*START		=  70
*STOP		=  85
*STEP		=  0.1
*OFFSET		=  20.2405
*SPEED		=  9.917
*SLIT_SPEC	=  0, 0.500mm, 0.5, 0.000000
*SLIT_SPEC	=  1, 0.500mm, 0.5, 0.000000
*SLIT_SPEC	=  2, 0.500mm, 0.5, 0.000000
*KV		=  40
*MA		=  30
*LOW		=  0.000000
*HIGH		=  0.000000
*CTEMPER	=  0, 0.000000
*CTEMPER	=  1, 0.000000
*CTEMPER	=  2, 0.000000
*PAREX		=  0, 0.000000
*PAREX		=  1, 0.000000
*PAREX		=  2, 0.000000
*PAREX		=  3, 0.000000
*PAREX		=  4, 0.000000
*PAREX		=  5, 0.000000
*PAREX		=  6, 0.000000
*PAREX		=  7, 0.000000
*PAREX		=  8, 0.000000
*PAREX		=  9, 0.000000
*PAREX		=  10, 0.000000
*PAREX		=  11, 0.000000
*PAREX		=  12, 0.000000
*PAREX		=  13, 0.000000
*PAREX		=  14, 0.000000
*PAREX		=  15, 0.000000
*FULL_SCALE	=  24.2009
*INDEX		=  0, 0, 0
*COUNT		=  151
6, 2, 0.000000, 0.000000
2, 5, 0.000000, 0.000000
0.90033, 3, 5.09967, 0.000000
3, 0.000000, 2, 4
4, 2, 4, 3
2, 0.000000, 3, 0.000000
0.000000, 0.000000, 4, 7
5, 0.000000, 5, 0.000000
3, 2, 3, 0.000000
5, 1, 0.000000, 2
5, 0.000000, 4, 0.000000
2, 2, 2, 2
0.000000, 0.000000, 0.000000, 3
2, 11, 7, 0.000000
0.000000, 2, 10, 5
6, 4, 0.000000, 6
4, 7, 8, 3
0.000000, 2, 0.000000, 3
4, 5, 2, 4
2, 6, 11, 5
5, 5, 0.000000, 2.90033
8, 0.0996704, 8, 10
2, 5, 0.000000, 0.000000
8, 0.000000, 4, 6
8, 0.000000, 3, 6
9, 6.90033, 4, 8
2.09967, 0.000000, 0.000000, 9
4, 2, 6, 2
5, 0.000000, 0.000000, 0.000000
2, 2, 6, 3
0.000000, 2, 2, 2
6, 0.000000, 3, 0.000000
2, 0.000000, 3, 6
8, 0.000000, 2, 2
2, 0.000000, 4, 0.000000
2, 0.000000, 0.000000, 3
4, 4, 2, 8
0.000000, 0.000000, 0.000000
*END

*BEGIN
*GROUP		=  0
*START		=  70
*STOP		=  85
*STEP		=  0.1
*OFFSET		=  20.2905
*SPEED		=  9.917
*SLIT_SPEC	=  0, 0.500mm, 0.5, 0.000000
*SLIT_SPEC	=  1, 0.500mm, 0.5, 0.000000
*SLIT_SPEC	=  2, 0.500mm, 0.5, 0.000000
*KV		=  40
*MA		=  30
*LOW		=  0.000000
*HIGH		=  0.000000
*CTEMPER	=  0, 0.000000
*CTEMPER	=  1, 0.000000
*CTEMPER	=  2, 0.000000
*PAREX		=  0, 0.000000
*PAREX		=  1, 0.000000
*PAREX		=  2, 0.000000
*PAREX		=  3, 0.000000
*PAREX		=  4, 0.000000
*PAREX		=  5, 0.000000
*PAREX		=  6, 0.000000
*PAREX		=  7, 0.000000
*PAREX		=  8, 0.000000
*PAREX		=  9, 0.000000
*PAREX		=  10, 0.000000
*PAREX		=  11, 0.000000
*PAREX		=  12, 0.000000
*PAREX		=  13, 0.000000
*PAREX		=  14, 0.000000
*PAREX		=  15, 0.000000
*FULL_SCALE	=  36.3013
*INDEX		=  0, 0, 0
*COUNT		=  151
3.19934, 2, 2, 2
3, 0.000000, 2, 0.000000
0.000000, 0.000000, 0.000000, 0.000000
3, 0.000000, 0.000000, 3
2, 0.000000, 0.000000, 2
0.000000, 2, 2, 2
2, 0.000000, 4, 4
2, 0.000000, 4, 3
0.000000, 0.000000, 0.000000, 4
2, 2, 5, 7
3, 2, 4, 2
2, 0.000000, 0.000000, 5
2, 3, 2, 4
4, 4, 11, 6
4, 0.000000, 2, 0.90033
6, 4.09967, 3, 11
2, 3, 0.000000, 2
2, 6, 6, 2
6, 3.80066, 1.19934, 5
8, 0.000000, 0.000000, 7
4, 7, 5, 5
0.000000, 7, 5, 4
4, 0.000000, 4, 6
8, 3, 0.000000, 0.000000
5, 3, 6, 0.000000
3, 4, 0.000000, 4
4, 0.000000, 4, 4
8, 4, 6, 4
11, 4, 6, 0.000000
2, 2, 0.000000, 3
4, 2, 0.000000, 5
0.000000, 6, 2, 3
0.000000, 0.000000, 4, 2
0.000000, 2, 4, 0.000000
0.000000, 0.000000, 0.000000, 2
0.000000, 2, 2, 0.000000
4, 0.000000, 2, 6
6, 6, 0.000000
*END

*BEGIN
*GROUP		=  0
*START		=  70
*STOP		=  85
*STEP		=  0.1
*OFFSET		=  20.3405
*SPEED		=  9.917
*SLIT_SPEC	=  0, 0.500mm, 0.5, 0.000000
*SLIT_SPEC	=  1, 0.500mm, 0.5, 0.000000
*SLIT_SPEC	=  2, 0.500mm, 0.5, 0.000000
*KV		=  40
*MA		=  30
*LOW		=  0.000000
*HIGH		=  0.000000
*CTEMPER	=  0, 0.000000
*CTEMPER	=  1, 0.000000
*CTEMPER	=  2, 0.000000
*PAREX		=  0, 0.000000
*PAREX		=  1, 0.000000
*PAREX		=  2, 0.000000
*PAREX		=  3, 0.000000
*PAREX		=  4, 0.000000
*PAREX		=  5, 0.000000
*PAREX		=  6, 0.000000
*PAREX		=  7, 0.000000
*PAREX		=  8, 0.000000
*PAREX		=  9, 0.000000
*PAREX		=  10, 0.000000
*PAREX		=  11, 0.000000
*PAREX		=  12, 0.000000
*PAREX		=  13, 0.000000
*PAREX		=  14, 0.000000
*PAREX		=  15, 0.000000
*FULL_SCALE	=  24.2009
*INDEX		=  0, 0, 0
*COUNT		=  151
5, 2, 0.000000, 2
0.000000, 2, 0.000000, 2
8, 3, 0.000000, 0.000000
0.000000, 6, 2, 2
0.000000, 2, 0.000000, 2
0.000000, 2, 0.000000, 0.000000
3, 0.000000, 4, 2
0.000000, 2, 0.000000, 2
2.90033, 3.09967, 7, 2
6, 0.000000, 4, 0.000000
2, 2, 0.000000, 0.000000
5, 0.000000, 0.000000, 2
2.90033, 0.0996704, 2, 2
2.90033, 3.09967, 0.000000, 2
3, 0.000000, 0.000000, 8
0.000000, 4, 6, 2
0.000000, 8, 2, 8
0.000000, 2, 6, 0.000000
4, 5, 6, 2
3, 2, 5, 4
3.90033, 1.09967, 9, 0.000000
2, 9, 0.000000, 6
0.000000, 0.000000, 6, 9
3, 5, 0.000000, 2
2, 7, 0.000000, 0.000000
6, 0.000000, 0.000000, 0.000000
2, 5, 3, 3
0.000000, 2, 2, 0.000000
0.000000, 0.000000, 2, 2
2, 2, 0.000000, 2
4, 2, 0.000000, 5
0.000000, 4, 4, 0.000000
2, 2, 2, 0.000000
2, 2, 3, 2
0.000000, 2, 2, 0.000000
7, 4, 2, 0.000000
3, 2, 0.000000, 4
0.000000, 2, 0.000000
*END

*EOF