File: XRD:XRR/LCO/22163_LCOT/22163_002_XRD.csv
#twotheta, yobs, ycal, bkg, diff
42.0,8.4944,1.0,1.0,1.0
42.01,7.5056,1.0,1.0,1.0
42.02,7.0,1.0,1.0,1.0
42.03,8.0,1.0,1.0,1.0
42.04,5.0,1.0,1.0,1.0
42.05,10.0,1.0,1.0,1.0
42.06,0.0,1.0,1.0,1.0
42.07,2.0,1.0,1.0,1.0
42.08,5.0,1.0,1.0,1.0
42.09,10.0,1.0,1.0,1.0
42.1,6.0,1.0,1.0,1.0
42.11,10.0,1.0,1.0,1.0
42.12,3.0,1.0,1.0,1.0
42.13,7.0,1.0,1.0,1.0
42.14,8.9889,1.0,1.0,1.0
42.15,10.0111,1.0,1.0,1.0
42.16,8.0,1.0,1.0,1.0
42.17,8.0,1.0,1.0,1.0
42.18,0.0,1.0,1.0,1.0
42.19,4.0,1.0,1.0,1.0
42.2,17.9889,1.0,1.0,1.0
42.21,12.0111,1.0,1.0,1.0
42.22,15.0,1.0,1.0,1.0
42.23,6.0,1.0,1.0,1.0
42.24,3.4944,1.0,1.0,1.0
42.25,4.5056,1.0,1.0,1.0
42.26,14.0,1.0,1.0,1.0
42.27,14.0,1.0,1.0,1.0
42.28,2.0,1.0,1.0,1.0
42.29,15.4944,1.0,1.0,1.0
42.3,8.5056,1.0,1.0,1.0
42.31,10.0,1.0,1.0,1.0
42.32,14.4944,1.0,1.0,1.0
42.33,22.4944,1.0,1.0,1.0
42.34,24.0111,1.0,1.0,1.0
42.35,12.0,1.0,1.0,1.0
42.36,16.0,1.0,1.0,1.0
42.37,10.0,1.0,1.0,1.0
42.38,16.0,1.0,1.0,1.0
42.39,31.0,1.0,1.0,1.0
42.4,15.0,1.0,1.0,1.0
42.41,17.4944,1.0,1.0,1.0
42.42,21.5056,1.0,1.0,1.0
42.43,26.0,1.0,1.0,1.0
42.44,37.0,1.0,1.0,1.0
42.45,21.0,1.0,1.0,1.0
42.46,21.0,1.0,1.0,1.0
42.47,19.0,1.0,1.0,1.0
42.48,30.9889,1.0,1.0,1.0
42.49,25.5056,1.0,1.0,1.0
42.5,18.5056,1.0,1.0,1.0
42.51,34.4944,1.0,1.0,1.0
42.52,16.5056,1.0,1.0,1.0
42.53,35.9889,1.0,1.0,1.0
42.54,22.0,1.0,1.0,1.0
42.55,24.0111,1.0,1.0,1.0
42.56,10.0,1.0,1.0,1.0
42.57,20.0,1.0,1.0,1.0
42.58,19.0,1.0,1.0,1.0
42.59,16.0,1.0,1.0,1.0
42.6,20.0,1.0,1.0,1.0
42.61,20.0,1.0,1.0,1.0
42.62,30.0,1.0,1.0,1.0
42.63,14.0,1.0,1.0,1.0
42.64,28.4944,1.0,1.0,1.0
42.65,16.5056,1.0,1.0,1.0
42.66,9.0,1.0,1.0,1.0
42.67,16.4944,1.0,1.0,1.0
42.68,25.5056,1.0,1.0,1.0
42.69,9.0,1.0,1.0,1.0
42.7,8.0,1.0,1.0,1.0
42.71,8.9889,1.0,1.0,1.0
42.72,14.5056,1.0,1.0,1.0
42.73,17.5056,1.0,1.0,1.0
42.74,4.0,1.0,1.0,1.0
42.75,7.0,1.0,1.0,1.0
42.76,5.4944,1.0,1.0,1.0
42.77,9.5056,1.0,1.0,1.0
42.78,13.0,1.0,1.0,1.0
42.79,3.9889,1.0,1.0,1.0
42.8,12.0111,1.0,1.0,1.0
42.81,16.0,1.0,1.0,1.0
42.82,13.0,1.0,1.0,1.0
42.83,11.0,1.0,1.0,1.0
42.84,7.0,1.0,1.0,1.0
42.85,5.0,1.0,1.0,1.0
42.86,18.0,1.0,1.0,1.0
42.87,9.0,1.0,1.0,1.0
42.88,7.0,1.0,1.0,1.0
42.89,11.0,1.0,1.0,1.0
42.9,14.0,1.0,1.0,1.0
42.91,17.0,1.0,1.0,1.0
42.92,29.0,1.0,1.0,1.0
42.93,16.0,1.0,1.0,1.0
42.94,14.0,1.0,1.0,1.0
42.95,23.0,1.0,1.0,1.0
42.96,13.0,1.0,1.0,1.0
42.97,13.9889,1.0,1.0,1.0
42.98,35.0111,1.0,1.0,1.0
42.99,30.0,1.0,1.0,1.0
43.0,30.9889,1.0,1.0,1.0
43.01,39.0111,1.0,1.0,1.0
43.02,40.0,1.0,1.0,1.0
43.03,28.0,1.0,1.0,1.0
43.04,37.4944,1.0,1.0,1.0
43.05,59.0,1.0,1.0,1.0
43.06,33.0,1.0,1.0,1.0
43.07,39.4944,1.0,1.0,1.0
43.08,43.4944,1.0,1.0,1.0
43.09,43.0111,1.0,1.0,1.0
43.1,58.5056,1.0,1.0,1.0
43.11,53.0,1.0,1.0,1.0
43.12,40.0,1.0,1.0,1.0
43.13,47.4944,1.0,1.0,1.0
43.14,37.5056,1.0,1.0,1.0
43.15,34.0,1.0,1.0,1.0
43.16,45.0,1.0,1.0,1.0
43.17,46.9889,1.0,1.0,1.0
43.18,39.0111,1.0,1.0,1.0
43.19,41.0,1.0,1.0,1.0
43.2,35.0,1.0,1.0,1.0
43.21,45.0,1.0,1.0,1.0
43.22,23.0,1.0,1.0,1.0
43.23,23.4944,1.0,1.0,1.0
43.24,39.5056,1.0,1.0,1.0
43.25,48.4944,1.0,1.0,1.0
43.26,27.0,1.0,1.0,1.0
43.27,35.5056,1.0,1.0,1.0
43.28,33.0,1.0,1.0,1.0
43.29,31.0,1.0,1.0,1.0
43.3,18.0,1.0,1.0,1.0
43.31,21.0,1.0,1.0,1.0
43.32,21.0,1.0,1.0,1.0
43.33,41.0,1.0,1.0,1.0
43.34,11.0,1.0,1.0,1.0
43.35,19.4944,1.0,1.0,1.0
43.36,11.5056,1.0,1.0,1.0
43.37,19.0,1.0,1.0,1.0
43.38,12.0,1.0,1.0,1.0
43.39,15.0,1.0,1.0,1.0
43.4,6.0,1.0,1.0,1.0
43.41,20.0,1.0,1.0,1.0
43.42,16.0,1.0,1.0,1.0
43.43,7.0,1.0,1.0,1.0
43.44,23.0,1.0,1.0,1.0
43.45,9.0,1.0,1.0,1.0
43.46,3.0,1.0,1.0,1.0
43.47,1.4944,1.0,1.0,1.0
43.48,13.5056,1.0,1.0,1.0
43.49,15.0,1.0,1.0,1.0
43.5,14.0,1.0,1.0,1.0
43.51,18.0,1.0,1.0,1.0
43.52,12.0,1.0,1.0,1.0
43.53,26.0,1.0,1.0,1.0
43.54,13.0,1.0,1.0,1.0
43.55,24.0,1.0,1.0,1.0
43.56,26.0,1.0,1.0,1.0
43.57,19.0,1.0,1.0,1.0
43.58,21.0,1.0,1.0,1.0
43.59,31.4944,1.0,1.0,1.0
43.6,49.5056,1.0,1.0,1.0
43.61,24.0,1.0,1.0,1.0
43.62,29.0,1.0,1.0,1.0
43.63,36.0,1.0,1.0,1.0
43.64,47.0,1.0,1.0,1.0
43.65,42.9889,1.0,1.0,1.0
43.66,54.0111,1.0,1.0,1.0
43.67,42.4944,1.0,1.0,1.0
43.68,64.0,1.0,1.0,1.0
43.69,66.9889,1.0,1.0,1.0
43.7,54.0111,1.0,1.0,1.0
43.71,75.0,1.0,1.0,1.0
43.72,71.4944,1.0,1.0,1.0
43.73,73.4944,1.0,1.0,1.0
43.74,72.5167,1.0,1.0,1.0
43.75,62.9889,1.0,1.0,1.0
43.76,72.5056,1.0,1.0,1.0
43.77,72.4944,1.0,1.0,1.0
43.78,83.0111,1.0,1.0,1.0
43.79,73.4944,1.0,1.0,1.0
43.8,88.0,1.0,1.0,1.0
43.81,106.0,1.0,1.0,1.0
43.82,78.9889,1.0,1.0,1.0
43.83,107.0,1.0,1.0,1.0
43.84,88.5167,1.0,1.0,1.0
43.85,81.4722,1.0,1.0,1.0
43.86,93.5167,1.0,1.0,1.0
43.87,83.5056,1.0,1.0,1.0
43.88,99.5056,1.0,1.0,1.0
43.89,68.4833,1.0,1.0,1.0
43.9,102.0,1.0,1.0,1.0
43.91,99.0111,1.0,1.0,1.0
43.92,68.0,1.0,1.0,1.0
43.93,74.0,1.0,1.0,1.0
43.94,58.0,1.0,1.0,1.0
43.95,72.9889,1.0,1.0,1.0
43.96,54.9889,1.0,1.0,1.0
43.97,60.5278,1.0,1.0,1.0
43.98,37.9889,1.0,1.0,1.0
43.99,47.5056,1.0,1.0,1.0
44.0,44.5056,1.0,1.0,1.0
44.01,37.9889,1.0,1.0,1.0
44.02,43.5056,1.0,1.0,1.0
44.03,28.0,1.0,1.0,1.0
44.04,23.5056,1.0,1.0,1.0
44.05,35.4944,1.0,1.0,1.0
44.06,30.5056,1.0,1.0,1.0
44.07,29.0,1.0,1.0,1.0
44.08,18.0,1.0,1.0,1.0
44.09,11.0,1.0,1.0,1.0
44.1,12.9889,1.0,1.0,1.0
44.11,30.5056,1.0,1.0,1.0
44.12,26.5056,1.0,1.0,1.0
44.13,14.0,1.0,1.0,1.0
44.14,14.0,1.0,1.0,1.0
44.15,11.0,1.0,1.0,1.0
44.16,16.0,1.0,1.0,1.0
44.17,13.0,1.0,1.0,1.0
44.18,16.0,1.0,1.0,1.0
44.19,21.0,1.0,1.0,1.0
44.2,21.0,1.0,1.0,1.0
44.21,26.4944,1.0,1.0,1.0
44.22,39.0,1.0,1.0,1.0
44.23,53.9889,1.0,1.0,1.0
44.24,53.5056,1.0,1.0,1.0
44.25,69.5056,1.0,1.0,1.0
44.26,53.5056,1.0,1.0,1.0
44.27,66.0,1.0,1.0,1.0
44.28,48.4944,1.0,1.0,1.0
44.29,68.0,1.0,1.0,1.0
44.3,101.4944,1.0,1.0,1.0
44.31,84.5056,1.0,1.0,1.0
44.32,102.9889,1.0,1.0,1.0
44.33,88.0111,1.0,1.0,1.0
44.34,84.5056,1.0,1.0,1.0
44.35,92.4833,1.0,1.0,1.0
44.36,113.0111,1.0,1.0,1.0
44.37,147.9889,1.0,1.0,1.0
44.38,114.5056,1.0,1.0,1.0
44.39,129.4944,1.0,1.0,1.0
44.4,163.5056,1.0,1.0,1.0
44.41,149.0,1.0,1.0,1.0
44.42,159.9778,1.0,1.0,1.0
44.43,136.0333,1.0,1.0,1.0
44.44,165.4944,1.0,1.0,1.0
44.45,192.9778,1.0,1.0,1.0
44.46,179.0111,1.0,1.0,1.0
44.47,180.9778,1.0,1.0,1.0
44.48,165.5278,1.0,1.0,1.0
44.49,186.4944,1.0,1.0,1.0
44.5,180.4944,1.0,1.0,1.0
44.51,170.0111,1.0,1.0,1.0
44.52,147.9889,1.0,1.0,1.0
44.53,175.9889,1.0,1.0,1.0
44.54,164.0,1.0,1.0,1.0
44.55,204.0111,1.0,1.0,1.0
44.56,140.5056,1.0,1.0,1.0
44.57,157.4722,1.0,1.0,1.0
44.58,164.5167,1.0,1.0,1.0
44.59,180.0,1.0,1.0,1.0
44.6,171.0222,1.0,1.0,1.0
44.61,131.9889,1.0,1.0,1.0
44.62,133.0,1.0,1.0,1.0
44.63,127.0111,1.0,1.0,1.0
44.64,116.4833,1.0,1.0,1.0
44.65,104.5167,1.0,1.0,1.0
44.66,115.5056,1.0,1.0,1.0
44.67,114.9889,1.0,1.0,1.0
44.68,79.0,1.0,1.0,1.0
44.69,97.0,1.0,1.0,1.0
44.7,78.9889,1.0,1.0,1.0
44.71,71.0222,1.0,1.0,1.0
44.72,76.0,1.0,1.0,1.0
44.73,65.4944,1.0,1.0,1.0
44.74,57.5056,1.0,1.0,1.0
44.75,26.9889,1.0,1.0,1.0
44.76,39.0111,1.0,1.0,1.0
44.77,39.4833,1.0,1.0,1.0
44.78,48.0111,1.0,1.0,1.0
44.79,25.5056,1.0,1.0,1.0
44.8,31.0,1.0,1.0,1.0
44.81,41.9889,1.0,1.0,1.0
44.82,31.0111,1.0,1.0,1.0
44.83,34.0,1.0,1.0,1.0
44.84,36.4833,1.0,1.0,1.0
44.85,42.0,1.0,1.0,1.0
44.86,39.5167,1.0,1.0,1.0
44.87,43.4944,1.0,1.0,1.0
44.88,51.9778,1.0,1.0,1.0
44.89,42.5278,1.0,1.0,1.0
44.9,64.0,1.0,1.0,1.0
44.91,90.4944,1.0,1.0,1.0
44.92,98.5056,1.0,1.0,1.0
44.93,99.9889,1.0,1.0,1.0
44.94,121.4944,1.0,1.0,1.0
44.95,110.5056,1.0,1.0,1.0
44.96,121.0,1.0,1.0,1.0
44.97,154.4944,1.0,1.0,1.0
44.98,158.0111,1.0,1.0,1.0
44.99,172.0,1.0,1.0,1.0
45.0,199.4944,1.0,1.0,1.0
45.01,207.9889,1.0,1.0,1.0
45.02,202.0,1.0,1.0,1.0
45.03,227.0111,1.0,1.0,1.0
45.04,248.4833,1.0,1.0,1.0
45.05,261.5056,1.0,1.0,1.0
45.06,294.4944,1.0,1.0,1.0
45.07,298.4944,1.0,1.0,1.0
45.08,316.9889,1.0,1.0,1.0
45.09,318.5056,1.0,1.0,1.0
45.1,359.9667,1.0,1.0,1.0
45.11,314.55,1.0,1.0,1.0
45.12,327.9889,1.0,1.0,1.0
45.13,380.4833,1.0,1.0,1.0
45.14,380.0111,1.0,1.0,1.0
45.15,401.9889,1.0,1.0,1.0
45.16,407.4944,1.0,1.0,1.0
45.17,390.0111,1.0,1.0,1.0
45.18,380.5056,1.0,1.0,1.0
45.19,406.9889,1.0,1.0,1.0
45.2,405.0111,1.0,1.0,1.0
45.21,398.5056,1.0,1.0,1.0
45.22,382.4944,1.0,1.0,1.0
45.23,389.0111,1.0,1.0,1.0
45.24,409.0,1.0,1.0,1.0
45.25,351.4833,1.0,1.0,1.0
45.26,371.0222,1.0,1.0,1.0
45.27,359.4833,1.0,1.0,1.0
45.28,369.5167,1.0,1.0,1.0
45.29,336.0111,1.0,1.0,1.0
45.3,343.9667,1.0,1.0,1.0
45.31,301.5167,1.0,1.0,1.0
45.32,315.0,1.0,1.0,1.0
45.33,259.9778,1.0,1.0,1.0
45.34,288.5056,1.0,1.0,1.0
45.35,234.0333,1.0,1.0,1.0
45.36,251.9889,1.0,1.0,1.0
45.37,184.0111,1.0,1.0,1.0
45.38,181.9889,1.0,1.0,1.0
45.39,164.5167,1.0,1.0,1.0
45.4,164.0,1.0,1.0,1.0
45.41,128.5056,1.0,1.0,1.0
45.42,111.4833,1.0,1.0,1.0
45.43,101.5056,1.0,1.0,1.0
45.44,87.0,1.0,1.0,1.0
45.45,108.5056,1.0,1.0,1.0
45.46,57.0,1.0,1.0,1.0
45.47,67.5056,1.0,1.0,1.0
45.48,49.0,1.0,1.0,1.0
45.49,30.4944,1.0,1.0,1.0
45.5,59.0,1.0,1.0,1.0
45.51,52.4944,1.0,1.0,1.0
45.52,55.0,1.0,1.0,1.0
45.53,66.0111,1.0,1.0,1.0
45.54,107.4944,1.0,1.0,1.0
45.55,112.0,1.0,1.0,1.0
45.56,103.0,1.0,1.0,1.0
45.57,128.9889,1.0,1.0,1.0
45.58,134.4944,1.0,1.0,1.0
45.59,173.0,1.0,1.0,1.0
45.6,232.0,1.0,1.0,1.0
45.61,313.0,1.0,1.0,1.0
45.62,287.0,1.0,1.0,1.0
45.63,334.4611,1.0,1.0,1.0
45.64,376.0222,1.0,1.0,1.0
45.65,467.4389,1.0,1.0,1.0
45.66,515.5389,1.0,1.0,1.0
45.67,622.9778,1.0,1.0,1.0
45.68,622.5278,1.0,1.0,1.0
45.69,689.4833,1.0,1.0,1.0
45.7,792.4833,1.0,1.0,1.0
45.71,782.0,1.0,1.0,1.0
45.72,897.4611,1.0,1.0,1.0
45.73,984.4611,1.0,1.0,1.0
45.74,1087.54,1.0,1.0,1.0
45.75,1182.02,1.0,1.0,1.0
45.76,1207.97,1.0,1.0,1.0
45.77,1250.48,1.0,1.0,1.0
45.78,1336.47,1.0,1.0,1.0
45.79,1502.02,1.0,1.0,1.0
45.8,1624.41,1.0,1.0,1.0
45.81,1611.02,1.0,1.0,1.0
45.82,1801.53,1.0,1.0,1.0
45.83,1886.53,1.0,1.0,1.0
45.84,1870.96,1.0,1.0,1.0
45.85,1966.52,1.0,1.0,1.0
45.86,2084.45,1.0,1.0,1.0
45.87,2111.02,1.0,1.0,1.0
45.88,2225.93,1.0,1.0,1.0
45.89,2304.51,1.0,1.0,1.0
45.9,2194.54,1.0,1.0,1.0
45.91,2399.52,1.0,1.0,1.0
45.92,2440.98,1.0,1.0,1.0
45.93,2485.49,1.0,1.0,1.0
45.94,2514.02,1.0,1.0,1.0
45.95,2543.0,1.0,1.0,1.0
45.96,2575.51,1.0,1.0,1.0
45.97,2541.96,1.0,1.0,1.0
45.98,2546.96,1.0,1.0,1.0
45.99,2746.55,1.0,1.0,1.0
46.0,2589.98,1.0,1.0,1.0
46.01,2793.97,1.0,1.0,1.0
46.02,2654.07,1.0,1.0,1.0
46.03,2649.48,1.0,1.0,1.0
46.04,2632.96,1.0,1.0,1.0
46.05,2613.06,1.0,1.0,1.0
46.06,2517.54,1.0,1.0,1.0
46.07,2514.46,1.0,1.0,1.0
46.08,2537.47,1.0,1.0,1.0
46.09,2462.57,1.0,1.0,1.0
46.1,2315.98,1.0,1.0,1.0
46.11,2266.45,1.0,1.0,1.0
46.12,2293.55,1.0,1.0,1.0
46.13,2163.01,1.0,1.0,1.0
46.14,1969.99,1.0,1.0,1.0
46.15,2012.02,1.0,1.0,1.0
46.16,1842.02,1.0,1.0,1.0
46.17,1810.48,1.0,1.0,1.0
46.18,1718.54,1.0,1.0,1.0
46.19,1622.02,1.0,1.0,1.0
46.2,1495.53,1.0,1.0,1.0
46.21,1450.01,1.0,1.0,1.0
46.22,1258.55,1.0,1.0,1.0
46.23,1077.41,1.0,1.0,1.0
46.24,1084.07,1.0,1.0,1.0
46.25,936.0,1.0,1.0,1.0
46.26,885.9889,1.0,1.0,1.0
46.27,850.0111,1.0,1.0,1.0
46.28,809.9667,1.0,1.0,1.0
46.29,898.5278,1.0,1.0,1.0
46.3,981.0444,1.0,1.0,1.0
46.31,1235.92,1.0,1.0,1.0
46.32,1514.91,1.0,1.0,1.0
46.33,2149.0,1.0,1.0,1.0
46.34,3034.9,1.0,1.0,1.0
46.35,4286.57,1.0,1.0,1.0
46.36,6629.27,1.0,1.0,1.0
46.37,10454.9,1.0,1.0,1.0
46.38,16634.7,1.0,1.0,1.0
46.39,26130.0,1.0,1.0,1.0
46.4,42044.3,1.0,1.0,1.0
46.41,72397.125,1.0,1.0,1.0
46.42,163220,1.0,1.0,1.0
46.43,1228988.875,1.0,1.0,1.0
46.44,4705334.0,1.0,1.0,1.0
46.45,6690393.5,1.0,1.0,1.0
46.46,8725066.0,1.0,1.0,1.0
46.47,15133646.0,1.0,1.0,1.0
46.48,26950144.0,1.0,1.0,1.0
46.49,22282796.0,1.0,1.0,1.0
46.5,13088360.0,1.0,1.0,1.0
46.51,7955903.0,1.0,1.0,1.0
46.52,5644434.0,1.0,1.0,1.0
46.53,1307357.75,1.0,1.0,1.0
46.54,449555,1.0,1.0,1.0
46.55,273562.875,1.0,1.0,1.0
46.56,192339,1.0,1.0,1.0
46.57,135432.125,1.0,1.0,1.0
46.58,103018,1.0,1.0,1.0
46.59,83077.4,1.0,1.0,1.0
46.6,69995.9,1.0,1.0,1.0
46.61,60910.1,1.0,1.0,1.0
46.62,53897.2,1.0,1.0,1.0
46.63,48828.9,1.0,1.0,1.0
46.64,44742.9,1.0,1.0,1.0
46.65,41091.1,1.0,1.0,1.0
46.66,38552.9,1.0,1.0,1.0
46.67,36022,1.0,1.0,1.0
46.68,34330.1,1.0,1.0,1.0
46.69,32593.2,1.0,1.0,1.0
46.7,31005.8,1.0,1.0,1.0
46.71,29771.8,1.0,1.0,1.0
46.72,28089.6,1.0,1.0,1.0
46.73,27302.2,1.0,1.0,1.0
46.74,26297.8,1.0,1.0,1.0
46.75,25472.5,1.0,1.0,1.0
46.76,24410.5,1.0,1.0,1.0
46.77,23528,1.0,1.0,1.0
46.78,22845.7,1.0,1.0,1.0
46.79,21906.3,1.0,1.0,1.0
46.8,21091,1.0,1.0,1.0
46.81,20578.877,1.0,1.0,1.0
46.82,19970.8,1.0,1.0,1.0
46.83,19318.3,1.0,1.0,1.0
46.84,18713.1,1.0,1.0,1.0
46.85,17912.877,1.0,1.0,1.0
46.86,17416.4,1.0,1.0,1.0
46.87,16862.5,1.0,1.0,1.0
46.88,16320.5,1.0,1.0,1.0
46.89,15784.6,1.0,1.0,1.0
46.9,15011,1.0,1.0,1.0
46.91,14586.8,1.0,1.0,1.0
46.92,14091.5,1.0,1.0,1.0
46.93,13548.6,1.0,1.0,1.0
46.94,13068.5,1.0,1.0,1.0
46.95,12434.6,1.0,1.0,1.0
46.96,12098.9,1.0,1.0,1.0
46.97,11379.7,1.0,1.0,1.0
46.98,11126.6,1.0,1.0,1.0
46.99,10631.5,1.0,1.0,1.0
47.0,10006.1,1.0,1.0,1.0
47.01,9580.13,1.0,1.0,1.0
47.02,9237.02,1.0,1.0,1.0
47.03,8705.583,1.0,1.0,1.0
47.04,8100.04,1.0,1.0,1.0
47.05,7942.17,1.0,1.0,1.0
47.06,7393.43,1.0,1.0,1.0
47.07,7113.64,1.0,1.0,1.0
47.08,6434.97,1.0,1.0,1.0
47.09,6140.561,1.0,1.0,1.0
47.1,5659.48,1.0,1.0,1.0
47.11,5398.9,1.0,1.0,1.0
47.12,5138.71,1.0,1.0,1.0
47.13,4690.09,1.0,1.0,1.0
47.14,4370.97,1.0,1.0,1.0
47.15,3939.62,1.0,1.0,1.0
47.16,3669.42,1.0,1.0,1.0
47.17,3351.07,1.0,1.0,1.0
47.18,3059.04,1.0,1.0,1.0
47.19,2910.99,1.0,1.0,1.0
47.2,2539.02,1.0,1.0,1.0
47.21,2375.1,1.0,1.0,1.0
47.22,2106.94,1.0,1.0,1.0
47.23,1856.58,1.0,1.0,1.0
47.24,1660.96,1.0,1.0,1.0
47.25,1436.59,1.0,1.0,1.0
47.26,1282.48,1.0,1.0,1.0
47.27,1081.0,1.0,1.0,1.0
47.28,1008.04,1.0,1.0,1.0
47.29,895.4944,1.0,1.0,1.0
47.3,705.0444,1.0,1.0,1.0
47.31,634.4944,1.0,1.0,1.0
47.32,481.4944,1.0,1.0,1.0
47.33,427.5278,1.0,1.0,1.0
47.34,346.9889,1.0,1.0,1.0
47.35,272.5278,1.0,1.0,1.0
47.36,220.5056,1.0,1.0,1.0
47.37,172.4833,1.0,1.0,1.0
47.38,141.0222,1.0,1.0,1.0
47.39,134.5056,1.0,1.0,1.0
47.4,104.0,1.0,1.0,1.0
47.41,98.9889,1.0,1.0,1.0
47.42,89.5056,1.0,1.0,1.0
47.43,113.0,1.0,1.0,1.0
47.44,113.5056,1.0,1.0,1.0
47.45,132.9889,1.0,1.0,1.0
47.46,185.9889,1.0,1.0,1.0
47.47,173.0111,1.0,1.0,1.0
47.48,236.4944,1.0,1.0,1.0
47.49,239.9667,1.0,1.0,1.0
47.5,305.5389,1.0,1.0,1.0
47.51,342.9556,1.0,1.0,1.0
47.52,391.0222,1.0,1.0,1.0
47.53,437.4722,1.0,1.0,1.0
47.54,491.9889,1.0,1.0,1.0
47.55,542.0333,1.0,1.0,1.0
47.56,526.4722,1.0,1.0,1.0
47.57,614.5056,1.0,1.0,1.0
47.58,673.5056,1.0,1.0,1.0
47.59,680.5056,1.0,1.0,1.0
47.6,707.9667,1.0,1.0,1.0
47.61,799.0111,1.0,1.0,1.0
47.62,833.4944,1.0,1.0,1.0
47.63,874.4944,1.0,1.0,1.0
47.64,929.9445,1.0,1.0,1.0
47.65,1016.02,1.0,1.0,1.0
47.66,917.5167,1.0,1.0,1.0
47.67,938.0444,1.0,1.0,1.0
47.68,1062.93,1.0,1.0,1.0
47.69,955.0,1.0,1.0,1.0
47.7,1024.48,1.0,1.0,1.0
47.71,1038.52,1.0,1.0,1.0
47.72,974.5056,1.0,1.0,1.0
47.73,1078.51,1.0,1.0,1.0
47.74,1075.53,1.0,1.0,1.0
47.75,1019.46,1.0,1.0,1.0
47.76,1064.02,1.0,1.0,1.0
47.77,1057.94,1.0,1.0,1.0
47.78,1059.03,1.0,1.0,1.0
47.79,984.0333,1.0,1.0,1.0
47.8,882.0222,1.0,1.0,1.0
47.81,942.5056,1.0,1.0,1.0
47.82,956.4833,1.0,1.0,1.0
47.83,881.4944,1.0,1.0,1.0
47.84,841.0111,1.0,1.0,1.0
47.85,784.4944,1.0,1.0,1.0
47.86,809.4944,1.0,1.0,1.0
47.87,815.0,1.0,1.0,1.0
47.88,761.4944,1.0,1.0,1.0
47.89,686.0111,1.0,1.0,1.0
47.9,662.4833,1.0,1.0,1.0
47.91,648.5611,1.0,1.0,1.0
47.92,604.4833,1.0,1.0,1.0
47.93,548.4944,1.0,1.0,1.0
47.94,509.5167,1.0,1.0,1.0
47.95,511.9778,1.0,1.0,1.0
47.96,450.5278,1.0,1.0,1.0
47.97,411.4944,1.0,1.0,1.0
47.98,369.0111,1.0,1.0,1.0
47.99,353.0111,1.0,1.0,1.0
48.0,264.5167,1.0,1.0,1.0
48.01,276.9778,1.0,1.0,1.0
48.02,241.5278,1.0,1.0,1.0
48.03,228.4944,1.0,1.0,1.0
48.04,211.4833,1.0,1.0,1.0
48.05,160.5167,1.0,1.0,1.0
48.06,150.9889,1.0,1.0,1.0
48.07,135.0111,1.0,1.0,1.0
48.08,123.9889,1.0,1.0,1.0
48.09,83.5056,1.0,1.0,1.0
48.1,90.9889,1.0,1.0,1.0
48.11,82.5056,1.0,1.0,1.0
48.12,56.0111,1.0,1.0,1.0
48.13,75.5056,1.0,1.0,1.0
48.14,57.4944,1.0,1.0,1.0
48.15,56.4944,1.0,1.0,1.0
48.16,40.0,1.0,1.0,1.0
48.17,34.0111,1.0,1.0,1.0
48.18,42.0,1.0,1.0,1.0
48.19,29.0,1.0,1.0,1.0
48.2,36.0,1.0,1.0,1.0
48.21,37.4833,1.0,1.0,1.0
48.22,38.5167,1.0,1.0,1.0
48.23,46.4944,1.0,1.0,1.0
48.24,48.5056,1.0,1.0,1.0
48.25,62.4944,1.0,1.0,1.0
48.26,66.4833,1.0,1.0,1.0
48.27,81.0111,1.0,1.0,1.0
48.28,94.0,1.0,1.0,1.0
48.29,94.9778,1.0,1.0,1.0
48.3,92.5278,1.0,1.0,1.0
48.31,112.9889,1.0,1.0,1.0
48.32,119.4944,1.0,1.0,1.0
48.33,120.0111,1.0,1.0,1.0
48.34,119.5056,1.0,1.0,1.0
48.35,121.4944,1.0,1.0,1.0
48.36,158.4833,1.0,1.0,1.0
48.37,182.0111,1.0,1.0,1.0
48.38,150.4944,1.0,1.0,1.0
48.39,184.9889,1.0,1.0,1.0
48.4,203.5056,1.0,1.0,1.0
48.41,162.5167,1.0,1.0,1.0
48.42,195.9667,1.0,1.0,1.0
48.43,188.5389,1.0,1.0,1.0
48.44,186.9889,1.0,1.0,1.0
48.45,180.4944,1.0,1.0,1.0
48.46,212.0,1.0,1.0,1.0
48.47,219.0222,1.0,1.0,1.0
48.48,199.4611,1.0,1.0,1.0
48.49,170.5278,1.0,1.0,1.0
48.5,175.9889,1.0,1.0,1.0
48.51,157.5056,1.0,1.0,1.0
48.52,159.9778,1.0,1.0,1.0
48.53,169.0111,1.0,1.0,1.0
48.54,183.0111,1.0,1.0,1.0
48.55,173.0,1.0,1.0,1.0
48.56,152.5056,1.0,1.0,1.0
48.57,172.0111,1.0,1.0,1.0
48.58,158.4722,1.0,1.0,1.0
48.59,146.0222,1.0,1.0,1.0
48.6,138.0,1.0,1.0,1.0
48.61,144.0,1.0,1.0,1.0
48.62,107.4944,1.0,1.0,1.0
48.63,96.4833,1.0,1.0,1.0
48.64,127.0,1.0,1.0,1.0
48.65,135.0111,1.0,1.0,1.0
48.66,132.5167,1.0,1.0,1.0
48.67,109.0,1.0,1.0,1.0
48.68,69.9667,1.0,1.0,1.0
48.69,70.5167,1.0,1.0,1.0
48.7,80.4944,1.0,1.0,1.0
48.71,50.0222,1.0,1.0,1.0
48.72,54.9889,1.0,1.0,1.0
48.73,51.0111,1.0,1.0,1.0
48.74,44.9889,1.0,1.0,1.0
48.75,35.0111,1.0,1.0,1.0
48.76,35.4944,1.0,1.0,1.0
48.77,22.5056,1.0,1.0,1.0
48.78,31.4944,1.0,1.0,1.0
48.79,15.5056,1.0,1.0,1.0
48.8,20.4944,1.0,1.0,1.0
48.81,32.5056,1.0,1.0,1.0
48.82,27.0,1.0,1.0,1.0
48.83,29.0,1.0,1.0,1.0
48.84,21.0,1.0,1.0,1.0
48.85,27.0,1.0,1.0,1.0
48.86,32.4944,1.0,1.0,1.0
48.87,23.0,1.0,1.0,1.0
48.88,24.5056,1.0,1.0,1.0
48.89,19.4944,1.0,1.0,1.0
48.9,20.5056,1.0,1.0,1.0
48.91,24.0,1.0,1.0,1.0
48.92,32.0,1.0,1.0,1.0
48.93,30.0,1.0,1.0,1.0
48.94,26.0,1.0,1.0,1.0
48.95,39.0,1.0,1.0,1.0
48.96,33.9889,1.0,1.0,1.0
48.97,29.5056,1.0,1.0,1.0
48.98,53.0,1.0,1.0,1.0
48.99,42.0,1.0,1.0,1.0
49.0,50.5056,1.0,1.0,1.0
49.01,50.4833,1.0,1.0,1.0
49.02,61.0111,1.0,1.0,1.0
49.03,60.4944,1.0,1.0,1.0
49.04,54.4944,1.0,1.0,1.0
49.05,43.5167,1.0,1.0,1.0
49.06,79.9778,1.0,1.0,1.0
49.07,64.0222,1.0,1.0,1.0
49.08,72.4944,1.0,1.0,1.0
49.09,65.5056,1.0,1.0,1.0
49.1,60.4833,1.0,1.0,1.0
49.11,70.5056,1.0,1.0,1.0
49.12,57.0,1.0,1.0,1.0
49.13,78.5056,1.0,1.0,1.0
49.14,73.9889,1.0,1.0,1.0
49.15,88.5167,1.0,1.0,1.0
49.16,76.0,1.0,1.0,1.0
49.17,63.4833,1.0,1.0,1.0
49.18,83.4944,1.0,1.0,1.0
49.19,83.0222,1.0,1.0,1.0
49.2,63.9889,1.0,1.0,1.0
49.21,72.5056,1.0,1.0,1.0
49.22,92.5056,1.0,1.0,1.0
49.23,74.4944,1.0,1.0,1.0
49.24,81.5056,1.0,1.0,1.0
49.25,68.9889,1.0,1.0,1.0
49.26,54.0,1.0,1.0,1.0
49.27,37.0111,1.0,1.0,1.0
49.28,62.4944,1.0,1.0,1.0
49.29,49.0,1.0,1.0,1.0
49.3,55.5056,1.0,1.0,1.0
49.31,46.4833,1.0,1.0,1.0
49.32,43.5167,1.0,1.0,1.0
49.33,53.9889,1.0,1.0,1.0
49.34,40.0,1.0,1.0,1.0
49.35,38.0111,1.0,1.0,1.0
49.36,36.4944,1.0,1.0,1.0
49.37,26.5056,1.0,1.0,1.0
49.38,37.4944,1.0,1.0,1.0
49.39,35.5056,1.0,1.0,1.0
49.4,33.4944,1.0,1.0,1.0
49.41,22.5056,1.0,1.0,1.0
49.42,30.0,1.0,1.0,1.0
49.43,20.0,1.0,1.0,1.0
49.44,32.0,1.0,1.0,1.0
49.45,21.4833,1.0,1.0,1.0
49.46,32.0111,1.0,1.0,1.0
49.47,6.5056,1.0,1.0,1.0
49.48,19.0,1.0,1.0,1.0
49.49,17.9889,1.0,1.0,1.0
49.5,33.0111,1.0,1.0,1.0
49.51,15.0,1.0,1.0,1.0
49.52,19.0,1.0,1.0,1.0
49.53,18.0,1.0,1.0,1.0
49.54,3.0,1.0,1.0,1.0
49.55,17.0,1.0,1.0,1.0
49.56,13.0,1.0,1.0,1.0
49.57,8.0,1.0,1.0,1.0
49.58,11.4944,1.0,1.0,1.0
49.59,13.5056,1.0,1.0,1.0
49.6,12.4944,1.0,1.0,1.0
49.61,10.5056,1.0,1.0,1.0
49.62,11.0,1.0,1.0,1.0
49.63,16.0,1.0,1.0,1.0
49.64,6.0,1.0,1.0,1.0
49.65,21.0,1.0,1.0,1.0
49.66,11.0,1.0,1.0,1.0
49.67,11.0,1.0,1.0,1.0
49.68,20.0,1.0,1.0,1.0
49.69,21.4944,1.0,1.0,1.0
49.7,14.0,1.0,1.0,1.0
49.71,21.0,1.0,1.0,1.0
49.72,22.4944,1.0,1.0,1.0
49.73,23.0111,1.0,1.0,1.0
49.74,21.4944,1.0,1.0,1.0
49.75,13.5056,1.0,1.0,1.0
49.76,22.0,1.0,1.0,1.0
49.77,29.0,1.0,1.0,1.0
49.78,26.4944,1.0,1.0,1.0
49.79,39.4944,1.0,1.0,1.0
49.8,27.5056,1.0,1.0,1.0
49.81,42.5056,1.0,1.0,1.0
49.82,35.4944,1.0,1.0,1.0
49.83,30.5056,1.0,1.0,1.0
49.84,21.0,1.0,1.0,1.0
49.85,26.0,1.0,1.0,1.0
49.86,20.4833,1.0,1.0,1.0
49.87,25.5167,1.0,1.0,1.0
49.88,29.4944,1.0,1.0,1.0
49.89,32.5056,1.0,1.0,1.0
49.9,20.0,1.0,1.0,1.0
49.91,21.4944,1.0,1.0,1.0
49.92,27.0,1.0,1.0,1.0
49.93,31.4944,1.0,1.0,1.0
49.94,20.0111,1.0,1.0,1.0
49.95,9.0,1.0,1.0,1.0
49.96,15.4833,1.0,1.0,1.0
49.97,32.5167,1.0,1.0,1.0
49.98,27.0,1.0,1.0,1.0
49.99,11.0,1.0,1.0,1.0
50.0,23.0,1.0,1.0,1.0
50.01,10.0,1.0,1.0,1.0
50.02,8.4944,1.0,1.0,1.0
50.03,17.5056,1.0,1.0,1.0
50.04,7.4944,1.0,1.0,1.0
50.05,21.5056,1.0,1.0,1.0
50.06,10.0,1.0,1.0,1.0
50.07,13.9889,1.0,1.0,1.0
50.08,38.5056,1.0,1.0,1.0
50.09,10.5056,1.0,1.0,1.0
50.1,5.4944,1.0,1.0,1.0
50.11,12.5056,1.0,1.0,1.0
50.12,17.0,1.0,1.0,1.0
50.13,16.0,1.0,1.0,1.0
50.14,7.0,1.0,1.0,1.0
50.15,12.0,1.0,1.0,1.0
50.16,14.0,1.0,1.0,1.0
50.17,7.0,1.0,1.0,1.0
50.18,9.0,1.0,1.0,1.0
50.19,9.0,1.0,1.0,1.0
50.2,8.0,1.0,1.0,1.0
50.21,4.0,1.0,1.0,1.0
50.22,21.4944,1.0,1.0,1.0
50.23,6.5056,1.0,1.0,1.0
50.24,7.0,1.0,1.0,1.0
50.25,8.0,1.0,1.0,1.0
50.26,12.0,1.0,1.0,1.0
50.27,10.0,1.0,1.0,1.0
50.28,8.0,1.0,1.0,1.0
50.29,4.0,1.0,1.0,1.0
50.3,12.0,1.0,1.0,1.0
50.31,14.0,1.0,1.0,1.0
50.32,9.0,1.0,1.0,1.0
50.33,13.0,1.0,1.0,1.0
50.34,6.0,1.0,1.0,1.0
50.35,13.0,1.0,1.0,1.0
50.36,10.4944,1.0,1.0,1.0
50.37,11.5056,1.0,1.0,1.0
50.38,14.0,1.0,1.0,1.0
50.39,10.4944,1.0,1.0,1.0
50.4,4.5056,1.0,1.0,1.0
50.41,9.0,1.0,1.0,1.0
50.42,16.0,1.0,1.0,1.0
50.43,15.0,1.0,1.0,1.0
50.44,16.4944,1.0,1.0,1.0
50.45,21.0,1.0,1.0,1.0
50.46,13.5056,1.0,1.0,1.0
50.47,11.0,1.0,1.0,1.0
50.48,14.0,1.0,1.0,1.0
50.49,2.0,1.0,1.0,1.0
50.5,6.0,1.0,1.0,1.0
50.51,19.0,1.0,1.0,1.0
50.52,13.4944,1.0,1.0,1.0
50.53,23.5056,1.0,1.0,1.0
50.54,19.0,1.0,1.0,1.0
50.55,13.0,1.0,1.0,1.0
50.56,7.4944,1.0,1.0,1.0
50.57,14.5056,1.0,1.0,1.0
50.58,18.0,1.0,1.0,1.0
50.59,14.0,1.0,1.0,1.0
50.6,9.0,1.0,1.0,1.0
50.61,18.0,1.0,1.0,1.0
50.62,16.0,1.0,1.0,1.0
50.63,3.0,1.0,1.0,1.0
50.64,11.0,1.0,1.0,1.0
50.65,5.0,1.0,1.0,1.0
50.66,8.0,1.0,1.0,1.0
50.67,8.0,1.0,1.0,1.0
50.68,16.0,1.0,1.0,1.0
50.69,7.0,1.0,1.0,1.0
50.7,13.0,1.0,1.0,1.0
50.71,15.0,1.0,1.0,1.0
50.72,10.4944,1.0,1.0,1.0
50.73,5.5056,1.0,1.0,1.0
50.74,9.0,1.0,1.0,1.0
50.75,15.0,1.0,1.0,1.0
50.76,11.0,1.0,1.0,1.0
50.77,0.0,1.0,1.0,1.0
50.78,8.0,1.0,1.0,1.0
50.79,5.0,1.0,1.0,1.0
50.8,5.4944,1.0,1.0,1.0
50.81,3.5056,1.0,1.0,1.0
50.82,10.0,1.0,1.0,1.0
50.83,0.0,1.0,1.0,1.0
50.84,2.0,1.0,1.0,1.0
50.85,12.0,1.0,1.0,1.0
50.86,2.0,1.0,1.0,1.0
50.87,5.0,1.0,1.0,1.0
50.88,7.0,1.0,1.0,1.0
50.89,4.0,1.0,1.0,1.0
50.9,3.0,1.0,1.0,1.0
50.91,4.0,1.0,1.0,1.0
50.92,14.0,1.0,1.0,1.0
50.93,7.0,1.0,1.0,1.0
50.94,0.0,1.0,1.0,1.0
50.95,14.0,1.0,1.0,1.0
50.96,0.0,1.0,1.0,1.0
50.97,5.0,1.0,1.0,1.0
50.98,4.0,1.0,1.0,1.0
50.99,9.0,1.0,1.0,1.0
51.0,11.0,1.0,1.0,1.0
51.01,8.0,1.0,1.0,1.0
51.02,7.0,1.0,1.0,1.0
51.03,9.0,1.0,1.0,1.0
51.04,2.0,1.0,1.0,1.0
51.05,0.0,1.0,1.0,1.0
51.06,8.0,1.0,1.0,1.0
51.07,13.4944,1.0,1.0,1.0
51.08,9.5056,1.0,1.0,1.0
51.09,7.0,1.0,1.0,1.0
51.1,3.0,1.0,1.0,1.0
51.11,5.0,1.0,1.0,1.0
51.12,7.0,1.0,1.0,1.0
51.13,3.9889,1.0,1.0,1.0
51.14,8.0111,1.0,1.0,1.0
51.15,2.0,1.0,1.0,1.0
51.16,9.0,1.0,1.0,1.0
51.17,9.0,1.0,1.0,1.0
51.18,10.4944,1.0,1.0,1.0
51.19,9.5056,1.0,1.0,1.0
51.2,0.0,1.0,1.0,1.0
51.21,3.0,1.0,1.0,1.0
51.22,3.0,1.0,1.0,1.0
51.23,7.4944,1.0,1.0,1.0
51.24,2.5056,1.0,1.0,1.0
51.25,12.0,1.0,1.0,1.0
51.26,5.0,1.0,1.0,1.0
51.27,9.0,1.0,1.0,1.0
51.28,3.0,1.0,1.0,1.0
51.29,3.0,1.0,1.0,1.0
51.3,4.0,1.0,1.0,1.0
51.31,5.0,1.0,1.0,1.0
51.32,0.0,1.0,1.0,1.0
51.33,5.0,1.0,1.0,1.0
51.34,4.0,1.0,1.0,1.0
51.35,0.0,1.0,1.0,1.0
51.36,7.0,1.0,1.0,1.0
51.37,5.0,1.0,1.0,1.0
51.38,11.0,1.0,1.0,1.0
51.39,0.4944,1.0,1.0,1.0
51.4,1.5056,1.0,1.0,1.0
51.41,0.0,1.0,1.0,1.0
51.42,9.0,1.0,1.0,1.0
51.43,5.0,1.0,1.0,1.0
51.44,4.0,1.0,1.0,1.0
51.45,2.0,1.0,1.0,1.0
51.46,58.0,1.0,1.0,1.0
51.47,7.0,1.0,1.0,1.0
51.48,7.0,1.0,1.0,1.0
51.49,4.4944,1.0,1.0,1.0
51.5,6.0,1.0,1.0,1.0
51.51,7.4944,1.0,1.0,1.0
51.52,6.0111,1.0,1.0,1.0
51.53,5.0,1.0,1.0,1.0
51.54,7.0,1.0,1.0,1.0
51.55,8.0,1.0,1.0,1.0
51.56,6.0,1.0,1.0,1.0
51.57,4.0,1.0,1.0,1.0
51.58,9.0,1.0,1.0,1.0
51.59,3.0,1.0,1.0,1.0
51.6,2.0,1.0,1.0,1.0
51.61,10.4944,1.0,1.0,1.0
51.62,9.5056,1.0,1.0,1.0
51.63,7.0,1.0,1.0,1.0
51.64,0.0,1.0,1.0,1.0
51.65,3.4944,1.0,1.0,1.0
51.66,7.5056,1.0,1.0,1.0
51.67,0.0,1.0,1.0,1.0
51.68,4.0,1.0,1.0,1.0
51.69,8.0,1.0,1.0,1.0
51.7,4.0,1.0,1.0,1.0
51.71,3.0,1.0,1.0,1.0
51.72,3.0,1.0,1.0,1.0
51.73,4.4944,1.0,1.0,1.0
51.74,4.5056,1.0,1.0,1.0
51.75,2.0,1.0,1.0,1.0
51.76,5.0,1.0,1.0,1.0
51.77,0.0,1.0,1.0,1.0
51.78,9.0,1.0,1.0,1.0
51.79,10.0,1.0,1.0,1.0
51.8,7.0,1.0,1.0,1.0
51.81,0.0,1.0,1.0,1.0
51.82,6.4944,1.0,1.0,1.0
51.83,12.5056,1.0,1.0,1.0
51.84,4.0,1.0,1.0,1.0
51.85,16.0,1.0,1.0,1.0
51.86,0.0,1.0,1.0,1.0
51.87,11.0,1.0,1.0,1.0
51.88,2.0,1.0,1.0,1.0
51.89,9.0,1.0,1.0,1.0
51.9,1.0,1.0,1.0,1.0
51.91,2.0,1.0,1.0,1.0
51.92,6.0,1.0,1.0,1.0
51.93,0.0,1.0,1.0,1.0
51.94,10.0,1.0,1.0,1.0
51.95,7.0,1.0,1.0,1.0
51.96,4.0,1.0,1.0,1.0
51.97,2.0,1.0,1.0,1.0
51.98,2.0,1.0,1.0,1.0
51.99,3.4944,1.0,1.0,1.0
52.0,10.5056,1.0,1.0,1.0