File: XRD:XRR/LCO/22157b_LCOT/22157b_LCOT_XRD.csv
#twotheta, yobs, ycal, bkg, diff
42.0,6.0,1.0,1.0,1.0
42.01,4.0,1.0,1.0,1.0
42.02,3.0,1.0,1.0,1.0
42.03,3.0,1.0,1.0,1.0
42.04,9.0,1.0,1.0,1.0
42.05,6.0,1.0,1.0,1.0
42.06,9.0,1.0,1.0,1.0
42.07,4.0,1.0,1.0,1.0
42.08,10.0,1.0,1.0,1.0
42.09,0.0,1.0,1.0,1.0
42.1,9.0,1.0,1.0,1.0
42.11,10.0,1.0,1.0,1.0
42.12,5.4944,1.0,1.0,1.0
42.13,8.0,1.0,1.0,1.0
42.14,8.5056,1.0,1.0,1.0
42.15,9.0,1.0,1.0,1.0
42.16,5.0,1.0,1.0,1.0
42.17,15.0,1.0,1.0,1.0
42.18,11.0,1.0,1.0,1.0
42.19,3.0,1.0,1.0,1.0
42.2,12.0,1.0,1.0,1.0
42.21,13.4944,1.0,1.0,1.0
42.22,16.5056,1.0,1.0,1.0
42.23,15.4944,1.0,1.0,1.0
42.24,15.5056,1.0,1.0,1.0
42.25,22.0,1.0,1.0,1.0
42.26,8.0,1.0,1.0,1.0
42.27,9.4944,1.0,1.0,1.0
42.28,4.5056,1.0,1.0,1.0
42.29,9.0,1.0,1.0,1.0
42.3,21.0,1.0,1.0,1.0
42.31,6.9889,1.0,1.0,1.0
42.32,14.0111,1.0,1.0,1.0
42.33,12.4944,1.0,1.0,1.0
42.34,13.5056,1.0,1.0,1.0
42.35,30.0,1.0,1.0,1.0
42.36,16.0,1.0,1.0,1.0
42.37,28.4944,1.0,1.0,1.0
42.38,16.5056,1.0,1.0,1.0
42.39,15.4944,1.0,1.0,1.0
42.4,20.5056,1.0,1.0,1.0
42.41,7.0,1.0,1.0,1.0
42.42,6.0,1.0,1.0,1.0
42.43,23.0,1.0,1.0,1.0
42.44,15.4944,1.0,1.0,1.0
42.45,23.5056,1.0,1.0,1.0
42.46,13.4944,1.0,1.0,1.0
42.47,32.4944,1.0,1.0,1.0
42.48,26.5056,1.0,1.0,1.0
42.49,12.5056,1.0,1.0,1.0
42.5,22.0,1.0,1.0,1.0
42.51,15.0,1.0,1.0,1.0
42.52,14.4944,1.0,1.0,1.0
42.53,17.5056,1.0,1.0,1.0
42.54,14.4944,1.0,1.0,1.0
42.55,10.0,1.0,1.0,1.0
42.56,12.5056,1.0,1.0,1.0
42.57,16.0,1.0,1.0,1.0
42.58,15.0,1.0,1.0,1.0
42.59,12.0,1.0,1.0,1.0
42.6,11.0,1.0,1.0,1.0
42.61,5.0,1.0,1.0,1.0
42.62,5.0,1.0,1.0,1.0
42.63,13.0,1.0,1.0,1.0
42.64,14.4944,1.0,1.0,1.0
42.65,11.5056,1.0,1.0,1.0
42.66,17.0,1.0,1.0,1.0
42.67,12.4944,1.0,1.0,1.0
42.68,8.5056,1.0,1.0,1.0
42.69,7.0,1.0,1.0,1.0
42.7,5.0,1.0,1.0,1.0
42.71,5.0,1.0,1.0,1.0
42.72,9.0,1.0,1.0,1.0
42.73,16.0,1.0,1.0,1.0
42.74,3.0,1.0,1.0,1.0
42.75,14.0,1.0,1.0,1.0
42.76,16.4944,1.0,1.0,1.0
42.77,11.5056,1.0,1.0,1.0
42.78,13.0,1.0,1.0,1.0
42.79,7.0,1.0,1.0,1.0
42.8,11.4944,1.0,1.0,1.0
42.81,8.5056,1.0,1.0,1.0
42.82,5.0,1.0,1.0,1.0
42.83,17.4944,1.0,1.0,1.0
42.84,6.5056,1.0,1.0,1.0
42.85,7.0,1.0,1.0,1.0
42.86,13.0,1.0,1.0,1.0
42.87,13.0,1.0,1.0,1.0
42.88,25.0,1.0,1.0,1.0
42.89,10.9889,1.0,1.0,1.0
42.9,19.0111,1.0,1.0,1.0
42.91,24.0,1.0,1.0,1.0
42.92,17.0,1.0,1.0,1.0
42.93,16.0,1.0,1.0,1.0
42.94,13.0,1.0,1.0,1.0
42.95,15.0,1.0,1.0,1.0
42.96,26.0,1.0,1.0,1.0
42.97,15.0,1.0,1.0,1.0
42.98,37.0,1.0,1.0,1.0
42.99,28.4944,1.0,1.0,1.0
43.0,32.5056,1.0,1.0,1.0
43.01,19.4944,1.0,1.0,1.0
43.02,23.5056,1.0,1.0,1.0
43.03,24.0,1.0,1.0,1.0
43.04,30.0,1.0,1.0,1.0
43.05,28.4944,1.0,1.0,1.0
43.06,23.0,1.0,1.0,1.0
43.07,39.4944,1.0,1.0,1.0
43.08,35.0,1.0,1.0,1.0
43.09,47.5056,1.0,1.0,1.0
43.1,24.5056,1.0,1.0,1.0
43.11,32.4944,1.0,1.0,1.0
43.12,33.0,1.0,1.0,1.0
43.13,35.0,1.0,1.0,1.0
43.14,28.5056,1.0,1.0,1.0
43.15,39.4833,1.0,1.0,1.0
43.16,24.5167,1.0,1.0,1.0
43.17,29.0,1.0,1.0,1.0
43.18,37.4944,1.0,1.0,1.0
43.19,43.5056,1.0,1.0,1.0
43.2,36.0,1.0,1.0,1.0
43.21,33.0,1.0,1.0,1.0
43.22,31.0,1.0,1.0,1.0
43.23,24.0,1.0,1.0,1.0
43.24,24.0,1.0,1.0,1.0
43.25,33.0,1.0,1.0,1.0
43.26,30.4944,1.0,1.0,1.0
43.27,26.5056,1.0,1.0,1.0
43.28,21.4944,1.0,1.0,1.0
43.29,30.5056,1.0,1.0,1.0
43.3,29.0,1.0,1.0,1.0
43.31,25.4944,1.0,1.0,1.0
43.32,19.5056,1.0,1.0,1.0
43.33,15.0,1.0,1.0,1.0
43.34,9.0,1.0,1.0,1.0
43.35,14.0,1.0,1.0,1.0
43.36,10.0,1.0,1.0,1.0
43.37,14.0,1.0,1.0,1.0
43.38,8.0,1.0,1.0,1.0
43.39,7.0,1.0,1.0,1.0
43.4,7.4944,1.0,1.0,1.0
43.41,12.5056,1.0,1.0,1.0
43.42,10.0,1.0,1.0,1.0
43.43,10.0,1.0,1.0,1.0
43.44,16.0,1.0,1.0,1.0
43.45,12.0,1.0,1.0,1.0
43.46,15.0,1.0,1.0,1.0
43.47,10.0,1.0,1.0,1.0
43.48,10.0,1.0,1.0,1.0
43.49,23.4944,1.0,1.0,1.0
43.5,12.5056,1.0,1.0,1.0
43.51,13.0,1.0,1.0,1.0
43.52,9.0,1.0,1.0,1.0
43.53,17.0,1.0,1.0,1.0
43.54,11.0,1.0,1.0,1.0
43.55,16.0,1.0,1.0,1.0
43.56,26.9889,1.0,1.0,1.0
43.57,13.5056,1.0,1.0,1.0
43.58,13.5056,1.0,1.0,1.0
43.59,20.9889,1.0,1.0,1.0
43.6,25.0111,1.0,1.0,1.0
43.61,23.0,1.0,1.0,1.0
43.62,29.4944,1.0,1.0,1.0
43.63,41.4944,1.0,1.0,1.0
43.64,34.5056,1.0,1.0,1.0
43.65,25.0,1.0,1.0,1.0
43.66,38.4944,1.0,1.0,1.0
43.67,62.5056,1.0,1.0,1.0
43.68,43.5056,1.0,1.0,1.0
43.69,65.0,1.0,1.0,1.0
43.7,51.9889,1.0,1.0,1.0
43.71,34.0111,1.0,1.0,1.0
43.72,40.0,1.0,1.0,1.0
43.73,56.0,1.0,1.0,1.0
43.74,41.0,1.0,1.0,1.0
43.75,55.4944,1.0,1.0,1.0
43.76,51.0,1.0,1.0,1.0
43.77,42.5056,1.0,1.0,1.0
43.78,53.4944,1.0,1.0,1.0
43.79,62.9889,1.0,1.0,1.0
43.8,45.0111,1.0,1.0,1.0
43.81,43.4944,1.0,1.0,1.0
43.82,63.0111,1.0,1.0,1.0
43.83,41.4944,1.0,1.0,1.0
43.84,80.9778,1.0,1.0,1.0
43.85,61.5167,1.0,1.0,1.0
43.86,54.5056,1.0,1.0,1.0
43.87,55.5056,1.0,1.0,1.0
43.88,49.4944,1.0,1.0,1.0
43.89,31.0,1.0,1.0,1.0
43.9,38.5056,1.0,1.0,1.0
43.91,25.4944,1.0,1.0,1.0
43.92,58.5056,1.0,1.0,1.0
43.93,35.0,1.0,1.0,1.0
43.94,54.9889,1.0,1.0,1.0
43.95,54.0,1.0,1.0,1.0
43.96,42.0111,1.0,1.0,1.0
43.97,31.9889,1.0,1.0,1.0
43.98,26.4944,1.0,1.0,1.0
43.99,36.5167,1.0,1.0,1.0
44.0,26.0,1.0,1.0,1.0
44.01,26.0,1.0,1.0,1.0
44.02,33.0,1.0,1.0,1.0
44.03,25.4944,1.0,1.0,1.0
44.04,19.0,1.0,1.0,1.0
44.05,17.5056,1.0,1.0,1.0
44.06,17.0,1.0,1.0,1.0
44.07,22.0,1.0,1.0,1.0
44.08,5.0,1.0,1.0,1.0
44.09,20.0,1.0,1.0,1.0
44.1,25.0,1.0,1.0,1.0
44.11,26.0,1.0,1.0,1.0
44.12,10.0,1.0,1.0,1.0
44.13,16.0,1.0,1.0,1.0
44.14,20.0,1.0,1.0,1.0
44.15,20.0,1.0,1.0,1.0
44.16,23.0,1.0,1.0,1.0
44.17,21.0,1.0,1.0,1.0
44.18,10.0,1.0,1.0,1.0
44.19,23.4944,1.0,1.0,1.0
44.2,22.0,1.0,1.0,1.0
44.21,29.0,1.0,1.0,1.0
44.22,32.0,1.0,1.0,1.0
44.23,33.0,1.0,1.0,1.0
44.24,33.4944,1.0,1.0,1.0
44.25,41.0111,1.0,1.0,1.0
44.26,36.0,1.0,1.0,1.0
44.27,39.9778,1.0,1.0,1.0
44.28,49.0222,1.0,1.0,1.0
44.29,50.9889,1.0,1.0,1.0
44.3,61.0,1.0,1.0,1.0
44.31,54.5056,1.0,1.0,1.0
44.32,43.5056,1.0,1.0,1.0
44.33,79.9889,1.0,1.0,1.0
44.34,60.5056,1.0,1.0,1.0
44.35,50.4944,1.0,1.0,1.0
44.36,86.9889,1.0,1.0,1.0
44.37,68.5056,1.0,1.0,1.0
44.38,95.4944,1.0,1.0,1.0
44.39,69.5167,1.0,1.0,1.0
44.4,80.0,1.0,1.0,1.0
44.41,95.5056,1.0,1.0,1.0
44.42,86.4944,1.0,1.0,1.0
44.43,102.9889,1.0,1.0,1.0
44.44,124.5056,1.0,1.0,1.0
44.45,100.0,1.0,1.0,1.0
44.46,124.9889,1.0,1.0,1.0
44.47,130.5167,1.0,1.0,1.0
44.48,104.0,1.0,1.0,1.0
44.49,109.4833,1.0,1.0,1.0
44.5,115.0,1.0,1.0,1.0
44.51,131.5167,1.0,1.0,1.0
44.52,123.4833,1.0,1.0,1.0
44.53,118.5056,1.0,1.0,1.0
44.54,132.5056,1.0,1.0,1.0
44.55,95.4944,1.0,1.0,1.0
44.56,108.4944,1.0,1.0,1.0
44.57,142.0,1.0,1.0,1.0
44.58,104.4944,1.0,1.0,1.0
44.59,117.5167,1.0,1.0,1.0
44.6,110.4944,1.0,1.0,1.0
44.61,87.4944,1.0,1.0,1.0
44.62,102.0111,1.0,1.0,1.0
44.63,120.0,1.0,1.0,1.0
44.64,103.0,1.0,1.0,1.0
44.65,83.5056,1.0,1.0,1.0
44.66,75.0,1.0,1.0,1.0
44.67,81.9889,1.0,1.0,1.0
44.68,80.0111,1.0,1.0,1.0
44.69,71.4944,1.0,1.0,1.0
44.7,86.0,1.0,1.0,1.0
44.71,60.5056,1.0,1.0,1.0
44.72,60.0,1.0,1.0,1.0
44.73,54.0,1.0,1.0,1.0
44.74,47.0,1.0,1.0,1.0
44.75,41.5056,1.0,1.0,1.0
44.76,47.4944,1.0,1.0,1.0
44.77,52.5056,1.0,1.0,1.0
44.78,34.4944,1.0,1.0,1.0
44.79,48.9889,1.0,1.0,1.0
44.8,15.5167,1.0,1.0,1.0
44.81,25.0,1.0,1.0,1.0
44.82,28.0,1.0,1.0,1.0
44.83,26.4944,1.0,1.0,1.0
44.84,26.5056,1.0,1.0,1.0
44.85,35.0,1.0,1.0,1.0
44.86,19.0,1.0,1.0,1.0
44.87,29.4944,1.0,1.0,1.0
44.88,28.9889,1.0,1.0,1.0
44.89,36.0,1.0,1.0,1.0
44.9,21.5167,1.0,1.0,1.0
44.91,32.4944,1.0,1.0,1.0
44.92,38.0,1.0,1.0,1.0
44.93,46.5056,1.0,1.0,1.0
44.94,59.0,1.0,1.0,1.0
44.95,61.0,1.0,1.0,1.0
44.96,65.0,1.0,1.0,1.0
44.97,76.4944,1.0,1.0,1.0
44.98,89.4833,1.0,1.0,1.0
44.99,85.0,1.0,1.0,1.0
45.0,109.0222,1.0,1.0,1.0
45.01,101.4833,1.0,1.0,1.0
45.02,113.0111,1.0,1.0,1.0
45.03,108.4833,1.0,1.0,1.0
45.04,130.5056,1.0,1.0,1.0
45.05,126.5167,1.0,1.0,1.0
45.06,140.9778,1.0,1.0,1.0
45.07,174.0,1.0,1.0,1.0
45.08,153.0111,1.0,1.0,1.0
45.09,166.9889,1.0,1.0,1.0
45.1,246.9889,1.0,1.0,1.0
45.11,164.0222,1.0,1.0,1.0
45.12,194.9778,1.0,1.0,1.0
45.13,220.0,1.0,1.0,1.0
45.14,244.0333,1.0,1.0,1.0
45.15,221.4833,1.0,1.0,1.0
45.16,219.9889,1.0,1.0,1.0
45.17,228.0222,1.0,1.0,1.0
45.18,255.4722,1.0,1.0,1.0
45.19,223.0,1.0,1.0,1.0
45.2,273.0,1.0,1.0,1.0
45.21,258.5167,1.0,1.0,1.0
45.22,261.9889,1.0,1.0,1.0
45.23,280.0,1.0,1.0,1.0
45.24,306.4833,1.0,1.0,1.0
45.25,293.0111,1.0,1.0,1.0
45.26,267.0,1.0,1.0,1.0
45.27,248.0,1.0,1.0,1.0
45.28,270.4833,1.0,1.0,1.0
45.29,266.5389,1.0,1.0,1.0
45.3,268.4833,1.0,1.0,1.0
45.31,222.4944,1.0,1.0,1.0
45.32,266.0222,1.0,1.0,1.0
45.33,235.4833,1.0,1.0,1.0
45.34,257.9889,1.0,1.0,1.0
45.35,201.0111,1.0,1.0,1.0
45.36,214.5167,1.0,1.0,1.0
45.37,220.4833,1.0,1.0,1.0
45.38,199.5167,1.0,1.0,1.0
45.39,195.0,1.0,1.0,1.0
45.4,182.4944,1.0,1.0,1.0
45.41,201.4722,1.0,1.0,1.0
45.42,138.5389,1.0,1.0,1.0
45.43,156.0,1.0,1.0,1.0
45.44,129.0,1.0,1.0,1.0
45.45,131.0,1.0,1.0,1.0
45.46,108.0,1.0,1.0,1.0
45.47,88.0,1.0,1.0,1.0
45.48,109.9889,1.0,1.0,1.0
45.49,99.0111,1.0,1.0,1.0
45.5,84.0,1.0,1.0,1.0
45.51,77.5056,1.0,1.0,1.0
45.52,78.0,1.0,1.0,1.0
45.53,62.9889,1.0,1.0,1.0
45.54,89.0,1.0,1.0,1.0
45.55,72.5056,1.0,1.0,1.0
45.56,114.5056,1.0,1.0,1.0
45.57,84.9778,1.0,1.0,1.0
45.58,105.4833,1.0,1.0,1.0
45.59,107.0222,1.0,1.0,1.0
45.6,116.0,1.0,1.0,1.0
45.61,165.5056,1.0,1.0,1.0
45.62,159.5056,1.0,1.0,1.0
45.63,190.9778,1.0,1.0,1.0
45.64,201.0,1.0,1.0,1.0
45.65,221.0111,1.0,1.0,1.0
45.66,272.4944,1.0,1.0,1.0
45.67,257.4944,1.0,1.0,1.0
45.68,308.0,1.0,1.0,1.0
45.69,323.5167,1.0,1.0,1.0
45.7,373.9667,1.0,1.0,1.0
45.71,377.4833,1.0,1.0,1.0
45.72,429.0222,1.0,1.0,1.0
45.73,469.5056,1.0,1.0,1.0
45.74,583.9889,1.0,1.0,1.0
45.75,617.4722,1.0,1.0,1.0
45.76,621.0222,1.0,1.0,1.0
45.77,745.4722,1.0,1.0,1.0
45.78,754.5056,1.0,1.0,1.0
45.79,794.4722,1.0,1.0,1.0
45.8,856.4833,1.0,1.0,1.0
45.81,1005.48,1.0,1.0,1.0
45.82,974.0555,1.0,1.0,1.0
45.83,1063.42,1.0,1.0,1.0
45.84,1259.51,1.0,1.0,1.0
45.85,1199.08,1.0,1.0,1.0
45.86,1264.9,1.0,1.0,1.0
45.87,1368.54,1.0,1.0,1.0
45.88,1391.52,1.0,1.0,1.0
45.89,1457.44,1.0,1.0,1.0
45.9,1535.02,1.0,1.0,1.0
45.91,1586.94,1.0,1.0,1.0
45.92,1670.04,1.0,1.0,1.0
45.93,1814.46,1.0,1.0,1.0
45.94,1836.04,1.0,1.0,1.0
45.95,1893.97,1.0,1.0,1.0
45.96,1919.91,1.0,1.0,1.0
45.97,2108.57,1.0,1.0,1.0
45.98,2058.53,1.0,1.0,1.0
45.99,2115.45,1.0,1.0,1.0
46.0,2195.98,1.0,1.0,1.0
46.01,2112.52,1.0,1.0,1.0
46.02,2190.01,1.0,1.0,1.0
46.03,2307.97,1.0,1.0,1.0
46.04,2410.49,1.0,1.0,1.0
46.05,2318.55,1.0,1.0,1.0
46.06,2373.39,1.0,1.0,1.0
46.07,2452.09,1.0,1.0,1.0
46.08,2416.39,1.0,1.0,1.0
46.09,2400.12,1.0,1.0,1.0
46.1,2417.46,1.0,1.0,1.0
46.11,2525.47,1.0,1.0,1.0
46.12,2477.02,1.0,1.0,1.0
46.13,2518.48,1.0,1.0,1.0
46.14,2604.51,1.0,1.0,1.0
46.15,2504.51,1.0,1.0,1.0
46.16,2523.98,1.0,1.0,1.0
46.17,2431.55,1.0,1.0,1.0
46.18,2375.48,1.0,1.0,1.0
46.19,2358.0,1.0,1.0,1.0
46.2,2367.06,1.0,1.0,1.0
46.21,2321.49,1.0,1.0,1.0
46.22,2262.46,1.0,1.0,1.0
46.23,2189.561,1.0,1.0,1.0
46.24,2217.88,1.0,1.0,1.0
46.25,2193.12,1.0,1.0,1.0
46.26,2170.97,1.0,1.0,1.0
46.27,2175.02,1.0,1.0,1.0
46.28,2161.46,1.0,1.0,1.0
46.29,2165.98,1.0,1.0,1.0
46.3,2298.48,1.0,1.0,1.0
46.31,2343.45,1.0,1.0,1.0
46.32,2645.06,1.0,1.0,1.0
46.33,2986.41,1.0,1.0,1.0
46.34,3834.94,1.0,1.0,1.0
46.35,5275.29,1.0,1.0,1.0
46.36,7600.67,1.0,1.0,1.0
46.37,12343.2,1.0,1.0,1.0
46.38,21831.5,1.0,1.0,1.0
46.39,42857.6,1.0,1.0,1.0
46.4,79237.4,1.0,1.0,1.0
46.41,132337,1.0,1.0,1.0
46.42,203165,1.0,1.0,1.0
46.43,314036,1.0,1.0,1.0
46.44,505219,1.0,1.0,1.0
46.45,818578.875,1.0,1.0,1.0
46.46,1353428.875,1.0,1.0,1.0
46.47,1947150.375,1.0,1.0,1.0
46.48,2366741.0,1.0,1.0,1.0
46.49,3774583.75,1.0,1.0,1.0
46.5,14588482.0,1.0,1.0,1.0
46.51,11606416.0,1.0,1.0,1.0
46.52,23210682.0,1.0,1.0,1.0
46.53,35778048.0,1.0,1.0,1.0
46.54,4834167.5,1.0,1.0,1.0
46.55,1066847.375,1.0,1.0,1.0
46.56,474803.625,1.0,1.0,1.0
46.57,278347.625,1.0,1.0,1.0
46.58,190487,1.0,1.0,1.0
46.59,135107,1.0,1.0,1.0
46.6,99147.25,1.0,1.0,1.0
46.61,79287.3,1.0,1.0,1.0
46.62,67885.6,1.0,1.0,1.0
46.63,58985,1.0,1.0,1.0
46.64,53124.7,1.0,1.0,1.0
46.65,47822.4,1.0,1.0,1.0
46.66,43860,1.0,1.0,1.0
46.67,40088.75,1.0,1.0,1.0
46.68,37647.4,1.0,1.0,1.0
46.69,34952.5,1.0,1.0,1.0
46.7,32997.7,1.0,1.0,1.0
46.71,31558.6,1.0,1.0,1.0
46.72,29707.873,1.0,1.0,1.0
46.73,28562.8,1.0,1.0,1.0
46.74,27204.5,1.0,1.0,1.0
46.75,26047.2,1.0,1.0,1.0
46.76,24665.5,1.0,1.0,1.0
46.77,23954.7,1.0,1.0,1.0
46.78,23064.7,1.0,1.0,1.0
46.79,22363.877,1.0,1.0,1.0
46.8,21466.6,1.0,1.0,1.0
46.81,20681.1,1.0,1.0,1.0
46.82,19913.3,1.0,1.0,1.0
46.83,19521.3,1.0,1.0,1.0
46.84,18952.2,1.0,1.0,1.0
46.85,18336.4,1.0,1.0,1.0
46.86,17615.2,1.0,1.0,1.0
46.87,17174.2,1.0,1.0,1.0
46.88,16477.5,1.0,1.0,1.0
46.89,15960.583,1.0,1.0,1.0
46.9,15636.9,1.0,1.0,1.0
46.91,15104.7,1.0,1.0,1.0
46.92,14666.4,1.0,1.0,1.0
46.93,13964.583,1.0,1.0,1.0
46.94,13763.1,1.0,1.0,1.0
46.95,13040.5,1.0,1.0,1.0
46.96,12878.8,1.0,1.0,1.0
46.97,12219.9,1.0,1.0,1.0
46.98,11840.1,1.0,1.0,1.0
46.99,11407.583,1.0,1.0,1.0
47.0,11192.3,1.0,1.0,1.0
47.01,10832.2,1.0,1.0,1.0
47.02,10267.2,1.0,1.0,1.0
47.03,9711.48,1.0,1.0,1.0
47.04,9501.11,1.0,1.0,1.0
47.05,9154.97,1.0,1.0,1.0
47.06,8757.54,1.0,1.0,1.0
47.07,8386.12,1.0,1.0,1.0
47.08,7967.94,1.0,1.0,1.0
47.09,7555.09,1.0,1.0,1.0
47.1,7233.43,1.0,1.0,1.0
47.11,6895.02,1.0,1.0,1.0
47.12,6580.69,1.0,1.0,1.0
47.13,6140.42,1.0,1.0,1.0
47.14,5824.55,1.0,1.0,1.0
47.15,5511.06,1.0,1.0,1.0
47.16,5146.06,1.0,1.0,1.0
47.17,4910.51,1.0,1.0,1.0
47.18,4501.59,1.0,1.0,1.0
47.19,4423.58,1.0,1.0,1.0
47.2,4039.94,1.0,1.0,1.0
47.21,3845.58,1.0,1.0,1.0
47.22,3560.06,1.0,1.0,1.0
47.23,3228.49,1.0,1.0,1.0
47.24,3044.94,1.0,1.0,1.0
47.25,2775.02,1.0,1.0,1.0
47.26,2515.54,1.0,1.0,1.0
47.27,2363.06,1.0,1.0,1.0
47.28,2162.47,1.0,1.0,1.0
47.29,1942.1,1.0,1.0,1.0
47.3,1755.01,1.0,1.0,1.0
47.31,1625.0,1.0,1.0,1.0
47.32,1408.98,1.0,1.0,1.0
47.33,1270.54,1.0,1.0,1.0
47.34,1181.99,1.0,1.0,1.0
47.35,1092.03,1.0,1.0,1.0
47.36,931.4944,1.0,1.0,1.0
47.37,857.4944,1.0,1.0,1.0
47.38,678.5278,1.0,1.0,1.0
47.39,578.5389,1.0,1.0,1.0
47.4,543.0111,1.0,1.0,1.0
47.41,424.4944,1.0,1.0,1.0
47.42,386.5056,1.0,1.0,1.0
47.43,373.5056,1.0,1.0,1.0
47.44,299.9778,1.0,1.0,1.0
47.45,238.0444,1.0,1.0,1.0
47.46,192.4944,1.0,1.0,1.0
47.47,183.5167,1.0,1.0,1.0
47.48,145.4944,1.0,1.0,1.0
47.49,146.9889,1.0,1.0,1.0
47.5,113.5167,1.0,1.0,1.0
47.51,92.0,1.0,1.0,1.0
47.52,126.4944,1.0,1.0,1.0
47.53,103.4833,1.0,1.0,1.0
47.54,133.5056,1.0,1.0,1.0
47.55,118.5056,1.0,1.0,1.0
47.56,162.0,1.0,1.0,1.0
47.57,224.5056,1.0,1.0,1.0
47.58,192.9889,1.0,1.0,1.0
47.59,225.9889,1.0,1.0,1.0
47.6,233.5056,1.0,1.0,1.0
47.61,261.5167,1.0,1.0,1.0
47.62,260.9889,1.0,1.0,1.0
47.63,299.4833,1.0,1.0,1.0
47.64,356.0111,1.0,1.0,1.0
47.65,308.5056,1.0,1.0,1.0
47.66,379.9778,1.0,1.0,1.0
47.67,460.4833,1.0,1.0,1.0
47.68,457.5167,1.0,1.0,1.0
47.69,521.4944,1.0,1.0,1.0
47.7,493.0111,1.0,1.0,1.0
47.71,553.9778,1.0,1.0,1.0
47.72,497.0222,1.0,1.0,1.0
47.73,536.0,1.0,1.0,1.0
47.74,562.9889,1.0,1.0,1.0
47.75,626.0111,1.0,1.0,1.0
47.76,598.4278,1.0,1.0,1.0
47.77,582.0333,1.0,1.0,1.0
47.78,591.9556,1.0,1.0,1.0
47.79,607.0667,1.0,1.0,1.0
47.8,668.4944,1.0,1.0,1.0
47.81,709.4722,1.0,1.0,1.0
47.82,645.0222,1.0,1.0,1.0
47.83,650.4833,1.0,1.0,1.0
47.84,670.0555,1.0,1.0,1.0
47.85,693.4167,1.0,1.0,1.0
47.86,601.5722,1.0,1.0,1.0
47.87,637.9556,1.0,1.0,1.0
47.88,637.5056,1.0,1.0,1.0
47.89,625.0333,1.0,1.0,1.0
47.9,609.4944,1.0,1.0,1.0
47.91,552.9778,1.0,1.0,1.0
47.92,594.0222,1.0,1.0,1.0
47.93,543.4944,1.0,1.0,1.0
47.94,552.0,1.0,1.0,1.0
47.95,453.9889,1.0,1.0,1.0
47.96,458.0444,1.0,1.0,1.0
47.97,444.9889,1.0,1.0,1.0
47.98,499.5056,1.0,1.0,1.0
47.99,456.9667,1.0,1.0,1.0
48.0,430.0,1.0,1.0,1.0
48.01,362.0222,1.0,1.0,1.0
48.02,387.0222,1.0,1.0,1.0
48.03,317.4833,1.0,1.0,1.0
48.04,303.0111,1.0,1.0,1.0
48.05,296.9889,1.0,1.0,1.0
48.06,267.5167,1.0,1.0,1.0
48.07,276.4833,1.0,1.0,1.0
48.08,235.5278,1.0,1.0,1.0
48.09,224.4944,1.0,1.0,1.0
48.1,192.9889,1.0,1.0,1.0
48.11,188.5167,1.0,1.0,1.0
48.12,154.9778,1.0,1.0,1.0
48.13,152.5278,1.0,1.0,1.0
48.14,123.4833,1.0,1.0,1.0
48.15,125.4944,1.0,1.0,1.0
48.16,117.0111,1.0,1.0,1.0
48.17,74.9889,1.0,1.0,1.0
48.18,62.0111,1.0,1.0,1.0
48.19,63.4833,1.0,1.0,1.0
48.2,55.5278,1.0,1.0,1.0
48.21,40.9778,1.0,1.0,1.0
48.22,42.0222,1.0,1.0,1.0
48.23,41.0,1.0,1.0,1.0
48.24,42.9889,1.0,1.0,1.0
48.25,50.0111,1.0,1.0,1.0
48.26,39.9889,1.0,1.0,1.0
48.27,46.0111,1.0,1.0,1.0
48.28,26.4944,1.0,1.0,1.0
48.29,30.4944,1.0,1.0,1.0
48.3,29.0,1.0,1.0,1.0
48.31,38.5056,1.0,1.0,1.0
48.32,39.5056,1.0,1.0,1.0
48.33,47.4944,1.0,1.0,1.0
48.34,46.5056,1.0,1.0,1.0
48.35,69.0,1.0,1.0,1.0
48.36,51.4944,1.0,1.0,1.0
48.37,66.9889,1.0,1.0,1.0
48.38,62.5167,1.0,1.0,1.0
48.39,76.4944,1.0,1.0,1.0
48.4,92.9889,1.0,1.0,1.0
48.41,84.5056,1.0,1.0,1.0
48.42,102.0,1.0,1.0,1.0
48.43,112.0111,1.0,1.0,1.0
48.44,101.0,1.0,1.0,1.0
48.45,106.9889,1.0,1.0,1.0
48.46,126.4833,1.0,1.0,1.0
48.47,131.5278,1.0,1.0,1.0
48.48,127.4944,1.0,1.0,1.0
48.49,133.9889,1.0,1.0,1.0
48.5,138.5056,1.0,1.0,1.0
48.51,117.4944,1.0,1.0,1.0
48.52,147.0,1.0,1.0,1.0
48.53,163.4944,1.0,1.0,1.0
48.54,181.5056,1.0,1.0,1.0
48.55,137.4944,1.0,1.0,1.0
48.56,147.4944,1.0,1.0,1.0
48.57,130.0111,1.0,1.0,1.0
48.58,161.5056,1.0,1.0,1.0
48.59,151.0,1.0,1.0,1.0
48.6,171.0,1.0,1.0,1.0
48.61,155.4833,1.0,1.0,1.0
48.62,142.5278,1.0,1.0,1.0
48.63,159.0,1.0,1.0,1.0
48.64,140.9778,1.0,1.0,1.0
48.65,131.0111,1.0,1.0,1.0
48.66,127.4944,1.0,1.0,1.0
48.67,151.0,1.0,1.0,1.0
48.68,125.5167,1.0,1.0,1.0
48.69,132.9778,1.0,1.0,1.0
48.7,112.5167,1.0,1.0,1.0
48.71,115.9889,1.0,1.0,1.0
48.72,96.0,1.0,1.0,1.0
48.73,122.0,1.0,1.0,1.0
48.74,114.5056,1.0,1.0,1.0
48.75,98.0111,1.0,1.0,1.0
48.76,92.0,1.0,1.0,1.0
48.77,69.4944,1.0,1.0,1.0
48.78,89.0,1.0,1.0,1.0
48.79,63.0,1.0,1.0,1.0
48.8,59.5056,1.0,1.0,1.0
48.81,45.0,1.0,1.0,1.0
48.82,50.0,1.0,1.0,1.0
48.83,49.9889,1.0,1.0,1.0
48.84,47.5056,1.0,1.0,1.0
48.85,32.4944,1.0,1.0,1.0
48.86,37.0,1.0,1.0,1.0
48.87,37.5056,1.0,1.0,1.0
48.88,46.5056,1.0,1.0,1.0
48.89,26.4944,1.0,1.0,1.0
48.9,16.5056,1.0,1.0,1.0
48.91,16.0,1.0,1.0,1.0
48.92,14.0,1.0,1.0,1.0
48.93,19.0,1.0,1.0,1.0
48.94,10.0,1.0,1.0,1.0
48.95,22.0,1.0,1.0,1.0
48.96,29.0,1.0,1.0,1.0
48.97,15.0,1.0,1.0,1.0
48.98,26.4944,1.0,1.0,1.0
48.99,28.5056,1.0,1.0,1.0
49.0,21.0,1.0,1.0,1.0
49.01,24.4944,1.0,1.0,1.0
49.02,34.4944,1.0,1.0,1.0
49.03,21.0111,1.0,1.0,1.0
49.04,30.0,1.0,1.0,1.0
49.05,23.0,1.0,1.0,1.0
49.06,38.0,1.0,1.0,1.0
49.07,29.4944,1.0,1.0,1.0
49.08,35.5056,1.0,1.0,1.0
49.09,24.0,1.0,1.0,1.0
49.1,16.0,1.0,1.0,1.0
49.11,41.4833,1.0,1.0,1.0
49.12,45.5167,1.0,1.0,1.0
49.13,37.0,1.0,1.0,1.0
49.14,22.0,1.0,1.0,1.0
49.15,47.4944,1.0,1.0,1.0
49.16,20.5056,1.0,1.0,1.0
49.17,34.0,1.0,1.0,1.0
49.18,44.4944,1.0,1.0,1.0
49.19,63.0,1.0,1.0,1.0
49.2,59.4944,1.0,1.0,1.0
49.21,40.5056,1.0,1.0,1.0
49.22,56.0,1.0,1.0,1.0
49.23,47.5056,1.0,1.0,1.0
49.24,22.9889,1.0,1.0,1.0
49.25,54.5056,1.0,1.0,1.0
49.26,52.0,1.0,1.0,1.0
49.27,46.5056,1.0,1.0,1.0
49.28,50.0,1.0,1.0,1.0
49.29,54.0,1.0,1.0,1.0
49.3,37.0,1.0,1.0,1.0
49.31,63.4944,1.0,1.0,1.0
49.32,52.4944,1.0,1.0,1.0
49.33,69.9889,1.0,1.0,1.0
49.34,49.0222,1.0,1.0,1.0
49.35,48.9889,1.0,1.0,1.0
49.36,47.5056,1.0,1.0,1.0
49.37,37.5056,1.0,1.0,1.0
49.38,50.4944,1.0,1.0,1.0
49.39,32.5056,1.0,1.0,1.0
49.4,49.4944,1.0,1.0,1.0
49.41,44.4833,1.0,1.0,1.0
49.42,32.5167,1.0,1.0,1.0
49.43,30.4944,1.0,1.0,1.0
49.44,41.0,1.0,1.0,1.0
49.45,44.0,1.0,1.0,1.0
49.46,25.0111,1.0,1.0,1.0
49.47,30.4944,1.0,1.0,1.0
49.48,15.5056,1.0,1.0,1.0
49.49,29.0,1.0,1.0,1.0
49.5,31.4944,1.0,1.0,1.0
49.51,30.5056,1.0,1.0,1.0
49.52,22.0,1.0,1.0,1.0
49.53,35.4944,1.0,1.0,1.0
49.54,24.5056,1.0,1.0,1.0
49.55,23.4944,1.0,1.0,1.0
49.56,19.0,1.0,1.0,1.0
49.57,20.5056,1.0,1.0,1.0
49.58,14.9889,1.0,1.0,1.0
49.59,12.0111,1.0,1.0,1.0
49.6,19.0,1.0,1.0,1.0
49.61,10.0,1.0,1.0,1.0
49.62,14.0,1.0,1.0,1.0
49.63,12.0,1.0,1.0,1.0
49.64,14.0,1.0,1.0,1.0
49.65,9.0,1.0,1.0,1.0
49.66,14.4944,1.0,1.0,1.0
49.67,5.5056,1.0,1.0,1.0
49.68,9.4944,1.0,1.0,1.0
49.69,13.5056,1.0,1.0,1.0
49.7,5.0,1.0,1.0,1.0
49.71,9.0,1.0,1.0,1.0
49.72,6.0,1.0,1.0,1.0
49.73,14.0,1.0,1.0,1.0
49.74,17.0,1.0,1.0,1.0
49.75,11.0,1.0,1.0,1.0
49.76,8.0,1.0,1.0,1.0
49.77,14.0,1.0,1.0,1.0
49.78,15.0,1.0,1.0,1.0
49.79,22.4944,1.0,1.0,1.0
49.8,8.5056,1.0,1.0,1.0
49.81,16.0,1.0,1.0,1.0
49.82,11.0,1.0,1.0,1.0
49.83,17.0,1.0,1.0,1.0
49.84,20.0,1.0,1.0,1.0
49.85,27.0,1.0,1.0,1.0
49.86,32.0,1.0,1.0,1.0
49.87,26.0,1.0,1.0,1.0
49.88,26.0,1.0,1.0,1.0
49.89,15.0,1.0,1.0,1.0
49.9,32.0,1.0,1.0,1.0
49.91,20.9889,1.0,1.0,1.0
49.92,25.0111,1.0,1.0,1.0
49.93,15.0,1.0,1.0,1.0
49.94,24.0,1.0,1.0,1.0
49.95,13.0,1.0,1.0,1.0
49.96,22.4944,1.0,1.0,1.0
49.97,25.5056,1.0,1.0,1.0
49.98,24.4944,1.0,1.0,1.0
49.99,30.5056,1.0,1.0,1.0
50.0,21.0,1.0,1.0,1.0
50.01,21.0,1.0,1.0,1.0
50.02,22.0,1.0,1.0,1.0
50.03,18.4944,1.0,1.0,1.0
50.04,9.5056,1.0,1.0,1.0
50.05,29.4944,1.0,1.0,1.0
50.06,18.5056,1.0,1.0,1.0
50.07,23.0,1.0,1.0,1.0
50.08,27.9889,1.0,1.0,1.0
50.09,31.5056,1.0,1.0,1.0
50.1,13.5056,1.0,1.0,1.0
50.11,23.0,1.0,1.0,1.0
50.12,12.0,1.0,1.0,1.0
50.13,16.0,1.0,1.0,1.0
50.14,17.0,1.0,1.0,1.0
50.15,7.0,1.0,1.0,1.0
50.16,26.4944,1.0,1.0,1.0
50.17,21.0,1.0,1.0,1.0
50.18,11.5056,1.0,1.0,1.0
50.19,12.0,1.0,1.0,1.0
50.2,11.0,1.0,1.0,1.0
50.21,12.0,1.0,1.0,1.0
50.22,20.0,1.0,1.0,1.0
50.23,10.4944,1.0,1.0,1.0
50.24,7.5056,1.0,1.0,1.0
50.25,6.0,1.0,1.0,1.0
50.26,17.0,1.0,1.0,1.0
50.27,3.0,1.0,1.0,1.0
50.28,15.0,1.0,1.0,1.0
50.29,5.0,1.0,1.0,1.0
50.3,8.0,1.0,1.0,1.0
50.31,7.0,1.0,1.0,1.0
50.32,13.4944,1.0,1.0,1.0
50.33,11.5056,1.0,1.0,1.0
50.34,30.4944,1.0,1.0,1.0
50.35,9.5056,1.0,1.0,1.0
50.36,5.0,1.0,1.0,1.0
50.37,9.0,1.0,1.0,1.0
50.38,16.0,1.0,1.0,1.0
50.39,7.0,1.0,1.0,1.0
50.4,3.0,1.0,1.0,1.0
50.41,5.9889,1.0,1.0,1.0
50.42,14.0111,1.0,1.0,1.0
50.43,6.0,1.0,1.0,1.0
50.44,11.0,1.0,1.0,1.0
50.45,8.0,1.0,1.0,1.0
50.46,9.0,1.0,1.0,1.0
50.47,8.0,1.0,1.0,1.0
50.48,5.0,1.0,1.0,1.0
50.49,10.0,1.0,1.0,1.0
50.5,14.4944,1.0,1.0,1.0
50.51,14.5056,1.0,1.0,1.0
50.52,4.0,1.0,1.0,1.0
50.53,14.0,1.0,1.0,1.0
50.54,13.0,1.0,1.0,1.0
50.55,11.4944,1.0,1.0,1.0
50.56,11.5056,1.0,1.0,1.0
50.57,18.0,1.0,1.0,1.0
50.58,13.4944,1.0,1.0,1.0
50.59,13.5056,1.0,1.0,1.0
50.6,12.0,1.0,1.0,1.0
50.61,8.0,1.0,1.0,1.0
50.62,10.0,1.0,1.0,1.0
50.63,14.0,1.0,1.0,1.0
50.64,10.0,1.0,1.0,1.0
50.65,8.0,1.0,1.0,1.0
50.66,12.0,1.0,1.0,1.0
50.67,13.0,1.0,1.0,1.0
50.68,4.0,1.0,1.0,1.0
50.69,9.0,1.0,1.0,1.0
50.7,6.0,1.0,1.0,1.0
50.71,11.0,1.0,1.0,1.0
50.72,13.0,1.0,1.0,1.0
50.73,14.0,1.0,1.0,1.0
50.74,18.0,1.0,1.0,1.0
50.75,16.0,1.0,1.0,1.0
50.76,4.0,1.0,1.0,1.0
50.77,13.0,1.0,1.0,1.0
50.78,9.4944,1.0,1.0,1.0
50.79,19.5056,1.0,1.0,1.0
50.8,4.0,1.0,1.0,1.0
50.81,10.0,1.0,1.0,1.0
50.82,3.0,1.0,1.0,1.0
50.83,7.0,1.0,1.0,1.0
50.84,14.0,1.0,1.0,1.0
50.85,9.0,1.0,1.0,1.0
50.86,10.0,1.0,1.0,1.0
50.87,13.0,1.0,1.0,1.0
50.88,11.4944,1.0,1.0,1.0
50.89,7.5056,1.0,1.0,1.0
50.9,6.0,1.0,1.0,1.0
50.91,2.0,1.0,1.0,1.0
50.92,2.0,1.0,1.0,1.0
50.93,20.0,1.0,1.0,1.0
50.94,9.0,1.0,1.0,1.0
50.95,4.0,1.0,1.0,1.0
50.96,12.0,1.0,1.0,1.0
50.97,3.0,1.0,1.0,1.0
50.98,9.0,1.0,1.0,1.0
50.99,7.0,1.0,1.0,1.0
51.0,7.0,1.0,1.0,1.0
51.01,7.4944,1.0,1.0,1.0
51.02,7.5056,1.0,1.0,1.0
51.03,8.0,1.0,1.0,1.0
51.04,12.0,1.0,1.0,1.0
51.05,15.0,1.0,1.0,1.0
51.06,4.0,1.0,1.0,1.0
51.07,5.0,1.0,1.0,1.0
51.08,5.4944,1.0,1.0,1.0
51.09,11.5056,1.0,1.0,1.0
51.1,4.0,1.0,1.0,1.0
51.11,4.0,1.0,1.0,1.0
51.12,3.0,1.0,1.0,1.0
51.13,7.0,1.0,1.0,1.0
51.14,4.0,1.0,1.0,1.0
51.15,5.0,1.0,1.0,1.0
51.16,7.0,1.0,1.0,1.0
51.17,9.0,1.0,1.0,1.0
51.18,3.0,1.0,1.0,1.0
51.19,2.0,1.0,1.0,1.0
51.2,10.0,1.0,1.0,1.0
51.21,10.0,1.0,1.0,1.0
51.22,2.0,1.0,1.0,1.0
51.23,15.0,1.0,1.0,1.0
51.24,12.0,1.0,1.0,1.0
51.25,4.0,1.0,1.0,1.0
51.26,8.0,1.0,1.0,1.0
51.27,12.0,1.0,1.0,1.0
51.28,7.4944,1.0,1.0,1.0
51.29,7.5056,1.0,1.0,1.0
51.3,9.0,1.0,1.0,1.0
51.31,5.0,1.0,1.0,1.0
51.32,7.9778,1.0,1.0,1.0
51.33,9.0222,1.0,1.0,1.0
51.34,5.0,1.0,1.0,1.0
51.35,6.0,1.0,1.0,1.0
51.36,7.0,1.0,1.0,1.0
51.37,7.0,1.0,1.0,1.0
51.38,8.0,1.0,1.0,1.0
51.39,3.0,1.0,1.0,1.0
51.4,6.0,1.0,1.0,1.0
51.41,8.0,1.0,1.0,1.0
51.42,3.0,1.0,1.0,1.0
51.43,6.4944,1.0,1.0,1.0
51.44,15.5056,1.0,1.0,1.0
51.45,0.0,1.0,1.0,1.0
51.46,0.0,1.0,1.0,1.0
51.47,3.4944,1.0,1.0,1.0
51.48,7.5056,1.0,1.0,1.0
51.49,8.0,1.0,1.0,1.0
51.5,8.4944,1.0,1.0,1.0
51.51,10.5056,1.0,1.0,1.0
51.52,6.4944,1.0,1.0,1.0
51.53,1.5056,1.0,1.0,1.0
51.54,4.0,1.0,1.0,1.0
51.55,6.0,1.0,1.0,1.0
51.56,5.4944,1.0,1.0,1.0
51.57,7.5056,1.0,1.0,1.0
51.58,11.4944,1.0,1.0,1.0
51.59,10.5056,1.0,1.0,1.0
51.6,0.0,1.0,1.0,1.0
51.61,0.0,1.0,1.0,1.0
51.62,7.0,1.0,1.0,1.0
51.63,12.0,1.0,1.0,1.0
51.64,8.0,1.0,1.0,1.0
51.65,7.0,1.0,1.0,1.0
51.66,9.0,1.0,1.0,1.0
51.67,2.0,1.0,1.0,1.0
51.68,2.0,1.0,1.0,1.0
51.69,9.4944,1.0,1.0,1.0
51.7,4.0,1.0,1.0,1.0
51.71,4.5056,1.0,1.0,1.0
51.72,8.0,1.0,1.0,1.0
51.73,9.0,1.0,1.0,1.0
51.74,0.0,1.0,1.0,1.0
51.75,1.0,1.0,1.0,1.0
51.76,9.4944,1.0,1.0,1.0
51.77,7.5056,1.0,1.0,1.0
51.78,3.0,1.0,1.0,1.0
51.79,7.0,1.0,1.0,1.0
51.8,3.0,1.0,1.0,1.0
51.81,6.0,1.0,1.0,1.0
51.82,2.0,1.0,1.0,1.0
51.83,6.0,1.0,1.0,1.0
51.84,2.0,1.0,1.0,1.0
51.85,0.4944,1.0,1.0,1.0
51.86,3.5056,1.0,1.0,1.0
51.87,5.0,1.0,1.0,1.0
51.88,7.0,1.0,1.0,1.0
51.89,3.0,1.0,1.0,1.0
51.9,7.0,1.0,1.0,1.0
51.91,12.4944,1.0,1.0,1.0
51.92,8.5056,1.0,1.0,1.0
51.93,6.0,1.0,1.0,1.0
51.94,8.4944,1.0,1.0,1.0
51.95,3.5056,1.0,1.0,1.0
51.96,6.0,1.0,1.0,1.0
51.97,17.4944,1.0,1.0,1.0
51.98,10.5056,1.0,1.0,1.0
51.99,0.0,1.0,1.0,1.0
52.0,0.0,1.0,1.0,1.0