File: XRD:XRR/SCO/22169_SL(CO)L/22169_SL(CO)L_001_XRD.csv
#twotheta, yobs, ycal, bkg, diff
18.0,33.0,1.0,1.0,1.0
18.01,66.496,1.0,1.0,1.0
18.02,37.496,1.0,1.0,1.0
18.03,54.504,1.0,1.0,1.0
18.04,41.0,1.0,1.0,1.0
18.05,28.496,1.0,1.0,1.0
18.06,52.504,1.0,1.0,1.0
18.07,38.0,1.0,1.0,1.0
18.08,26.504,1.0,1.0,1.0
18.09,47.496,1.0,1.0,1.0
18.1,27.496,1.0,1.0,1.0
18.11,40.0,1.0,1.0,1.0
18.12,50.008,1.0,1.0,1.0
18.13,53.992,1.0,1.0,1.0
18.14,39.504,1.0,1.0,1.0
18.15,46.0,1.0,1.0,1.0
18.16,35.0,1.0,1.0,1.0
18.17,32.496,1.0,1.0,1.0
18.18,26.0,1.0,1.0,1.0
18.19,48.504,1.0,1.0,1.0
18.2,33.504,1.0,1.0,1.0
18.21,34.992,1.0,1.0,1.0
18.22,39.504,1.0,1.0,1.0
18.23,25.0,1.0,1.0,1.0
18.24,41.0,1.0,1.0,1.0
18.25,50.008,1.0,1.0,1.0
18.26,35.496,1.0,1.0,1.0
18.27,36.992,1.0,1.0,1.0
18.28,38.504,1.0,1.0,1.0
18.29,44.496,1.0,1.0,1.0
18.3,29.5199,1.0,1.0,1.0
18.31,44.4881,1.0,1.0,1.0
18.32,38.992,1.0,1.0,1.0
18.33,48.0,1.0,1.0,1.0
18.34,22.504,1.0,1.0,1.0
18.35,37.496,1.0,1.0,1.0
18.36,31.0,1.0,1.0,1.0
18.37,28.504,1.0,1.0,1.0
18.38,34.496,1.0,1.0,1.0
18.39,25.0,1.0,1.0,1.0
18.4,57.504,1.0,1.0,1.0
18.41,43.0,1.0,1.0,1.0
18.42,36.496,1.0,1.0,1.0
18.43,43.0,1.0,1.0,1.0
18.44,27.0,1.0,1.0,1.0
18.45,43.0,1.0,1.0,1.0
18.46,29.0,1.0,1.0,1.0
18.47,39.0,1.0,1.0,1.0
18.48,40.008,1.0,1.0,1.0
18.49,35.992,1.0,1.0,1.0
18.5,49.504,1.0,1.0,1.0
18.51,39.504,1.0,1.0,1.0
18.52,37.0,1.0,1.0,1.0
18.53,28.496,1.0,1.0,1.0
18.54,30.504,1.0,1.0,1.0
18.55,29.992,1.0,1.0,1.0
18.56,33.0,1.0,1.0,1.0
18.57,39.0,1.0,1.0,1.0
18.58,28.504,1.0,1.0,1.0
18.59,19.496,1.0,1.0,1.0
18.6,28.504,1.0,1.0,1.0
18.61,36.0,1.0,1.0,1.0
18.62,41.0,1.0,1.0,1.0
18.63,45.0,1.0,1.0,1.0
18.64,31.0,1.0,1.0,1.0
18.65,43.0,1.0,1.0,1.0
18.66,48.504,1.0,1.0,1.0
18.67,32.496,1.0,1.0,1.0
18.68,57.496,1.0,1.0,1.0
18.69,37.504,1.0,1.0,1.0
18.7,46.504,1.0,1.0,1.0
18.71,63.0,1.0,1.0,1.0
18.72,14.992,1.0,1.0,1.0
18.73,40.0,1.0,1.0,1.0
18.74,43.0,1.0,1.0,1.0
18.75,33.0,1.0,1.0,1.0
18.76,26.504,1.0,1.0,1.0
18.77,40.496,1.0,1.0,1.0
18.78,29.0,1.0,1.0,1.0
18.79,28.504,1.0,1.0,1.0
18.8,54.008,1.0,1.0,1.0
18.81,40.496,1.0,1.0,1.0
18.82,48.0,1.0,1.0,1.0
18.83,43.496,1.0,1.0,1.0
18.84,33.0,1.0,1.0,1.0
18.85,37.496,1.0,1.0,1.0
18.86,46.0159,1.0,1.0,1.0
18.87,89.9841,1.0,1.0,1.0
18.88,30.0,1.0,1.0,1.0
18.89,36.0,1.0,1.0,1.0
18.9,36.0,1.0,1.0,1.0
18.91,26.0,1.0,1.0,1.0
18.92,42.504,1.0,1.0,1.0
18.93,44.496,1.0,1.0,1.0
18.94,27.0,1.0,1.0,1.0
18.95,31.0,1.0,1.0,1.0
18.96,39.0,1.0,1.0,1.0
18.97,40.0,1.0,1.0,1.0
18.98,28.0,1.0,1.0,1.0
18.99,38.0,1.0,1.0,1.0
19.0,34.5119,1.0,1.0,1.0
19.01,42.4881,1.0,1.0,1.0
19.02,37.0,1.0,1.0,1.0
19.03,40.0,1.0,1.0,1.0
19.04,44.0,1.0,1.0,1.0
19.05,32.504,1.0,1.0,1.0
19.06,41.496,1.0,1.0,1.0
19.07,45.504,1.0,1.0,1.0
19.08,39.496,1.0,1.0,1.0
19.09,38.0,1.0,1.0,1.0
19.1,38.0,1.0,1.0,1.0
19.11,32.0,1.0,1.0,1.0
19.12,53.008,1.0,1.0,1.0
19.13,52.0,1.0,1.0,1.0
19.14,38.992,1.0,1.0,1.0
19.15,25.504,1.0,1.0,1.0
19.16,41.008,1.0,1.0,1.0
19.17,47.4881,1.0,1.0,1.0
19.18,20.008,1.0,1.0,1.0
19.19,39.504,1.0,1.0,1.0
19.2,40.992,1.0,1.0,1.0
19.21,28.496,1.0,1.0,1.0
19.22,54.0,1.0,1.0,1.0
19.23,43.504,1.0,1.0,1.0
19.24,26.0,1.0,1.0,1.0
19.25,45.504,1.0,1.0,1.0
19.26,25.496,1.0,1.0,1.0
19.27,41.504,1.0,1.0,1.0
19.28,48.992,1.0,1.0,1.0
19.29,51.0,1.0,1.0,1.0
19.3,32.504,1.0,1.0,1.0
19.31,41.0,1.0,1.0,1.0
19.32,47.496,1.0,1.0,1.0
19.33,55.0,1.0,1.0,1.0
19.34,23.504,1.0,1.0,1.0
19.35,37.0,1.0,1.0,1.0
19.36,32.0,1.0,1.0,1.0
19.37,53.0,1.0,1.0,1.0
19.38,37.504,1.0,1.0,1.0
19.39,37.496,1.0,1.0,1.0
19.4,53.496,1.0,1.0,1.0
19.41,47.504,1.0,1.0,1.0
19.42,27.0,1.0,1.0,1.0
19.43,40.496,1.0,1.0,1.0
19.44,44.0,1.0,1.0,1.0
19.45,49.0,1.0,1.0,1.0
19.46,36.0,1.0,1.0,1.0
19.47,44.504,1.0,1.0,1.0
19.48,28.0,1.0,1.0,1.0
19.49,33.496,1.0,1.0,1.0
19.5,36.504,1.0,1.0,1.0
19.51,48.0,1.0,1.0,1.0
19.52,31.496,1.0,1.0,1.0
19.53,24.504,1.0,1.0,1.0
19.54,32.504,1.0,1.0,1.0
19.55,26.992,1.0,1.0,1.0
19.56,34.0,1.0,1.0,1.0
19.57,45.0,1.0,1.0,1.0
19.58,29.008,1.0,1.0,1.0
19.59,38.992,1.0,1.0,1.0
19.6,25.504,1.0,1.0,1.0
19.61,47.496,1.0,1.0,1.0
19.62,50.0,1.0,1.0,1.0
19.63,42.0,1.0,1.0,1.0
19.64,23.504,1.0,1.0,1.0
19.65,23.496,1.0,1.0,1.0
19.66,25.504,1.0,1.0,1.0
19.67,33.0,1.0,1.0,1.0
19.68,32.496,1.0,1.0,1.0
19.69,43.504,1.0,1.0,1.0
19.7,30.496,1.0,1.0,1.0
19.71,39.5119,1.0,1.0,1.0
19.72,36.4881,1.0,1.0,1.0
19.73,47.5119,1.0,1.0,1.0
19.74,38.496,1.0,1.0,1.0
19.75,48.496,1.0,1.0,1.0
19.76,35.496,1.0,1.0,1.0
19.77,33.0,1.0,1.0,1.0
19.78,29.504,1.0,1.0,1.0
19.79,41.496,1.0,1.0,1.0
19.8,39.0,1.0,1.0,1.0
19.81,40.5119,1.0,1.0,1.0
19.82,36.992,1.0,1.0,1.0
19.83,22.0,1.0,1.0,1.0
19.84,35.504,1.0,1.0,1.0
19.85,44.496,1.0,1.0,1.0
19.86,36.496,1.0,1.0,1.0
19.87,51.504,1.0,1.0,1.0
19.88,35.496,1.0,1.0,1.0
19.89,22.0,1.0,1.0,1.0
19.9,51.0,1.0,1.0,1.0
19.91,63.504,1.0,1.0,1.0
19.92,31.0,1.0,1.0,1.0
19.93,39.0,1.0,1.0,1.0
19.94,43.0,1.0,1.0,1.0
19.95,47.496,1.0,1.0,1.0
19.96,54.0239,1.0,1.0,1.0
19.97,41.9761,1.0,1.0,1.0
19.98,50.504,1.0,1.0,1.0
19.99,59.504,1.0,1.0,1.0
20.0,63.504,1.0,1.0,1.0
20.01,51.4881,1.0,1.0,1.0
20.02,53.5119,1.0,1.0,1.0
20.03,55.496,1.0,1.0,1.0
20.04,86.0,1.0,1.0,1.0
20.05,66.504,1.0,1.0,1.0
20.06,66.496,1.0,1.0,1.0
20.07,45.992,1.0,1.0,1.0
20.08,49.504,1.0,1.0,1.0
20.09,53.0,1.0,1.0,1.0
20.1,59.504,1.0,1.0,1.0
20.11,60.0,1.0,1.0,1.0
20.12,79.992,1.0,1.0,1.0
20.13,63.008,1.0,1.0,1.0
20.14,78.496,1.0,1.0,1.0
20.15,76.0,1.0,1.0,1.0
20.16,60.008,1.0,1.0,1.0
20.17,49.992,1.0,1.0,1.0
20.18,82.008,1.0,1.0,1.0
20.19,58.4881,1.0,1.0,1.0
20.2,68.504,1.0,1.0,1.0
20.21,55.504,1.0,1.0,1.0
20.22,54.0,1.0,1.0,1.0
20.23,77.0,1.0,1.0,1.0
20.24,67.0159,1.0,1.0,1.0
20.25,43.9761,1.0,1.0,1.0
20.26,44.0,1.0,1.0,1.0
20.27,61.5119,1.0,1.0,1.0
20.28,47.4881,1.0,1.0,1.0
20.29,50.0,1.0,1.0,1.0
20.3,53.0,1.0,1.0,1.0
20.31,52.0,1.0,1.0,1.0
20.32,43.0,1.0,1.0,1.0
20.33,50.008,1.0,1.0,1.0
20.34,27.992,1.0,1.0,1.0
20.35,60.504,1.0,1.0,1.0
20.36,26.0,1.0,1.0,1.0
20.37,41.504,1.0,1.0,1.0
20.38,50.0,1.0,1.0,1.0
20.39,59.008,1.0,1.0,1.0
20.4,45.4881,1.0,1.0,1.0
20.41,52.0,1.0,1.0,1.0
20.42,47.0,1.0,1.0,1.0
20.43,50.008,1.0,1.0,1.0
20.44,17.4881,1.0,1.0,1.0
20.45,40.504,1.0,1.0,1.0
20.46,52.504,1.0,1.0,1.0
20.47,38.496,1.0,1.0,1.0
20.48,47.504,1.0,1.0,1.0
20.49,34.992,1.0,1.0,1.0
20.5,36.504,1.0,1.0,1.0
20.51,24.496,1.0,1.0,1.0
20.52,39.0,1.0,1.0,1.0
20.53,44.008,1.0,1.0,1.0
20.54,30.496,1.0,1.0,1.0
20.55,46.496,1.0,1.0,1.0
20.56,37.504,1.0,1.0,1.0
20.57,42.0,1.0,1.0,1.0
20.58,30.504,1.0,1.0,1.0
20.59,41.0,1.0,1.0,1.0
20.6,39.992,1.0,1.0,1.0
20.61,47.0159,1.0,1.0,1.0
20.62,56.4881,1.0,1.0,1.0
20.63,48.496,1.0,1.0,1.0
20.64,33.0,1.0,1.0,1.0
20.65,33.0,1.0,1.0,1.0
20.66,52.0,1.0,1.0,1.0
20.67,42.008,1.0,1.0,1.0
20.68,53.992,1.0,1.0,1.0
20.69,48.008,1.0,1.0,1.0
20.7,34.992,1.0,1.0,1.0
20.71,35.0,1.0,1.0,1.0
20.72,37.0,1.0,1.0,1.0
20.73,16.504,1.0,1.0,1.0
20.74,38.496,1.0,1.0,1.0
20.75,49.008,1.0,1.0,1.0
20.76,33.504,1.0,1.0,1.0
20.77,42.992,1.0,1.0,1.0
20.78,40.504,1.0,1.0,1.0
20.79,38.504,1.0,1.0,1.0
20.8,40.992,1.0,1.0,1.0
20.81,32.0,1.0,1.0,1.0
20.82,40.496,1.0,1.0,1.0
20.83,51.504,1.0,1.0,1.0
20.84,58.496,1.0,1.0,1.0
20.85,43.0,1.0,1.0,1.0
20.86,50.0,1.0,1.0,1.0
20.87,47.008,1.0,1.0,1.0
20.88,46.992,1.0,1.0,1.0
20.89,34.008,1.0,1.0,1.0
20.9,30.496,1.0,1.0,1.0
20.91,45.496,1.0,1.0,1.0
20.92,55.008,1.0,1.0,1.0
20.93,43.008,1.0,1.0,1.0
20.94,38.4881,1.0,1.0,1.0
20.95,41.008,1.0,1.0,1.0
20.96,46.4881,1.0,1.0,1.0
20.97,56.5279,1.0,1.0,1.0
20.98,36.4721,1.0,1.0,1.0
20.99,46.0,1.0,1.0,1.0
21.0,33.0,1.0,1.0,1.0
21.01,43.008,1.0,1.0,1.0
21.02,42.992,1.0,1.0,1.0
21.03,41.0,1.0,1.0,1.0
21.04,61.504,1.0,1.0,1.0
21.05,47.496,1.0,1.0,1.0
21.06,45.0,1.0,1.0,1.0
21.07,30.0,1.0,1.0,1.0
21.08,40.008,1.0,1.0,1.0
21.09,44.0,1.0,1.0,1.0
21.1,53.992,1.0,1.0,1.0
21.11,52.0,1.0,1.0,1.0
21.12,45.0,1.0,1.0,1.0
21.13,63.008,1.0,1.0,1.0
21.14,51.0,1.0,1.0,1.0
21.15,85.496,1.0,1.0,1.0
21.16,69.504,1.0,1.0,1.0
21.17,68.496,1.0,1.0,1.0
21.18,67.496,1.0,1.0,1.0
21.19,53.5119,1.0,1.0,1.0
21.2,84.0,1.0,1.0,1.0
21.21,81.496,1.0,1.0,1.0
21.22,73.504,1.0,1.0,1.0
21.23,97.504,1.0,1.0,1.0
21.24,99.992,1.0,1.0,1.0
21.25,85.008,1.0,1.0,1.0
21.26,106.4881,1.0,1.0,1.0
21.27,104.5119,1.0,1.0,1.0
21.28,100.496,1.0,1.0,1.0
21.29,110.504,1.0,1.0,1.0
21.3,103.0,1.0,1.0,1.0
21.31,128.4881,1.0,1.0,1.0
21.32,118.0,1.0,1.0,1.0
21.33,119.008,1.0,1.0,1.0
21.34,126.0,1.0,1.0,1.0
21.35,110.0,1.0,1.0,1.0
21.36,118.496,1.0,1.0,1.0
21.37,133.0,1.0,1.0,1.0
21.38,156.0,1.0,1.0,1.0
21.39,158.504,1.0,1.0,1.0
21.4,142.0,1.0,1.0,1.0
21.41,158.0,1.0,1.0,1.0
21.42,153.0,1.0,1.0,1.0
21.43,160.496,1.0,1.0,1.0
21.44,178.496,1.0,1.0,1.0
21.45,187.0,1.0,1.0,1.0
21.46,174.5119,1.0,1.0,1.0
21.47,186.0,1.0,1.0,1.0
21.48,164.496,1.0,1.0,1.0
21.49,163.0159,1.0,1.0,1.0
21.5,188.496,1.0,1.0,1.0
21.51,204.9841,1.0,1.0,1.0
21.52,152.5199,1.0,1.0,1.0
21.53,220.4881,1.0,1.0,1.0
21.54,180.496,1.0,1.0,1.0
21.55,199.0,1.0,1.0,1.0
21.56,175.5119,1.0,1.0,1.0
21.57,174.4881,1.0,1.0,1.0
21.58,188.0,1.0,1.0,1.0
21.59,174.992,1.0,1.0,1.0
21.6,167.5119,1.0,1.0,1.0
21.61,153.0,1.0,1.0,1.0
21.62,173.0,1.0,1.0,1.0
21.63,157.992,1.0,1.0,1.0
21.64,152.496,1.0,1.0,1.0
21.65,137.008,1.0,1.0,1.0
21.66,129.504,1.0,1.0,1.0
21.67,114.504,1.0,1.0,1.0
21.68,138.0,1.0,1.0,1.0
21.69,136.4881,1.0,1.0,1.0
21.7,120.992,1.0,1.0,1.0
21.71,116.5119,1.0,1.0,1.0
21.72,127.0,1.0,1.0,1.0
21.73,142.992,1.0,1.0,1.0
21.74,122.008,1.0,1.0,1.0
21.75,124.504,1.0,1.0,1.0
21.76,135.496,1.0,1.0,1.0
21.77,145.4881,1.0,1.0,1.0
21.78,140.504,1.0,1.0,1.0
21.79,135.5119,1.0,1.0,1.0
21.8,156.0,1.0,1.0,1.0
21.81,152.008,1.0,1.0,1.0
21.82,177.4881,1.0,1.0,1.0
21.83,217.504,1.0,1.0,1.0
21.84,188.5119,1.0,1.0,1.0
21.85,270.0,1.0,1.0,1.0
21.86,256.008,1.0,1.0,1.0
21.87,299.4881,1.0,1.0,1.0
21.88,342.0,1.0,1.0,1.0
21.89,394.5279,1.0,1.0,1.0
21.9,412.496,1.0,1.0,1.0
21.91,439.4881,1.0,1.0,1.0
21.92,484.0159,1.0,1.0,1.0
21.93,556.496,1.0,1.0,1.0
21.94,575.0319,1.0,1.0,1.0
21.95,621.9841,1.0,1.0,1.0
21.96,664.9681,1.0,1.0,1.0
21.97,718.512,1.0,1.0,1.0
21.98,746.5199,1.0,1.0,1.0
21.99,738.496,1.0,1.0,1.0
22.0,849.0079,1.0,1.0,1.0
22.01,826.512,1.0,1.0,1.0
22.02,856.4721,1.0,1.0,1.0
22.03,870.5199,1.0,1.0,1.0
22.04,893.9841,1.0,1.0,1.0
22.05,908.512,1.0,1.0,1.0
22.06,949.0079,1.0,1.0,1.0
22.07,921.0,1.0,1.0,1.0
22.08,901.504,1.0,1.0,1.0
22.09,866.9761,1.0,1.0,1.0
22.1,862.0159,1.0,1.0,1.0
22.11,869.0,1.0,1.0,1.0
22.12,857.9761,1.0,1.0,1.0
22.13,849.512,1.0,1.0,1.0
22.14,799.0079,1.0,1.0,1.0
22.15,748.9761,1.0,1.0,1.0
22.16,783.496,1.0,1.0,1.0
22.17,745.0159,1.0,1.0,1.0
22.18,713.0079,1.0,1.0,1.0
22.19,703.488,1.0,1.0,1.0
22.2,683.0,1.0,1.0,1.0
22.21,685.488,1.0,1.0,1.0
22.22,730.5438,1.0,1.0,1.0
22.23,637.9841,1.0,1.0,1.0
22.24,667.4721,1.0,1.0,1.0
22.25,722.0079,1.0,1.0,1.0
22.26,617.9761,1.0,1.0,1.0
22.27,628.0079,1.0,1.0,1.0
22.28,568.512,1.0,1.0,1.0
22.29,561.488,1.0,1.0,1.0
22.3,516.5358,1.0,1.0,1.0
22.31,524.488,1.0,1.0,1.0
22.32,513.9921,1.0,1.0,1.0
22.33,523.4801,1.0,1.0,1.0
22.34,520.496,1.0,1.0,1.0
22.35,391.5119,1.0,1.0,1.0
22.36,468.5199,1.0,1.0,1.0
22.37,428.9761,1.0,1.0,1.0
22.38,425.496,1.0,1.0,1.0
22.39,422.0,1.0,1.0,1.0
22.4,393.0239,1.0,1.0,1.0
22.41,350.4721,1.0,1.0,1.0
22.42,330.008,1.0,1.0,1.0
22.43,317.496,1.0,1.0,1.0
22.44,322.992,1.0,1.0,1.0
22.45,256.0159,1.0,1.0,1.0
22.46,288.9841,1.0,1.0,1.0
22.47,255.5119,1.0,1.0,1.0
22.48,271.9841,1.0,1.0,1.0
22.49,265.0,1.0,1.0,1.0
22.5,247.496,1.0,1.0,1.0
22.51,221.5119,1.0,1.0,1.0
22.52,236.0,1.0,1.0,1.0
22.53,273.5199,1.0,1.0,1.0
22.54,263.4721,1.0,1.0,1.0
22.55,293.008,1.0,1.0,1.0
22.56,309.5119,1.0,1.0,1.0
22.57,341.9841,1.0,1.0,1.0
22.58,367.008,1.0,1.0,1.0
22.59,383.4881,1.0,1.0,1.0
22.6,455.5119,1.0,1.0,1.0
22.61,485.496,1.0,1.0,1.0
22.62,522.5199,1.0,1.0,1.0
22.63,660.504,1.0,1.0,1.0
22.64,700.5199,1.0,1.0,1.0
22.65,744.496,1.0,1.0,1.0
22.66,894.0,1.0,1.0,1.0
22.67,1020.02,1.0,1.0,1.0
22.68,1069.01,1.0,1.0,1.0
22.69,1285.504,1.0,1.0,1.0
22.7,1455.54,1.0,1.0,1.0
22.71,1563.0,1.0,1.0,1.0
22.72,1746.02,1.0,1.0,1.0
22.73,1923.04,1.0,1.0,1.0
22.74,1933.96,1.0,1.0,1.0
22.75,2125.54,1.0,1.0,1.0
22.76,2349.96,1.0,1.0,1.0
22.77,2465.04,1.0,1.0,1.0
22.78,2698.56,1.0,1.0,1.0
22.79,2727.44,1.0,1.0,1.0
22.8,2835.6,1.0,1.0,1.0
22.81,3008.98,1.0,1.0,1.0
22.82,3114.98,1.0,1.0,1.0
22.83,3355.02,1.0,1.0,1.0
22.84,3215.98,1.0,1.0,1.0
22.85,3239.04,1.0,1.0,1.0
22.86,3314.01,1.0,1.0,1.0
22.87,3294.98,1.0,1.0,1.0
22.88,3346.08,1.0,1.0,1.0
22.89,3243.9,1.0,1.0,1.0
22.9,3260.01,1.0,1.0,1.0
22.91,3164.94,1.0,1.0,1.0
22.92,3119.58,1.0,1.0,1.0
22.93,2921.98,1.0,1.0,1.0
22.94,2829.94,1.0,1.0,1.0
22.95,2845.47,1.0,1.0,1.0
22.96,2715.512,1.0,1.0,1.0
22.97,2694.512,1.0,1.0,1.0
22.98,2566.46,1.0,1.0,1.0
22.99,2424.08,1.0,1.0,1.0
23.0,2353.94,1.0,1.0,1.0
23.01,2265.512,1.0,1.0,1.0
23.02,2258.0,1.0,1.0,1.0
23.03,2266.52,1.0,1.0,1.0
23.04,2231.95,1.0,1.0,1.0
23.05,2089.02,1.0,1.0,1.0
23.06,2194.47,1.0,1.0,1.0
23.07,2120.512,1.0,1.0,1.0
23.08,2063.0,1.0,1.0,1.0
23.09,2065.97,1.0,1.0,1.0
23.1,2067.03,1.0,1.0,1.0
23.11,2089.5,1.0,1.0,1.0
23.12,2149.46,1.0,1.0,1.0
23.13,2106.52,1.0,1.0,1.0
23.14,2105.55,1.0,1.0,1.0
23.15,2252.0,1.0,1.0,1.0
23.16,2194.512,1.0,1.0,1.0
23.17,2360.46,1.0,1.0,1.0
23.18,2475.59,1.0,1.0,1.0
23.19,2520.45,1.0,1.0,1.0
23.2,2661.58,1.0,1.0,1.0
23.21,2741.94,1.0,1.0,1.0
23.22,2822.56,1.0,1.0,1.0
23.23,3086.46,1.0,1.0,1.0
23.24,3286.03,1.0,1.0,1.0
23.25,3576.56,1.0,1.0,1.0
23.26,3888.02,1.0,1.0,1.0
23.27,4105.52,1.0,1.0,1.0
23.28,4688.58,1.0,1.0,1.0
23.29,5189.63,1.0,1.0,1.0
23.3,5950.0,1.0,1.0,1.0
23.31,6914.45,1.0,1.0,1.0
23.32,8156.21,1.0,1.0,1.0
23.33,9644.11,1.0,1.0,1.0
23.34,11793.2,1.0,1.0,1.0
23.35,15376.4,1.0,1.0,1.0
23.36,20980,1.0,1.0,1.0
23.37,30688.5,1.0,1.0,1.0
23.38,53637.8,1.0,1.0,1.0
23.39,164611,1.0,1.0,1.0
23.4,1.03407e+06,1.0,1.0,1.0
23.41,2942643.25,1.0,1.0,1.0
23.42,4022080.0,1.0,1.0,1.0
23.43,3752570.5,1.0,1.0,1.0
23.44,2443068.5,1.0,1.0,1.0
23.45,1589418.875,1.0,1.0,1.0
23.46,1444174.0,1.0,1.0,1.0
23.47,854482.75,1.0,1.0,1.0
23.48,450744.75,1.0,1.0,1.0
23.49,269748.125,1.0,1.0,1.0
23.5,163684,1.0,1.0,1.0
23.51,102353,1.0,1.0,1.0
23.52,68491.7,1.0,1.0,1.0
23.53,45557.9,1.0,1.0,1.0
23.54,30292.2,1.0,1.0,1.0
23.55,21331.8,1.0,1.0,1.0
23.56,15423.5,1.0,1.0,1.0
23.57,11014.3,1.0,1.0,1.0
23.58,8312.833,1.0,1.0,1.0
23.59,6474.89,1.0,1.0,1.0
23.6,4979.9,1.0,1.0,1.0
23.61,4044.93,1.0,1.0,1.0
23.62,3155.94,1.0,1.0,1.0
23.63,2619.97,1.0,1.0,1.0
23.64,2266.97,1.0,1.0,1.0
23.65,1947.96,1.0,1.0,1.0
23.66,1717.52,1.0,1.0,1.0
23.67,1603.504,1.0,1.0,1.0
23.68,1407.94,1.0,1.0,1.0
23.69,1209.0,1.0,1.0,1.0
23.7,1144.54,1.0,1.0,1.0
23.71,970.9921,1.0,1.0,1.0
23.72,988.9522,1.0,1.0,1.0
23.73,851.0239,1.0,1.0,1.0
23.74,821.488,1.0,1.0,1.0
23.75,750.9761,1.0,1.0,1.0
23.76,702.0159,1.0,1.0,1.0
23.77,651.0159,1.0,1.0,1.0
23.78,581.9522,1.0,1.0,1.0
23.79,549.5279,1.0,1.0,1.0
23.8,517.9921,1.0,1.0,1.0
23.81,518.4801,1.0,1.0,1.0
23.82,477.992,1.0,1.0,1.0
23.83,445.504,1.0,1.0,1.0
23.84,415.9841,1.0,1.0,1.0
23.85,384.0159,1.0,1.0,1.0
23.86,358.992,1.0,1.0,1.0
23.87,374.504,1.0,1.0,1.0
23.88,313.9841,1.0,1.0,1.0
23.89,343.5199,1.0,1.0,1.0
23.9,294.504,1.0,1.0,1.0
23.91,242.5119,1.0,1.0,1.0
23.92,236.9841,1.0,1.0,1.0
23.93,268.992,1.0,1.0,1.0
23.94,227.9841,1.0,1.0,1.0
23.95,239.008,1.0,1.0,1.0
23.96,250.0159,1.0,1.0,1.0
23.97,204.0,1.0,1.0,1.0
23.98,207.4881,1.0,1.0,1.0
23.99,231.0159,1.0,1.0,1.0
24.0,175.496,1.0,1.0,1.0
24.01,174.496,1.0,1.0,1.0
24.02,192.9761,1.0,1.0,1.0
24.03,179.0159,1.0,1.0,1.0
24.04,188.504,1.0,1.0,1.0
24.05,160.4881,1.0,1.0,1.0
24.06,184.0,1.0,1.0,1.0
24.07,161.5119,1.0,1.0,1.0
24.08,165.4881,1.0,1.0,1.0
24.09,154.496,1.0,1.0,1.0
24.1,161.5119,1.0,1.0,1.0
24.11,150.0159,1.0,1.0,1.0
24.12,132.4801,1.0,1.0,1.0
24.13,160.992,1.0,1.0,1.0
24.14,141.0,1.0,1.0,1.0
24.15,150.0,1.0,1.0,1.0
24.16,151.504,1.0,1.0,1.0
24.17,153.992,1.0,1.0,1.0
24.18,116.008,1.0,1.0,1.0
24.19,134.0,1.0,1.0,1.0
24.2,100.504,1.0,1.0,1.0
24.21,117.0,1.0,1.0,1.0
24.22,100.992,1.0,1.0,1.0
24.23,118.504,1.0,1.0,1.0
24.24,123.504,1.0,1.0,1.0
24.25,96.992,1.0,1.0,1.0
24.26,108.496,1.0,1.0,1.0
24.27,79.0,1.0,1.0,1.0
24.28,87.5119,1.0,1.0,1.0
24.29,70.992,1.0,1.0,1.0
24.3,65.0,1.0,1.0,1.0
24.31,75.504,1.0,1.0,1.0
24.32,90.992,1.0,1.0,1.0
24.33,63.504,1.0,1.0,1.0
24.34,84.008,1.0,1.0,1.0
24.35,65.496,1.0,1.0,1.0
24.36,80.992,1.0,1.0,1.0
24.37,71.008,1.0,1.0,1.0
24.38,67.992,1.0,1.0,1.0
24.39,62.504,1.0,1.0,1.0
24.4,58.008,1.0,1.0,1.0
24.41,42.496,1.0,1.0,1.0
24.42,63.496,1.0,1.0,1.0
24.43,69.0,1.0,1.0,1.0
24.44,67.504,1.0,1.0,1.0
24.45,52.0,1.0,1.0,1.0
24.46,63.496,1.0,1.0,1.0
24.47,52.496,1.0,1.0,1.0
24.48,58.504,1.0,1.0,1.0
24.49,38.504,1.0,1.0,1.0
24.5,61.992,1.0,1.0,1.0
24.51,63.504,1.0,1.0,1.0
24.52,66.008,1.0,1.0,1.0
24.53,77.504,1.0,1.0,1.0
24.54,81.4881,1.0,1.0,1.0
24.55,65.0,1.0,1.0,1.0
24.56,62.0,1.0,1.0,1.0
24.57,80.008,1.0,1.0,1.0
24.58,58.992,1.0,1.0,1.0
24.59,65.0,1.0,1.0,1.0
24.6,65.504,1.0,1.0,1.0
24.61,80.496,1.0,1.0,1.0
24.62,73.496,1.0,1.0,1.0
24.63,63.504,1.0,1.0,1.0
24.64,72.0,1.0,1.0,1.0
24.65,72.496,1.0,1.0,1.0
24.66,61.008,1.0,1.0,1.0
24.67,78.496,1.0,1.0,1.0
24.68,60.496,1.0,1.0,1.0
24.69,47.504,1.0,1.0,1.0
24.7,56.496,1.0,1.0,1.0
24.71,45.008,1.0,1.0,1.0
24.72,85.992,1.0,1.0,1.0
24.73,55.008,1.0,1.0,1.0
24.74,56.504,1.0,1.0,1.0
24.75,42.4881,1.0,1.0,1.0
24.76,46.008,1.0,1.0,1.0
24.77,58.496,1.0,1.0,1.0
24.78,42.496,1.0,1.0,1.0
24.79,59.0,1.0,1.0,1.0
24.8,41.504,1.0,1.0,1.0
24.81,42.496,1.0,1.0,1.0
24.82,40.008,1.0,1.0,1.0
24.83,22.496,1.0,1.0,1.0
24.84,46.496,1.0,1.0,1.0
24.85,32.504,1.0,1.0,1.0
24.86,30.0,1.0,1.0,1.0
24.87,24.0,1.0,1.0,1.0
24.88,48.0,1.0,1.0,1.0
24.89,25.496,1.0,1.0,1.0
24.9,24.0,1.0,1.0,1.0
24.91,32.0,1.0,1.0,1.0
24.92,20.0,1.0,1.0,1.0
24.93,23.0,1.0,1.0,1.0
24.94,20.0,1.0,1.0,1.0
24.95,23.504,1.0,1.0,1.0
24.96,31.504,1.0,1.0,1.0
24.97,24.992,1.0,1.0,1.0
24.98,17.008,1.0,1.0,1.0
24.99,26.992,1.0,1.0,1.0
25.0,16.0,1.0,1.0,1.0
25.01,33.0,1.0,1.0,1.0
25.02,35.0,1.0,1.0,1.0
25.03,31.008,1.0,1.0,1.0
25.04,28.992,1.0,1.0,1.0
25.05,16.0,1.0,1.0,1.0
25.06,29.504,1.0,1.0,1.0
25.07,19.496,1.0,1.0,1.0
25.08,26.0,1.0,1.0,1.0
25.09,30.0,1.0,1.0,1.0
25.1,27.0,1.0,1.0,1.0
25.11,19.0,1.0,1.0,1.0
25.12,28.504,1.0,1.0,1.0
25.13,36.496,1.0,1.0,1.0
25.14,21.504,1.0,1.0,1.0
25.15,27.496,1.0,1.0,1.0
25.16,28.0,1.0,1.0,1.0
25.17,28.504,1.0,1.0,1.0
25.18,41.496,1.0,1.0,1.0
25.19,28.008,1.0,1.0,1.0
25.2,36.992,1.0,1.0,1.0
25.21,33.504,1.0,1.0,1.0
25.22,29.504,1.0,1.0,1.0
25.23,41.992,1.0,1.0,1.0
25.24,12.0,1.0,1.0,1.0
25.25,35.5119,1.0,1.0,1.0
25.26,20.4881,1.0,1.0,1.0
25.27,24.0,1.0,1.0,1.0
25.28,22.0,1.0,1.0,1.0
25.29,18.008,1.0,1.0,1.0
25.3,17.992,1.0,1.0,1.0
25.31,9.0,1.0,1.0,1.0
25.32,36.0,1.0,1.0,1.0
25.33,41.504,1.0,1.0,1.0
25.34,35.0,1.0,1.0,1.0
25.35,20.496,1.0,1.0,1.0
25.36,19.0,1.0,1.0,1.0
25.37,23.0,1.0,1.0,1.0
25.38,26.0,1.0,1.0,1.0
25.39,24.008,1.0,1.0,1.0
25.4,19.992,1.0,1.0,1.0
25.41,50.008,1.0,1.0,1.0
25.42,24.992,1.0,1.0,1.0
25.43,32.0,1.0,1.0,1.0
25.44,26.0,1.0,1.0,1.0
25.45,22.504,1.0,1.0,1.0
25.46,16.504,1.0,1.0,1.0
25.47,27.992,1.0,1.0,1.0
25.48,38.504,1.0,1.0,1.0
25.49,26.0,1.0,1.0,1.0
25.5,8.496,1.0,1.0,1.0
25.51,24.008,1.0,1.0,1.0
25.52,31.0,1.0,1.0,1.0
25.53,17.992,1.0,1.0,1.0
25.54,11.504,1.0,1.0,1.0
25.55,14.496,1.0,1.0,1.0
25.56,23.0,1.0,1.0,1.0
25.57,16.0,1.0,1.0,1.0
25.58,16.504,1.0,1.0,1.0
25.59,22.496,1.0,1.0,1.0
25.6,24.504,1.0,1.0,1.0
25.61,31.496,1.0,1.0,1.0
25.62,23.504,1.0,1.0,1.0
25.63,17.496,1.0,1.0,1.0
25.64,27.0,1.0,1.0,1.0
25.65,10.0,1.0,1.0,1.0
25.66,6.0,1.0,1.0,1.0
25.67,22.504,1.0,1.0,1.0
25.68,24.496,1.0,1.0,1.0
25.69,25.0,1.0,1.0,1.0
25.7,27.008,1.0,1.0,1.0
25.71,26.496,1.0,1.0,1.0
25.72,20.496,1.0,1.0,1.0
25.73,23.0,1.0,1.0,1.0
25.74,23.0,1.0,1.0,1.0
25.75,10.0,1.0,1.0,1.0
25.76,24.0,1.0,1.0,1.0
25.77,23.504,1.0,1.0,1.0
25.78,28.496,1.0,1.0,1.0
25.79,25.504,1.0,1.0,1.0
25.8,32.504,1.0,1.0,1.0
25.81,16.496,1.0,1.0,1.0
25.82,25.496,1.0,1.0,1.0
25.83,20.0,1.0,1.0,1.0
25.84,22.008,1.0,1.0,1.0
25.85,22.992,1.0,1.0,1.0
25.86,27.504,1.0,1.0,1.0
25.87,15.496,1.0,1.0,1.0
25.88,27.0,1.0,1.0,1.0
25.89,26.0,1.0,1.0,1.0
25.9,22.0,1.0,1.0,1.0
25.91,25.0,1.0,1.0,1.0
25.92,19.0,1.0,1.0,1.0
25.93,27.008,1.0,1.0,1.0
25.94,24.992,1.0,1.0,1.0
25.95,33.504,1.0,1.0,1.0
25.96,23.496,1.0,1.0,1.0
25.97,26.0,1.0,1.0,1.0
25.98,9.0,1.0,1.0,1.0
25.99,19.0,1.0,1.0,1.0
26.0,25.008,1.0,1.0,1.0
26.01,28.992,1.0,1.0,1.0
26.02,21.0,1.0,1.0,1.0
26.03,22.0,1.0,1.0,1.0
26.04,20.0,1.0,1.0,1.0
26.05,22.504,1.0,1.0,1.0
26.06,30.496,1.0,1.0,1.0
26.07,25.0,1.0,1.0,1.0
26.08,43.504,1.0,1.0,1.0
26.09,20.496,1.0,1.0,1.0
26.1,26.0,1.0,1.0,1.0
26.11,28.008,1.0,1.0,1.0
26.12,25.496,1.0,1.0,1.0
26.13,24.496,1.0,1.0,1.0
26.14,18.0,1.0,1.0,1.0
26.15,20.504,1.0,1.0,1.0
26.16,29.496,1.0,1.0,1.0
26.17,27.0,1.0,1.0,1.0
26.18,35.0,1.0,1.0,1.0
26.19,30.0,1.0,1.0,1.0
26.2,23.504,1.0,1.0,1.0
26.21,29.496,1.0,1.0,1.0
26.22,16.504,1.0,1.0,1.0
26.23,20.496,1.0,1.0,1.0
26.24,12.504,1.0,1.0,1.0
26.25,24.496,1.0,1.0,1.0
26.26,14.504,1.0,1.0,1.0
26.27,18.0,1.0,1.0,1.0
26.28,20.496,1.0,1.0,1.0
26.29,14.504,1.0,1.0,1.0
26.3,11.496,1.0,1.0,1.0
26.31,19.0,1.0,1.0,1.0
26.32,18.0,1.0,1.0,1.0
26.33,20.0,1.0,1.0,1.0
26.34,20.0,1.0,1.0,1.0
26.35,8.0,1.0,1.0,1.0
26.36,21.0,1.0,1.0,1.0
26.37,18.0,1.0,1.0,1.0
26.38,25.0,1.0,1.0,1.0
26.39,16.0,1.0,1.0,1.0
26.4,17.504,1.0,1.0,1.0
26.41,31.0,1.0,1.0,1.0
26.42,26.504,1.0,1.0,1.0
26.43,14.992,1.0,1.0,1.0
26.44,24.008,1.0,1.0,1.0
26.45,15.496,1.0,1.0,1.0
26.46,25.496,1.0,1.0,1.0
26.47,16.0,1.0,1.0,1.0
26.48,26.008,1.0,1.0,1.0
26.49,21.496,1.0,1.0,1.0
26.5,17.496,1.0,1.0,1.0
26.51,20.0,1.0,1.0,1.0
26.52,17.504,1.0,1.0,1.0
26.53,16.496,1.0,1.0,1.0
26.54,16.0,1.0,1.0,1.0
26.55,12.0,1.0,1.0,1.0
26.56,22.0,1.0,1.0,1.0
26.57,22.0,1.0,1.0,1.0
26.58,17.0,1.0,1.0,1.0
26.59,22.0,1.0,1.0,1.0
26.6,20.0,1.0,1.0,1.0
26.61,6.0,1.0,1.0,1.0
26.62,21.0,1.0,1.0,1.0
26.63,17.0,1.0,1.0,1.0
26.64,8.0,1.0,1.0,1.0
26.65,68.0,1.0,1.0,1.0
26.66,8.0,1.0,1.0,1.0
26.67,18.0,1.0,1.0,1.0
26.68,29.008,1.0,1.0,1.0
26.69,9.992,1.0,1.0,1.0
26.7,6.0,1.0,1.0,1.0
26.71,21.0,1.0,1.0,1.0
26.72,19.0,1.0,1.0,1.0
26.73,14.0,1.0,1.0,1.0
26.74,25.0,1.0,1.0,1.0
26.75,18.0,1.0,1.0,1.0
26.76,17.0,1.0,1.0,1.0
26.77,5.0,1.0,1.0,1.0
26.78,20.0,1.0,1.0,1.0
26.79,8.0,1.0,1.0,1.0
26.8,22.0,1.0,1.0,1.0
26.81,23.504,1.0,1.0,1.0
26.82,12.496,1.0,1.0,1.0
26.83,18.0,1.0,1.0,1.0
26.84,8.0,1.0,1.0,1.0
26.85,21.0,1.0,1.0,1.0
26.86,9.504,1.0,1.0,1.0
26.87,15.496,1.0,1.0,1.0
26.88,10.0,1.0,1.0,1.0
26.89,22.0,1.0,1.0,1.0
26.9,31.0,1.0,1.0,1.0
26.91,15.0,1.0,1.0,1.0
26.92,13.0,1.0,1.0,1.0
26.93,15.0,1.0,1.0,1.0
26.94,21.0,1.0,1.0,1.0
26.95,15.0,1.0,1.0,1.0
26.96,9.0,1.0,1.0,1.0
26.97,10.008,1.0,1.0,1.0
26.98,15.992,1.0,1.0,1.0
26.99,20.0,1.0,1.0,1.0
27.0,17.504,1.0,1.0,1.0
27.01,19.496,1.0,1.0,1.0
27.02,4.0,1.0,1.0,1.0
27.03,9.0,1.0,1.0,1.0
27.04,22.008,1.0,1.0,1.0
27.05,17.992,1.0,1.0,1.0
27.06,16.0,1.0,1.0,1.0
27.07,15.504,1.0,1.0,1.0
27.08,24.496,1.0,1.0,1.0
27.09,23.0,1.0,1.0,1.0
27.1,20.0,1.0,1.0,1.0
27.11,14.0,1.0,1.0,1.0
27.12,13.0,1.0,1.0,1.0
27.13,14.0,1.0,1.0,1.0
27.14,19.504,1.0,1.0,1.0
27.15,19.0,1.0,1.0,1.0
27.16,14.496,1.0,1.0,1.0
27.17,17.0,1.0,1.0,1.0
27.18,14.0,1.0,1.0,1.0
27.19,16.0,1.0,1.0,1.0
27.2,12.0,1.0,1.0,1.0
27.21,9.0,1.0,1.0,1.0
27.22,11.504,1.0,1.0,1.0
27.23,21.496,1.0,1.0,1.0
27.24,15.0,1.0,1.0,1.0
27.25,16.504,1.0,1.0,1.0
27.26,22.504,1.0,1.0,1.0
27.27,21.992,1.0,1.0,1.0
27.28,17.0,1.0,1.0,1.0
27.29,17.504,1.0,1.0,1.0
27.3,20.496,1.0,1.0,1.0
27.31,26.504,1.0,1.0,1.0
27.32,28.0,1.0,1.0,1.0
27.33,14.496,1.0,1.0,1.0
27.34,11.5119,1.0,1.0,1.0
27.35,24.4881,1.0,1.0,1.0
27.36,7.0,1.0,1.0,1.0
27.37,8.0,1.0,1.0,1.0
27.38,14.0,1.0,1.0,1.0
27.39,15.0,1.0,1.0,1.0
27.4,9.0,1.0,1.0,1.0
27.41,14.008,1.0,1.0,1.0
27.42,8.992,1.0,1.0,1.0
27.43,17.0,1.0,1.0,1.0
27.44,9.0,1.0,1.0,1.0
27.45,12.0,1.0,1.0,1.0
27.46,13.0,1.0,1.0,1.0
27.47,16.0,1.0,1.0,1.0
27.48,19.0,1.0,1.0,1.0
27.49,12.008,1.0,1.0,1.0
27.5,12.992,1.0,1.0,1.0
27.51,13.0,1.0,1.0,1.0
27.52,26.504,1.0,1.0,1.0
27.53,9.0,1.0,1.0,1.0
27.54,15.496,1.0,1.0,1.0
27.55,12.504,1.0,1.0,1.0
27.56,7.496,1.0,1.0,1.0
27.57,17.504,1.0,1.0,1.0
27.58,22.496,1.0,1.0,1.0
27.59,13.0,1.0,1.0,1.0
27.6,17.504,1.0,1.0,1.0
27.61,22.0,1.0,1.0,1.0
27.62,0.496,1.0,1.0,1.0
27.63,25.0,1.0,1.0,1.0
27.64,20.504,1.0,1.0,1.0
27.65,14.496,1.0,1.0,1.0
27.66,15.0,1.0,1.0,1.0
27.67,19.0,1.0,1.0,1.0
27.68,5.0,1.0,1.0,1.0
27.69,9.504,1.0,1.0,1.0
27.7,25.0,1.0,1.0,1.0
27.71,17.496,1.0,1.0,1.0
27.72,16.504,1.0,1.0,1.0
27.73,14.0,1.0,1.0,1.0
27.74,13.496,1.0,1.0,1.0
27.75,5.0,1.0,1.0,1.0
27.76,16.0,1.0,1.0,1.0
27.77,5.0,1.0,1.0,1.0
27.78,13.504,1.0,1.0,1.0
27.79,23.0,1.0,1.0,1.0
27.8,12.496,1.0,1.0,1.0
27.81,7.0,1.0,1.0,1.0
27.82,7.0,1.0,1.0,1.0
27.83,18.0,1.0,1.0,1.0
27.84,13.504,1.0,1.0,1.0
27.85,4.496,1.0,1.0,1.0
27.86,10.504,1.0,1.0,1.0
27.87,19.496,1.0,1.0,1.0
27.88,6.0,1.0,1.0,1.0
27.89,9.504,1.0,1.0,1.0
27.9,7.496,1.0,1.0,1.0
27.91,28.504,1.0,1.0,1.0
27.92,20.0,1.0,1.0,1.0
27.93,9.496,1.0,1.0,1.0
27.94,5.0,1.0,1.0,1.0
27.95,13.0,1.0,1.0,1.0
27.96,25.008,1.0,1.0,1.0
27.97,8.496,1.0,1.0,1.0
27.98,15.496,1.0,1.0,1.0
27.99,14.504,1.0,1.0,1.0
28.0,23.504,1.0,1.0,1.0