File: XRD:XRR/SCO/22169_SL(CO)L/22169_SL(CO)L_002_XRD.csv
#twotheta, yobs, ycal, bkg, diff
42.0,66.0,1.0,1.0,1.0
42.01,80.9889,1.0,1.0,1.0
42.02,49.0111,1.0,1.0,1.0
42.03,38.9889,1.0,1.0,1.0
42.04,49.5056,1.0,1.0,1.0
42.05,52.5056,1.0,1.0,1.0
42.06,48.4944,1.0,1.0,1.0
42.07,56.5056,1.0,1.0,1.0
42.08,82.0,1.0,1.0,1.0
42.09,68.5056,1.0,1.0,1.0
42.1,69.9778,1.0,1.0,1.0
42.11,83.0111,1.0,1.0,1.0
42.12,62.5056,1.0,1.0,1.0
42.13,53.9889,1.0,1.0,1.0
42.14,56.0,1.0,1.0,1.0
42.15,48.5167,1.0,1.0,1.0
42.16,59.9889,1.0,1.0,1.0
42.17,55.4944,1.0,1.0,1.0
42.18,59.0111,1.0,1.0,1.0
42.19,61.5056,1.0,1.0,1.0
42.2,61.4944,1.0,1.0,1.0
42.21,66.0,1.0,1.0,1.0
42.22,62.4833,1.0,1.0,1.0
42.23,69.0222,1.0,1.0,1.0
42.24,59.9889,1.0,1.0,1.0
42.25,47.0,1.0,1.0,1.0
42.26,50.5056,1.0,1.0,1.0
42.27,59.9889,1.0,1.0,1.0
42.28,68.0111,1.0,1.0,1.0
42.29,82.0,1.0,1.0,1.0
42.3,65.4944,1.0,1.0,1.0
42.31,94.0,1.0,1.0,1.0
42.32,58.0,1.0,1.0,1.0
42.33,75.9889,1.0,1.0,1.0
42.34,64.0111,1.0,1.0,1.0
42.35,64.5056,1.0,1.0,1.0
42.36,87.0,1.0,1.0,1.0
42.37,53.0,1.0,1.0,1.0
42.38,53.5056,1.0,1.0,1.0
42.39,67.9778,1.0,1.0,1.0
42.4,61.0111,1.0,1.0,1.0
42.41,71.5056,1.0,1.0,1.0
42.42,60.0,1.0,1.0,1.0
42.43,72.0,1.0,1.0,1.0
42.44,58.0,1.0,1.0,1.0
42.45,59.0,1.0,1.0,1.0
42.46,71.0,1.0,1.0,1.0
42.47,62.9889,1.0,1.0,1.0
42.48,74.5167,1.0,1.0,1.0
42.49,64.0,1.0,1.0,1.0
42.5,71.9889,1.0,1.0,1.0
42.51,51.0111,1.0,1.0,1.0
42.52,76.9778,1.0,1.0,1.0
42.53,75.0111,1.0,1.0,1.0
42.54,67.0,1.0,1.0,1.0
42.55,63.5056,1.0,1.0,1.0
42.56,61.9889,1.0,1.0,1.0
42.57,66.0,1.0,1.0,1.0
42.58,76.0111,1.0,1.0,1.0
42.59,71.4944,1.0,1.0,1.0
42.6,79.5056,1.0,1.0,1.0
42.61,68.4944,1.0,1.0,1.0
42.62,64.4944,1.0,1.0,1.0
42.63,69.0111,1.0,1.0,1.0
42.64,86.0,1.0,1.0,1.0
42.65,80.9889,1.0,1.0,1.0
42.66,69.5056,1.0,1.0,1.0
42.67,57.0111,1.0,1.0,1.0
42.68,64.9889,1.0,1.0,1.0
42.69,61.0111,1.0,1.0,1.0
42.7,74.9889,1.0,1.0,1.0
42.71,85.5056,1.0,1.0,1.0
42.72,76.5056,1.0,1.0,1.0
42.73,76.4944,1.0,1.0,1.0
42.74,70.0,1.0,1.0,1.0
42.75,72.0,1.0,1.0,1.0
42.76,88.4944,1.0,1.0,1.0
42.77,81.5056,1.0,1.0,1.0
42.78,86.0,1.0,1.0,1.0
42.79,64.4833,1.0,1.0,1.0
42.8,76.0222,1.0,1.0,1.0
42.81,70.4833,1.0,1.0,1.0
42.82,91.0111,1.0,1.0,1.0
42.83,86.9778,1.0,1.0,1.0
42.84,64.0111,1.0,1.0,1.0
42.85,82.0111,1.0,1.0,1.0
42.86,75.5056,1.0,1.0,1.0
42.87,63.9778,1.0,1.0,1.0
42.88,74.0222,1.0,1.0,1.0
42.89,65.9889,1.0,1.0,1.0
42.9,85.9889,1.0,1.0,1.0
42.91,80.4944,1.0,1.0,1.0
42.92,101.5167,1.0,1.0,1.0
42.93,89.5056,1.0,1.0,1.0
42.94,78.0,1.0,1.0,1.0
42.95,61.0,1.0,1.0,1.0
42.96,81.4944,1.0,1.0,1.0
42.97,86.4944,1.0,1.0,1.0
42.98,71.5167,1.0,1.0,1.0
42.99,79.4833,1.0,1.0,1.0
43.0,80.5056,1.0,1.0,1.0
43.01,83.0,1.0,1.0,1.0
43.02,80.0111,1.0,1.0,1.0
43.03,83.4944,1.0,1.0,1.0
43.04,82.0,1.0,1.0,1.0
43.05,68.4944,1.0,1.0,1.0
43.06,87.5056,1.0,1.0,1.0
43.07,105.0,1.0,1.0,1.0
43.08,89.0,1.0,1.0,1.0
43.09,80.4944,1.0,1.0,1.0
43.1,85.4944,1.0,1.0,1.0
43.11,66.0111,1.0,1.0,1.0
43.12,68.5056,1.0,1.0,1.0
43.13,74.4944,1.0,1.0,1.0
43.14,85.9889,1.0,1.0,1.0
43.15,79.5167,1.0,1.0,1.0
43.16,78.4944,1.0,1.0,1.0
43.17,71.0,1.0,1.0,1.0
43.18,45.9889,1.0,1.0,1.0
43.19,89.0111,1.0,1.0,1.0
43.2,70.4944,1.0,1.0,1.0
43.21,83.5056,1.0,1.0,1.0
43.22,74.5056,1.0,1.0,1.0
43.23,83.4944,1.0,1.0,1.0
43.24,53.5056,1.0,1.0,1.0
43.25,59.0,1.0,1.0,1.0
43.26,65.9889,1.0,1.0,1.0
43.27,67.5056,1.0,1.0,1.0
43.28,68.4944,1.0,1.0,1.0
43.29,74.4944,1.0,1.0,1.0
43.3,73.5056,1.0,1.0,1.0
43.31,64.5056,1.0,1.0,1.0
43.32,69.4944,1.0,1.0,1.0
43.33,81.0,1.0,1.0,1.0
43.34,92.0111,1.0,1.0,1.0
43.35,64.9889,1.0,1.0,1.0
43.36,76.0,1.0,1.0,1.0
43.37,72.0,1.0,1.0,1.0
43.38,84.0111,1.0,1.0,1.0
43.39,90.4944,1.0,1.0,1.0
43.4,71.4722,1.0,1.0,1.0
43.41,94.0333,1.0,1.0,1.0
43.42,75.9889,1.0,1.0,1.0
43.43,83.0,1.0,1.0,1.0
43.44,115.0,1.0,1.0,1.0
43.45,88.5056,1.0,1.0,1.0
43.46,95.9778,1.0,1.0,1.0
43.47,94.0111,1.0,1.0,1.0
43.48,77.5056,1.0,1.0,1.0
43.49,89.0,1.0,1.0,1.0
43.5,73.0,1.0,1.0,1.0
43.51,94.5056,1.0,1.0,1.0
43.52,101.9778,1.0,1.0,1.0
43.53,110.5056,1.0,1.0,1.0
43.54,81.5167,1.0,1.0,1.0
43.55,101.4944,1.0,1.0,1.0
43.56,92.5056,1.0,1.0,1.0
43.57,80.4944,1.0,1.0,1.0
43.58,89.0111,1.0,1.0,1.0
43.59,88.9889,1.0,1.0,1.0
43.6,76.0111,1.0,1.0,1.0
43.61,89.4833,1.0,1.0,1.0
43.62,85.5056,1.0,1.0,1.0
43.63,84.5056,1.0,1.0,1.0
43.64,92.4944,1.0,1.0,1.0
43.65,97.0111,1.0,1.0,1.0
43.66,84.4944,1.0,1.0,1.0
43.67,87.5056,1.0,1.0,1.0
43.68,80.4833,1.0,1.0,1.0
43.69,69.0111,1.0,1.0,1.0
43.7,81.4944,1.0,1.0,1.0
43.71,83.4944,1.0,1.0,1.0
43.72,73.5056,1.0,1.0,1.0
43.73,69.4944,1.0,1.0,1.0
43.74,103.0111,1.0,1.0,1.0
43.75,92.0,1.0,1.0,1.0
43.76,53.0,1.0,1.0,1.0
43.77,77.4944,1.0,1.0,1.0
43.78,63.0111,1.0,1.0,1.0
43.79,100.9778,1.0,1.0,1.0
43.8,53.0,1.0,1.0,1.0
43.81,82.0222,1.0,1.0,1.0
43.82,86.0,1.0,1.0,1.0
43.83,79.4944,1.0,1.0,1.0
43.84,68.5056,1.0,1.0,1.0
43.85,83.4833,1.0,1.0,1.0
43.86,83.0111,1.0,1.0,1.0
43.87,87.4944,1.0,1.0,1.0
43.88,76.0,1.0,1.0,1.0
43.89,50.0111,1.0,1.0,1.0
43.9,86.4944,1.0,1.0,1.0
43.91,79.4944,1.0,1.0,1.0
43.92,75.4944,1.0,1.0,1.0
43.93,96.5056,1.0,1.0,1.0
43.94,75.0,1.0,1.0,1.0
43.95,87.5056,1.0,1.0,1.0
43.96,93.9889,1.0,1.0,1.0
43.97,76.5056,1.0,1.0,1.0
43.98,87.4944,1.0,1.0,1.0
43.99,89.0111,1.0,1.0,1.0
44.0,88.0,1.0,1.0,1.0
44.01,88.9889,1.0,1.0,1.0
44.02,96.5056,1.0,1.0,1.0
44.03,122.9889,1.0,1.0,1.0
44.04,110.5167,1.0,1.0,1.0
44.05,94.4944,1.0,1.0,1.0
44.06,108.9889,1.0,1.0,1.0
44.07,81.5056,1.0,1.0,1.0
44.08,103.5167,1.0,1.0,1.0
44.09,125.4833,1.0,1.0,1.0
44.1,105.0111,1.0,1.0,1.0
44.11,105.4944,1.0,1.0,1.0
44.12,113.5056,1.0,1.0,1.0
44.13,109.0,1.0,1.0,1.0
44.14,91.9889,1.0,1.0,1.0
44.15,96.0,1.0,1.0,1.0
44.16,106.4944,1.0,1.0,1.0
44.17,93.0222,1.0,1.0,1.0
44.18,103.9889,1.0,1.0,1.0
44.19,112.0111,1.0,1.0,1.0
44.2,121.4833,1.0,1.0,1.0
44.21,101.0,1.0,1.0,1.0
44.22,141.5056,1.0,1.0,1.0
44.23,115.9889,1.0,1.0,1.0
44.24,143.5056,1.0,1.0,1.0
44.25,123.0111,1.0,1.0,1.0
44.26,137.9889,1.0,1.0,1.0
44.27,129.5056,1.0,1.0,1.0
44.28,159.0,1.0,1.0,1.0
44.29,136.0,1.0,1.0,1.0
44.3,151.9889,1.0,1.0,1.0
44.31,133.0222,1.0,1.0,1.0
44.32,142.4944,1.0,1.0,1.0
44.33,140.9889,1.0,1.0,1.0
44.34,133.9889,1.0,1.0,1.0
44.35,147.5167,1.0,1.0,1.0
44.36,136.4944,1.0,1.0,1.0
44.37,180.0,1.0,1.0,1.0
44.38,187.4833,1.0,1.0,1.0
44.39,181.0,1.0,1.0,1.0
44.4,168.5278,1.0,1.0,1.0
44.41,195.4833,1.0,1.0,1.0
44.42,169.5056,1.0,1.0,1.0
44.43,164.0,1.0,1.0,1.0
44.44,194.0111,1.0,1.0,1.0
44.45,192.4722,1.0,1.0,1.0
44.46,202.0111,1.0,1.0,1.0
44.47,166.9889,1.0,1.0,1.0
44.48,172.0,1.0,1.0,1.0
44.49,155.0111,1.0,1.0,1.0
44.5,173.0,1.0,1.0,1.0
44.51,183.4944,1.0,1.0,1.0
44.52,194.9889,1.0,1.0,1.0
44.53,189.5167,1.0,1.0,1.0
44.54,183.5167,1.0,1.0,1.0
44.55,187.4944,1.0,1.0,1.0
44.56,160.4833,1.0,1.0,1.0
44.57,192.5167,1.0,1.0,1.0
44.58,171.5056,1.0,1.0,1.0
44.59,171.4722,1.0,1.0,1.0
44.6,217.0111,1.0,1.0,1.0
44.61,186.0111,1.0,1.0,1.0
44.62,177.9889,1.0,1.0,1.0
44.63,172.0111,1.0,1.0,1.0
44.64,192.5056,1.0,1.0,1.0
44.65,193.9778,1.0,1.0,1.0
44.66,211.0,1.0,1.0,1.0
44.67,216.5056,1.0,1.0,1.0
44.68,216.9889,1.0,1.0,1.0
44.69,234.0,1.0,1.0,1.0
44.7,206.0222,1.0,1.0,1.0
44.71,223.9778,1.0,1.0,1.0
44.72,268.0,1.0,1.0,1.0
44.73,269.5056,1.0,1.0,1.0
44.74,264.9889,1.0,1.0,1.0
44.75,303.0,1.0,1.0,1.0
44.76,315.0,1.0,1.0,1.0
44.77,315.5056,1.0,1.0,1.0
44.78,325.0,1.0,1.0,1.0
44.79,309.5056,1.0,1.0,1.0
44.8,344.4944,1.0,1.0,1.0
44.81,402.9778,1.0,1.0,1.0
44.82,420.0222,1.0,1.0,1.0
44.83,427.0,1.0,1.0,1.0
44.84,484.4944,1.0,1.0,1.0
44.85,535.0,1.0,1.0,1.0
44.86,474.0111,1.0,1.0,1.0
44.87,554.4389,1.0,1.0,1.0
44.88,581.5167,1.0,1.0,1.0
44.89,576.0,1.0,1.0,1.0
44.9,643.4944,1.0,1.0,1.0
44.91,704.9778,1.0,1.0,1.0
44.92,730.5389,1.0,1.0,1.0
44.93,720.9667,1.0,1.0,1.0
44.94,754.4833,1.0,1.0,1.0
44.95,796.4722,1.0,1.0,1.0
44.96,828.5278,1.0,1.0,1.0
44.97,950.4944,1.0,1.0,1.0
44.98,931.0222,1.0,1.0,1.0
44.99,988.4944,1.0,1.0,1.0
45.0,1021.48,1.0,1.0,1.0
45.01,1037.49,1.0,1.0,1.0
45.02,1105.53,1.0,1.0,1.0
45.03,1167.96,1.0,1.0,1.0
45.04,1237.49,1.0,1.0,1.0
45.05,1186.99,1.0,1.0,1.0
45.06,1321.04,1.0,1.0,1.0
45.07,1308.44,1.0,1.0,1.0
45.08,1285.06,1.0,1.0,1.0
45.09,1357.47,1.0,1.0,1.0
45.1,1388.48,1.0,1.0,1.0
45.11,1394.47,1.0,1.0,1.0
45.12,1399.58,1.0,1.0,1.0
45.13,1411.48,1.0,1.0,1.0
45.14,1353.0,1.0,1.0,1.0
45.15,1449.98,1.0,1.0,1.0
45.16,1405.01,1.0,1.0,1.0
45.17,1405.48,1.0,1.0,1.0
45.18,1381.0,1.0,1.0,1.0
45.19,1368.99,1.0,1.0,1.0
45.2,1338.03,1.0,1.0,1.0
45.21,1421.89,1.0,1.0,1.0
45.22,1354.57,1.0,1.0,1.0
45.23,1313.54,1.0,1.0,1.0
45.24,1288.97,1.0,1.0,1.0
45.25,1293.01,1.0,1.0,1.0
45.26,1284.48,1.0,1.0,1.0
45.27,1210.07,1.0,1.0,1.0
45.28,1148.99,1.0,1.0,1.0
45.29,1109.99,1.0,1.0,1.0
45.3,1123.0,1.0,1.0,1.0
45.31,1089.98,1.0,1.0,1.0
45.32,1040.02,1.0,1.0,1.0
45.33,1072.0,1.0,1.0,1.0
45.34,1092.97,1.0,1.0,1.0
45.35,1075.56,1.0,1.0,1.0
45.36,932.4944,1.0,1.0,1.0
45.37,1067.44,1.0,1.0,1.0
45.38,955.5278,1.0,1.0,1.0
45.39,1058.07,1.0,1.0,1.0
45.4,1041.97,1.0,1.0,1.0
45.41,1047.99,1.0,1.0,1.0
45.42,1163.98,1.0,1.0,1.0
45.43,1208.53,1.0,1.0,1.0
45.44,1176.97,1.0,1.0,1.0
45.45,1306.94,1.0,1.0,1.0
45.46,1374.51,1.0,1.0,1.0
45.47,1423.02,1.0,1.0,1.0
45.48,1563.48,1.0,1.0,1.0
45.49,1616.03,1.0,1.0,1.0
45.5,1792.96,1.0,1.0,1.0
45.51,1938.92,1.0,1.0,1.0
45.52,2081.58,1.0,1.0,1.0
45.53,2342.0,1.0,1.0,1.0
45.54,2305.99,1.0,1.0,1.0
45.55,2447.93,1.0,1.0,1.0
45.56,2609.0,1.0,1.0,1.0
45.57,2864.39,1.0,1.0,1.0
45.58,2864.55,1.0,1.0,1.0
45.59,3008.46,1.0,1.0,1.0
45.6,3148.47,1.0,1.0,1.0
45.61,3366.46,1.0,1.0,1.0
45.62,3493.03,1.0,1.0,1.0
45.63,3644.42,1.0,1.0,1.0
45.64,3820.02,1.0,1.0,1.0
45.65,4092.0,1.0,1.0,1.0
45.66,4113.53,1.0,1.0,1.0
45.67,4091.41,1.0,1.0,1.0
45.68,4239.52,1.0,1.0,1.0
45.69,4341.06,1.0,1.0,1.0
45.7,4343.97,1.0,1.0,1.0
45.71,4556.52,1.0,1.0,1.0
45.72,4446.561,1.0,1.0,1.0
45.73,4715.87,1.0,1.0,1.0
45.74,4710.09,1.0,1.0,1.0
45.75,4826.93,1.0,1.0,1.0
45.76,4816.02,1.0,1.0,1.0
45.77,4929.02,1.0,1.0,1.0
45.78,4709.51,1.0,1.0,1.0
45.79,4817.01,1.0,1.0,1.0
45.8,4723.89,1.0,1.0,1.0
45.81,4883.48,1.0,1.0,1.0
45.82,4687.17,1.0,1.0,1.0
45.83,4631.92,1.0,1.0,1.0
45.84,4754.96,1.0,1.0,1.0
45.85,4742.98,1.0,1.0,1.0
45.86,4614.62,1.0,1.0,1.0
45.87,4638.47,1.0,1.0,1.0
45.88,4521.92,1.0,1.0,1.0
45.89,4447.09,1.0,1.0,1.0
45.9,4339.03,1.0,1.0,1.0
45.91,4247.42,1.0,1.0,1.0
45.92,4217.49,1.0,1.0,1.0
45.93,4045.0,1.0,1.0,1.0
45.94,4070.57,1.0,1.0,1.0
45.95,3948.57,1.0,1.0,1.0
45.96,3718.98,1.0,1.0,1.0
45.97,3595.96,1.0,1.0,1.0
45.98,3540.1,1.0,1.0,1.0
45.99,3376.01,1.0,1.0,1.0
46.0,3281.91,1.0,1.0,1.0
46.01,3185.1,1.0,1.0,1.0
46.02,3043.47,1.0,1.0,1.0
46.03,2930.87,1.0,1.0,1.0
46.04,2948.74,1.0,1.0,1.0
46.05,2631.91,1.0,1.0,1.0
46.06,2614.55,1.0,1.0,1.0
46.07,2529.52,1.0,1.0,1.0
46.08,2366.439,1.0,1.0,1.0
46.09,2378.04,1.0,1.0,1.0
46.1,2218.06,1.0,1.0,1.0
46.11,2202.94,1.0,1.0,1.0
46.12,2131.02,1.0,1.0,1.0
46.13,2121.61,1.0,1.0,1.0
46.14,2110.42,1.0,1.0,1.0
46.15,2087.48,1.0,1.0,1.0
46.16,2124.04,1.0,1.0,1.0
46.17,2206.45,1.0,1.0,1.0
46.18,2281.0,1.0,1.0,1.0
46.19,2255.0,1.0,1.0,1.0
46.2,2353.45,1.0,1.0,1.0
46.21,2514.52,1.0,1.0,1.0
46.22,2623.45,1.0,1.0,1.0
46.23,2744.561,1.0,1.0,1.0
46.24,2939.97,1.0,1.0,1.0
46.25,3144.0,1.0,1.0,1.0
46.26,3452.88,1.0,1.0,1.0
46.27,3592.51,1.0,1.0,1.0
46.28,3876.52,1.0,1.0,1.0
46.29,4307.9,1.0,1.0,1.0
46.3,4569.53,1.0,1.0,1.0
46.31,4911.86,1.0,1.0,1.0
46.32,5216.439,1.0,1.0,1.0
46.33,5671.94,1.0,1.0,1.0
46.34,6079.61,1.0,1.0,1.0
46.35,6474.33,1.0,1.0,1.0
46.36,6941.96,1.0,1.0,1.0
46.37,7334.49,1.0,1.0,1.0
46.38,7750.92,1.0,1.0,1.0
46.39,8116.45,1.0,1.0,1.0
46.4,8750.35,1.0,1.0,1.0
46.41,9063.21,1.0,1.0,1.0
46.42,9346.23,1.0,1.0,1.0
46.43,9702.63,1.0,1.0,1.0
46.44,10158,1.0,1.0,1.0
46.45,10554.5,1.0,1.0,1.0
46.46,11121.2,1.0,1.0,1.0
46.47,11366.5,1.0,1.0,1.0
46.48,11667.4,1.0,1.0,1.0
46.49,12200.2,1.0,1.0,1.0
46.5,12264.4,1.0,1.0,1.0
46.51,12512.1,1.0,1.0,1.0
46.52,12647.4,1.0,1.0,1.0
46.53,13005.5,1.0,1.0,1.0
46.54,12860.6,1.0,1.0,1.0
46.55,13100.9,1.0,1.0,1.0
46.56,13208.417,1.0,1.0,1.0
46.57,13373.4,1.0,1.0,1.0
46.58,13155.7,1.0,1.0,1.0
46.59,13205.5,1.0,1.0,1.0
46.6,12940.1,1.0,1.0,1.0
46.61,12975,1.0,1.0,1.0
46.62,12981.4,1.0,1.0,1.0
46.63,12722.75,1.0,1.0,1.0
46.64,12598.3,1.0,1.0,1.0
46.65,12603.0,1.0,1.0,1.0
46.66,12004.5,1.0,1.0,1.0
46.67,11958.1,1.0,1.0,1.0
46.68,11638.5,1.0,1.0,1.0
46.69,11424.5,1.0,1.0,1.0
46.7,11301.7,1.0,1.0,1.0
46.71,10964.9,1.0,1.0,1.0
46.72,10697.5,1.0,1.0,1.0
46.73,10378.1,1.0,1.0,1.0
46.74,9973.52,1.0,1.0,1.0
46.75,9818.11,1.0,1.0,1.0
46.76,9629.53,1.0,1.0,1.0
46.77,9419.54,1.0,1.0,1.0
46.78,8925.55,1.0,1.0,1.0
46.79,8785.93,1.0,1.0,1.0
46.8,8462.99,1.0,1.0,1.0
46.81,8196.03,1.0,1.0,1.0
46.82,7994.64,1.0,1.0,1.0
46.83,7698.51,1.0,1.0,1.0
46.84,7362.97,1.0,1.0,1.0
46.85,7305.08,1.0,1.0,1.0
46.86,7002.38,1.0,1.0,1.0
46.87,6784.07,1.0,1.0,1.0
46.88,6736.99,1.0,1.0,1.0
46.89,6417.66,1.0,1.0,1.0
46.9,6062.99,1.0,1.0,1.0
46.91,6067.99,1.0,1.0,1.0
46.92,5845.57,1.0,1.0,1.0
46.93,5575.439,1.0,1.0,1.0
46.94,5421.58,1.0,1.0,1.0
46.95,5411.08,1.0,1.0,1.0
46.96,5200.03,1.0,1.0,1.0
46.97,4915.96,1.0,1.0,1.0
46.98,4934.02,1.0,1.0,1.0
46.99,4817.99,1.0,1.0,1.0
47.0,4521.02,1.0,1.0,1.0
47.01,4540.49,1.0,1.0,1.0
47.02,4243.03,1.0,1.0,1.0
47.03,4148.93,1.0,1.0,1.0
47.04,3988.53,1.0,1.0,1.0
47.05,3833.02,1.0,1.0,1.0
47.06,3707.13,1.0,1.0,1.0
47.07,3632.89,1.0,1.0,1.0
47.08,3349.63,1.0,1.0,1.0
47.09,3259.49,1.0,1.0,1.0
47.1,3128.51,1.0,1.0,1.0
47.11,3025.02,1.0,1.0,1.0
47.12,3010.38,1.0,1.0,1.0
47.13,2865.64,1.0,1.0,1.0
47.14,2783.0,1.0,1.0,1.0
47.15,2659.55,1.0,1.0,1.0
47.16,2372.48,1.0,1.0,1.0
47.17,2345.45,1.0,1.0,1.0
47.18,2289.04,1.0,1.0,1.0
47.19,2092.58,1.0,1.0,1.0
47.2,2120.45,1.0,1.0,1.0
47.21,1943.0,1.0,1.0,1.0
47.22,1877.61,1.0,1.0,1.0
47.23,1800.91,1.0,1.0,1.0
47.24,1733.04,1.0,1.0,1.0
47.25,1694.48,1.0,1.0,1.0
47.26,1654.53,1.0,1.0,1.0
47.27,1610.98,1.0,1.0,1.0
47.28,1557.01,1.0,1.0,1.0
47.29,1569.0,1.0,1.0,1.0
47.3,1589.0,1.0,1.0,1.0
47.31,1532.99,1.0,1.0,1.0
47.32,1524.56,1.0,1.0,1.0
47.33,1517.44,1.0,1.0,1.0
47.34,1524.44,1.0,1.0,1.0
47.35,1583.58,1.0,1.0,1.0
47.36,1612.99,1.0,1.0,1.0
47.37,1635.45,1.0,1.0,1.0
47.38,1719.04,1.0,1.0,1.0
47.39,1784.92,1.0,1.0,1.0
47.4,1865.06,1.0,1.0,1.0
47.41,1888.51,1.0,1.0,1.0
47.42,1954.47,1.0,1.0,1.0
47.43,2111.48,1.0,1.0,1.0
47.44,2111.53,1.0,1.0,1.0
47.45,2332.91,1.0,1.0,1.0
47.46,2381.99,1.0,1.0,1.0
47.47,2453.48,1.0,1.0,1.0
47.48,2646.99,1.0,1.0,1.0
47.49,2665.08,1.0,1.0,1.0
47.5,2762.57,1.0,1.0,1.0
47.51,2873.36,1.0,1.0,1.0
47.52,3069.99,1.0,1.0,1.0
47.53,3101.88,1.0,1.0,1.0
47.54,3265.58,1.0,1.0,1.0
47.55,3355.49,1.0,1.0,1.0
47.56,3638.55,1.0,1.0,1.0
47.57,3456.36,1.0,1.0,1.0
47.58,3753.07,1.0,1.0,1.0
47.59,3882.93,1.0,1.0,1.0
47.6,3982.439,1.0,1.0,1.0
47.61,4208.59,1.0,1.0,1.0
47.62,4393.46,1.0,1.0,1.0
47.63,4590.52,1.0,1.0,1.0
47.64,4867.9,1.0,1.0,1.0
47.65,5067.51,1.0,1.0,1.0
47.66,5225.78,1.0,1.0,1.0
47.67,5492.772,1.0,1.0,1.0
47.68,5600.79,1.0,1.0,1.0
47.69,6211.97,1.0,1.0,1.0
47.7,6488.87,1.0,1.0,1.0
47.71,7123.01,1.0,1.0,1.0
47.72,7610.09,1.0,1.0,1.0
47.73,7929.27,1.0,1.0,1.0
47.74,8869.44,1.0,1.0,1.0
47.75,10019.4,1.0,1.0,1.0
47.76,11228.3,1.0,1.0,1.0
47.77,12810.3,1.0,1.0,1.0
47.78,14855.1,1.0,1.0,1.0
47.79,18087.9,1.0,1.0,1.0
47.8,22639.3,1.0,1.0,1.0
47.81,30126.8,1.0,1.0,1.0
47.82,44081.4,1.0,1.0,1.0
47.83,74420.3,1.0,1.0,1.0
47.84,152552,1.0,1.0,1.0
47.85,467693,1.0,1.0,1.0
47.86,1637383.875,1.0,1.0,1.0
47.87,4737641.5,1.0,1.0,1.0
47.88,9135124.0,1.0,1.0,1.0
47.89,10534360.0,1.0,1.0,1.0
47.9,9734848.0,1.0,1.0,1.0
47.91,8337153.5,1.0,1.0,1.0
47.92,4334026.0,1.0,1.0,1.0
47.93,2334924.75,1.0,1.0,1.0
47.94,1996484.75,1.0,1.0,1.0
47.95,1872705.0,1.0,1.0,1.0
47.96,1885580.0,1.0,1.0,1.0
47.97,1679778.25,1.0,1.0,1.0
47.98,1184508.125,1.0,1.0,1.0
47.99,699270.0,1.0,1.0,1.0
48.0,441926,1.0,1.0,1.0
48.01,306479,1.0,1.0,1.0
48.02,225752,1.0,1.0,1.0
48.03,173300,1.0,1.0,1.0
48.04,140198,1.0,1.0,1.0
48.05,114581,1.0,1.0,1.0
48.06,93301.4,1.0,1.0,1.0
48.07,75135.5,1.0,1.0,1.0
48.08,60822.2,1.0,1.0,1.0
48.09,50399.1,1.0,1.0,1.0
48.1,41375.5,1.0,1.0,1.0
48.11,31599.1,1.0,1.0,1.0
48.12,23845.666,1.0,1.0,1.0
48.13,19588.4,1.0,1.0,1.0
48.14,15780,1.0,1.0,1.0
48.15,13290.2,1.0,1.0,1.0
48.16,11190.6,1.0,1.0,1.0
48.17,9452.64,1.0,1.0,1.0
48.18,7987.311,1.0,1.0,1.0
48.19,6608.97,1.0,1.0,1.0
48.2,5828.51,1.0,1.0,1.0
48.21,4940.68,1.0,1.0,1.0
48.22,4317.67,1.0,1.0,1.0
48.23,3839.96,1.0,1.0,1.0
48.24,3336.01,1.0,1.0,1.0
48.25,3070.48,1.0,1.0,1.0
48.26,2762.62,1.0,1.0,1.0
48.27,2527.51,1.0,1.0,1.0
48.28,2256.54,1.0,1.0,1.0
48.29,2122.04,1.0,1.0,1.0
48.3,1882.45,1.0,1.0,1.0
48.31,1810.04,1.0,1.0,1.0
48.32,1593.97,1.0,1.0,1.0
48.33,1485.07,1.0,1.0,1.0
48.34,1377.55,1.0,1.0,1.0
48.35,1273.46,1.0,1.0,1.0
48.36,1191.03,1.0,1.0,1.0
48.37,1138.48,1.0,1.0,1.0
48.38,978.5278,1.0,1.0,1.0
48.39,1001.0,1.0,1.0,1.0
48.4,933.5167,1.0,1.0,1.0
48.41,922.9667,1.0,1.0,1.0
48.42,746.0555,1.0,1.0,1.0
48.43,757.5167,1.0,1.0,1.0
48.44,688.5056,1.0,1.0,1.0
48.45,619.4722,1.0,1.0,1.0
48.46,610.4833,1.0,1.0,1.0
48.47,586.5278,1.0,1.0,1.0
48.48,547.0111,1.0,1.0,1.0
48.49,560.4944,1.0,1.0,1.0
48.5,510.0,1.0,1.0,1.0
48.51,480.0,1.0,1.0,1.0
48.52,473.5167,1.0,1.0,1.0
48.53,447.4722,1.0,1.0,1.0
48.54,479.0,1.0,1.0,1.0
48.55,418.0,1.0,1.0,1.0
48.56,388.0,1.0,1.0,1.0
48.57,385.55,1.0,1.0,1.0
48.58,397.9778,1.0,1.0,1.0
48.59,401.0111,1.0,1.0,1.0
48.6,407.4833,1.0,1.0,1.0
48.61,405.0,1.0,1.0,1.0
48.62,373.0222,1.0,1.0,1.0
48.63,348.4611,1.0,1.0,1.0
48.64,345.5389,1.0,1.0,1.0
48.65,385.4611,1.0,1.0,1.0
48.66,367.5278,1.0,1.0,1.0
48.67,371.4944,1.0,1.0,1.0
48.68,342.5167,1.0,1.0,1.0
48.69,358.4722,1.0,1.0,1.0
48.7,347.0111,1.0,1.0,1.0
48.71,373.5056,1.0,1.0,1.0
48.72,384.0111,1.0,1.0,1.0
48.73,369.4722,1.0,1.0,1.0
48.74,379.0333,1.0,1.0,1.0
48.75,360.0111,1.0,1.0,1.0
48.76,351.4389,1.0,1.0,1.0
48.77,345.5389,1.0,1.0,1.0
48.78,322.9889,1.0,1.0,1.0
48.79,361.0111,1.0,1.0,1.0
48.8,319.5167,1.0,1.0,1.0
48.81,328.4722,1.0,1.0,1.0
48.82,288.5278,1.0,1.0,1.0
48.83,333.4833,1.0,1.0,1.0
48.84,317.0111,1.0,1.0,1.0
48.85,277.4611,1.0,1.0,1.0
48.86,294.5278,1.0,1.0,1.0
48.87,251.0111,1.0,1.0,1.0
48.88,248.4833,1.0,1.0,1.0
48.89,277.5056,1.0,1.0,1.0
48.9,256.0111,1.0,1.0,1.0
48.91,256.0,1.0,1.0,1.0
48.92,242.9778,1.0,1.0,1.0
48.93,232.5278,1.0,1.0,1.0
48.94,233.9778,1.0,1.0,1.0
48.95,229.4944,1.0,1.0,1.0
48.96,234.4944,1.0,1.0,1.0
48.97,200.0111,1.0,1.0,1.0
48.98,255.5167,1.0,1.0,1.0
48.99,205.9889,1.0,1.0,1.0
49.0,193.0,1.0,1.0,1.0
49.01,187.5056,1.0,1.0,1.0
49.02,177.0,1.0,1.0,1.0
49.03,208.5056,1.0,1.0,1.0
49.04,186.4944,1.0,1.0,1.0
49.05,189.5056,1.0,1.0,1.0
49.06,155.9889,1.0,1.0,1.0
49.07,190.0111,1.0,1.0,1.0
49.08,180.4722,1.0,1.0,1.0
49.09,183.5167,1.0,1.0,1.0
49.1,175.5167,1.0,1.0,1.0
49.11,177.0,1.0,1.0,1.0
49.12,150.4944,1.0,1.0,1.0
49.13,147.0,1.0,1.0,1.0
49.14,129.0,1.0,1.0,1.0
49.15,132.0111,1.0,1.0,1.0
49.16,155.9889,1.0,1.0,1.0
49.17,131.5056,1.0,1.0,1.0
49.18,147.0111,1.0,1.0,1.0
49.19,127.9778,1.0,1.0,1.0
49.2,150.4944,1.0,1.0,1.0
49.21,163.0222,1.0,1.0,1.0
49.22,134.4944,1.0,1.0,1.0
49.23,111.5056,1.0,1.0,1.0
49.24,118.4944,1.0,1.0,1.0
49.25,146.0,1.0,1.0,1.0
49.26,113.4944,1.0,1.0,1.0
49.27,105.5167,1.0,1.0,1.0
49.28,113.9778,1.0,1.0,1.0
49.29,118.0111,1.0,1.0,1.0
49.3,107.0,1.0,1.0,1.0
49.31,120.0111,1.0,1.0,1.0
49.32,112.9778,1.0,1.0,1.0
49.33,94.5167,1.0,1.0,1.0
49.34,88.4944,1.0,1.0,1.0
49.35,113.9889,1.0,1.0,1.0
49.36,75.0111,1.0,1.0,1.0
49.37,117.0,1.0,1.0,1.0
49.38,143.4944,1.0,1.0,1.0
49.39,91.4944,1.0,1.0,1.0
49.4,93.0111,1.0,1.0,1.0
49.41,86.9889,1.0,1.0,1.0
49.42,83.0222,1.0,1.0,1.0
49.43,95.9889,1.0,1.0,1.0
49.44,118.4944,1.0,1.0,1.0
49.45,100.4944,1.0,1.0,1.0
49.46,108.0111,1.0,1.0,1.0
49.47,116.4944,1.0,1.0,1.0
49.48,84.5056,1.0,1.0,1.0
49.49,87.0111,1.0,1.0,1.0
49.5,91.4944,1.0,1.0,1.0
49.51,77.0,1.0,1.0,1.0
49.52,83.0,1.0,1.0,1.0
49.53,64.0,1.0,1.0,1.0
49.54,88.4833,1.0,1.0,1.0
49.55,78.5056,1.0,1.0,1.0
49.56,67.0,1.0,1.0,1.0
49.57,102.5056,1.0,1.0,1.0
49.58,63.0111,1.0,1.0,1.0
49.59,73.0,1.0,1.0,1.0
49.6,93.4944,1.0,1.0,1.0
49.61,72.9889,1.0,1.0,1.0
49.62,82.0111,1.0,1.0,1.0
49.63,89.4944,1.0,1.0,1.0
49.64,89.0,1.0,1.0,1.0
49.65,80.0111,1.0,1.0,1.0
49.66,83.4944,1.0,1.0,1.0
49.67,79.4944,1.0,1.0,1.0
49.68,70.0,1.0,1.0,1.0
49.69,55.5056,1.0,1.0,1.0
49.7,83.0,1.0,1.0,1.0
49.71,80.5056,1.0,1.0,1.0
49.72,78.0,1.0,1.0,1.0
49.73,73.0,1.0,1.0,1.0
49.74,56.4833,1.0,1.0,1.0
49.75,72.5056,1.0,1.0,1.0
49.76,72.0,1.0,1.0,1.0
49.77,101.4833,1.0,1.0,1.0
49.78,84.0222,1.0,1.0,1.0
49.79,71.0,1.0,1.0,1.0
49.8,71.0,1.0,1.0,1.0
49.81,81.0,1.0,1.0,1.0
49.82,79.4944,1.0,1.0,1.0
49.83,102.0,1.0,1.0,1.0
49.84,71.5056,1.0,1.0,1.0
49.85,72.5056,1.0,1.0,1.0
49.86,90.0,1.0,1.0,1.0
49.87,62.0,1.0,1.0,1.0
49.88,49.4833,1.0,1.0,1.0
49.89,71.0111,1.0,1.0,1.0
49.9,65.4944,1.0,1.0,1.0
49.91,76.5056,1.0,1.0,1.0
49.92,72.4833,1.0,1.0,1.0
49.93,65.0111,1.0,1.0,1.0
49.94,65.0111,1.0,1.0,1.0
49.95,57.4944,1.0,1.0,1.0
49.96,69.5056,1.0,1.0,1.0
49.97,55.0,1.0,1.0,1.0
49.98,69.4833,1.0,1.0,1.0
49.99,84.0111,1.0,1.0,1.0
50.0,67.4944,1.0,1.0,1.0
50.01,69.5056,1.0,1.0,1.0
50.02,57.0,1.0,1.0,1.0
50.03,66.4944,1.0,1.0,1.0
50.04,67.5056,1.0,1.0,1.0
50.05,84.0,1.0,1.0,1.0
50.06,78.5056,1.0,1.0,1.0
50.07,41.4944,1.0,1.0,1.0
50.08,61.5056,1.0,1.0,1.0
50.09,63.4944,1.0,1.0,1.0
50.1,65.9889,1.0,1.0,1.0
50.11,70.0,1.0,1.0,1.0
50.12,74.5167,1.0,1.0,1.0
50.13,61.9778,1.0,1.0,1.0
50.14,63.5167,1.0,1.0,1.0
50.15,60.4944,1.0,1.0,1.0
50.16,69.0111,1.0,1.0,1.0
50.17,56.0,1.0,1.0,1.0
50.18,60.0,1.0,1.0,1.0
50.19,48.0,1.0,1.0,1.0
50.2,67.9889,1.0,1.0,1.0
50.21,78.5056,1.0,1.0,1.0
50.22,65.4833,1.0,1.0,1.0
50.23,76.5167,1.0,1.0,1.0
50.24,57.5056,1.0,1.0,1.0
50.25,49.0,1.0,1.0,1.0
50.26,49.4833,1.0,1.0,1.0
50.27,55.0,1.0,1.0,1.0
50.28,61.5167,1.0,1.0,1.0
50.29,64.4944,1.0,1.0,1.0
50.3,44.5056,1.0,1.0,1.0
50.31,67.9889,1.0,1.0,1.0
50.32,52.4944,1.0,1.0,1.0
50.33,66.0,1.0,1.0,1.0
50.34,62.0111,1.0,1.0,1.0
50.35,46.5056,1.0,1.0,1.0
50.36,63.9889,1.0,1.0,1.0
50.37,48.0111,1.0,1.0,1.0
50.38,54.0,1.0,1.0,1.0
50.39,56.9889,1.0,1.0,1.0
50.4,106.5056,1.0,1.0,1.0
50.41,44.4944,1.0,1.0,1.0
50.42,55.4944,1.0,1.0,1.0
50.43,53.5056,1.0,1.0,1.0
50.44,58.0,1.0,1.0,1.0
50.45,59.0111,1.0,1.0,1.0
50.46,54.4944,1.0,1.0,1.0
50.47,43.5056,1.0,1.0,1.0
50.48,52.0,1.0,1.0,1.0
50.49,70.9889,1.0,1.0,1.0
50.5,53.0111,1.0,1.0,1.0
50.51,51.4833,1.0,1.0,1.0
50.52,65.5167,1.0,1.0,1.0
50.53,57.9889,1.0,1.0,1.0
50.54,47.0111,1.0,1.0,1.0
50.55,66.4944,1.0,1.0,1.0
50.56,48.5056,1.0,1.0,1.0
50.57,66.4944,1.0,1.0,1.0
50.58,54.0,1.0,1.0,1.0
50.59,61.5056,1.0,1.0,1.0
50.6,74.4833,1.0,1.0,1.0
50.61,50.5056,1.0,1.0,1.0
50.62,48.5056,1.0,1.0,1.0
50.63,54.9889,1.0,1.0,1.0
50.64,40.5167,1.0,1.0,1.0
50.65,57.4944,1.0,1.0,1.0
50.66,63.5056,1.0,1.0,1.0
50.67,41.4944,1.0,1.0,1.0
50.68,60.0,1.0,1.0,1.0
50.69,36.4944,1.0,1.0,1.0
50.7,54.0111,1.0,1.0,1.0
50.71,70.0,1.0,1.0,1.0
50.72,46.9889,1.0,1.0,1.0
50.73,34.5056,1.0,1.0,1.0
50.74,69.0,1.0,1.0,1.0
50.75,57.0,1.0,1.0,1.0
50.76,62.0,1.0,1.0,1.0
50.77,40.0,1.0,1.0,1.0
50.78,80.5056,1.0,1.0,1.0
50.79,35.4944,1.0,1.0,1.0
50.8,56.4944,1.0,1.0,1.0
50.81,69.4944,1.0,1.0,1.0
50.82,57.5167,1.0,1.0,1.0
50.83,57.9889,1.0,1.0,1.0
50.84,47.0111,1.0,1.0,1.0
50.85,45.0,1.0,1.0,1.0
50.86,43.9889,1.0,1.0,1.0
50.87,41.4944,1.0,1.0,1.0
50.88,44.5167,1.0,1.0,1.0
50.89,42.4944,1.0,1.0,1.0
50.9,53.0,1.0,1.0,1.0
50.91,75.4944,1.0,1.0,1.0
50.92,37.0111,1.0,1.0,1.0
50.93,47.0,1.0,1.0,1.0
50.94,61.0,1.0,1.0,1.0
50.95,59.0,1.0,1.0,1.0
50.96,51.4944,1.0,1.0,1.0
50.97,50.5056,1.0,1.0,1.0
50.98,55.9889,1.0,1.0,1.0
50.99,56.0111,1.0,1.0,1.0
51.0,50.0,1.0,1.0,1.0
51.01,52.4944,1.0,1.0,1.0
51.02,60.0,1.0,1.0,1.0
51.03,63.4944,1.0,1.0,1.0
51.04,61.0111,1.0,1.0,1.0
51.05,57.4833,1.0,1.0,1.0
51.06,44.0111,1.0,1.0,1.0
51.07,59.5056,1.0,1.0,1.0
51.08,71.9889,1.0,1.0,1.0
51.09,35.0111,1.0,1.0,1.0
51.1,40.4833,1.0,1.0,1.0
51.11,51.5056,1.0,1.0,1.0
51.12,60.0,1.0,1.0,1.0
51.13,57.5056,1.0,1.0,1.0
51.14,50.4944,1.0,1.0,1.0
51.15,55.0111,1.0,1.0,1.0
51.16,45.0,1.0,1.0,1.0
51.17,36.4944,1.0,1.0,1.0
51.18,47.5056,1.0,1.0,1.0
51.19,26.0,1.0,1.0,1.0
51.2,32.4944,1.0,1.0,1.0
51.21,58.9889,1.0,1.0,1.0
51.22,37.5167,1.0,1.0,1.0
51.23,65.9889,1.0,1.0,1.0
51.24,60.5056,1.0,1.0,1.0
51.25,55.5056,1.0,1.0,1.0
51.26,58.0,1.0,1.0,1.0
51.27,37.4944,1.0,1.0,1.0
51.28,65.5056,1.0,1.0,1.0
51.29,44.0,1.0,1.0,1.0
51.3,45.9889,1.0,1.0,1.0
51.31,44.0,1.0,1.0,1.0
51.32,63.0111,1.0,1.0,1.0
51.33,40.4944,1.0,1.0,1.0
51.34,38.5056,1.0,1.0,1.0
51.35,42.9778,1.0,1.0,1.0
51.36,51.0222,1.0,1.0,1.0
51.37,43.0,1.0,1.0,1.0
51.38,35.4944,1.0,1.0,1.0
51.39,51.0,1.0,1.0,1.0
51.4,42.5056,1.0,1.0,1.0
51.41,44.4944,1.0,1.0,1.0
51.42,53.9889,1.0,1.0,1.0
51.43,45.5167,1.0,1.0,1.0
51.44,30.4944,1.0,1.0,1.0
51.45,55.4944,1.0,1.0,1.0
51.46,63.0111,1.0,1.0,1.0
51.47,34.0,1.0,1.0,1.0
51.48,59.4944,1.0,1.0,1.0
51.49,34.4944,1.0,1.0,1.0
51.5,65.0,1.0,1.0,1.0
51.51,41.0111,1.0,1.0,1.0
51.52,33.0,1.0,1.0,1.0
51.53,58.0,1.0,1.0,1.0
51.54,53.4944,1.0,1.0,1.0
51.55,52.5056,1.0,1.0,1.0
51.56,45.4944,1.0,1.0,1.0
51.57,43.0,1.0,1.0,1.0
51.58,51.0,1.0,1.0,1.0
51.59,37.9889,1.0,1.0,1.0
51.6,49.0111,1.0,1.0,1.0
51.61,62.5056,1.0,1.0,1.0
51.62,31.0,1.0,1.0,1.0
51.63,55.0,1.0,1.0,1.0
51.64,58.9778,1.0,1.0,1.0
51.65,52.0111,1.0,1.0,1.0
51.66,52.5056,1.0,1.0,1.0
51.67,52.0,1.0,1.0,1.0
51.68,52.4833,1.0,1.0,1.0
51.69,37.0222,1.0,1.0,1.0