File: XRD:XRR/LCO/22158b_LCOS/22158a_LCOS_002_XRD.csv
#twotheta, yobs, ycal, bkg, diff
42.0,32.0222,1.0,1.0,1.0
42.01,26.0,1.0,1.0,1.0
42.02,39.0,1.0,1.0,1.0
42.03,19.0,1.0,1.0,1.0
42.04,20.4944,1.0,1.0,1.0
42.05,26.5056,1.0,1.0,1.0
42.06,30.0,1.0,1.0,1.0
42.07,45.4833,1.0,1.0,1.0
42.08,31.5167,1.0,1.0,1.0
42.09,29.9889,1.0,1.0,1.0
42.1,37.0111,1.0,1.0,1.0
42.11,39.0,1.0,1.0,1.0
42.12,19.0,1.0,1.0,1.0
42.13,21.0,1.0,1.0,1.0
42.14,25.0,1.0,1.0,1.0
42.15,32.4833,1.0,1.0,1.0
42.16,24.5167,1.0,1.0,1.0
42.17,20.0,1.0,1.0,1.0
42.18,26.0,1.0,1.0,1.0
42.19,19.0,1.0,1.0,1.0
42.2,7.0,1.0,1.0,1.0
42.21,26.0,1.0,1.0,1.0
42.22,20.0,1.0,1.0,1.0
42.23,14.4944,1.0,1.0,1.0
42.24,15.5056,1.0,1.0,1.0
42.25,11.0,1.0,1.0,1.0
42.26,13.0,1.0,1.0,1.0
42.27,23.0,1.0,1.0,1.0
42.28,24.4944,1.0,1.0,1.0
42.29,12.5056,1.0,1.0,1.0
42.3,22.0,1.0,1.0,1.0
42.31,15.0,1.0,1.0,1.0
42.32,23.4944,1.0,1.0,1.0
42.33,8.5056,1.0,1.0,1.0
42.34,7.0,1.0,1.0,1.0
42.35,30.0,1.0,1.0,1.0
42.36,16.0,1.0,1.0,1.0
42.37,22.0,1.0,1.0,1.0
42.38,15.0,1.0,1.0,1.0
42.39,8.0,1.0,1.0,1.0
42.4,91.0,1.0,1.0,1.0
42.41,18.4944,1.0,1.0,1.0
42.42,20.5056,1.0,1.0,1.0
42.43,36.4944,1.0,1.0,1.0
42.44,46.0,1.0,1.0,1.0
42.45,27.5056,1.0,1.0,1.0
42.46,18.0,1.0,1.0,1.0
42.47,29.0,1.0,1.0,1.0
42.48,24.0,1.0,1.0,1.0
42.49,34.4944,1.0,1.0,1.0
42.5,22.0,1.0,1.0,1.0
42.51,41.5056,1.0,1.0,1.0
42.52,27.0,1.0,1.0,1.0
42.53,22.9889,1.0,1.0,1.0
42.54,62.5056,1.0,1.0,1.0
42.55,44.4944,1.0,1.0,1.0
42.56,27.0111,1.0,1.0,1.0
42.57,50.9889,1.0,1.0,1.0
42.58,54.0,1.0,1.0,1.0
42.59,46.0111,1.0,1.0,1.0
42.6,48.9889,1.0,1.0,1.0
42.61,42.0111,1.0,1.0,1.0
42.62,29.4944,1.0,1.0,1.0
42.63,38.0,1.0,1.0,1.0
42.64,40.5056,1.0,1.0,1.0
42.65,52.4833,1.0,1.0,1.0
42.66,64.5167,1.0,1.0,1.0
42.67,40.0,1.0,1.0,1.0
42.68,52.4944,1.0,1.0,1.0
42.69,34.4944,1.0,1.0,1.0
42.7,62.0111,1.0,1.0,1.0
42.71,39.4944,1.0,1.0,1.0
42.72,60.5056,1.0,1.0,1.0
42.73,43.4944,1.0,1.0,1.0
42.74,55.5056,1.0,1.0,1.0
42.75,52.4944,1.0,1.0,1.0
42.76,46.0,1.0,1.0,1.0
42.77,54.5056,1.0,1.0,1.0
42.78,52.4944,1.0,1.0,1.0
42.79,47.0,1.0,1.0,1.0
42.8,52.5056,1.0,1.0,1.0
42.81,28.4944,1.0,1.0,1.0
42.82,43.0,1.0,1.0,1.0
42.83,34.0,1.0,1.0,1.0
42.84,38.0,1.0,1.0,1.0
42.85,32.5056,1.0,1.0,1.0
42.86,25.9889,1.0,1.0,1.0
42.87,26.0111,1.0,1.0,1.0
42.88,19.9889,1.0,1.0,1.0
42.89,33.5056,1.0,1.0,1.0
42.9,31.5056,1.0,1.0,1.0
42.91,23.4944,1.0,1.0,1.0
42.92,12.5056,1.0,1.0,1.0
42.93,9.4944,1.0,1.0,1.0
42.94,18.5056,1.0,1.0,1.0
42.95,36.0,1.0,1.0,1.0
42.96,22.9889,1.0,1.0,1.0
42.97,16.0,1.0,1.0,1.0
42.98,31.0111,1.0,1.0,1.0
42.99,19.9889,1.0,1.0,1.0
43.0,9.5056,1.0,1.0,1.0
43.01,21.0,1.0,1.0,1.0
43.02,15.5056,1.0,1.0,1.0
43.03,22.0,1.0,1.0,1.0
43.04,20.0,1.0,1.0,1.0
43.05,12.0,1.0,1.0,1.0
43.06,25.4944,1.0,1.0,1.0
43.07,28.5056,1.0,1.0,1.0
43.08,26.9889,1.0,1.0,1.0
43.09,19.4944,1.0,1.0,1.0
43.1,30.5056,1.0,1.0,1.0
43.11,19.5056,1.0,1.0,1.0
43.12,30.5056,1.0,1.0,1.0
43.13,27.0,1.0,1.0,1.0
43.14,40.9889,1.0,1.0,1.0
43.15,39.0111,1.0,1.0,1.0
43.16,49.4944,1.0,1.0,1.0
43.17,56.0,1.0,1.0,1.0
43.18,35.0,1.0,1.0,1.0
43.19,45.5056,1.0,1.0,1.0
43.2,40.0,1.0,1.0,1.0
43.21,48.4944,1.0,1.0,1.0
43.22,65.5056,1.0,1.0,1.0
43.23,70.0,1.0,1.0,1.0
43.24,72.4944,1.0,1.0,1.0
43.25,70.4944,1.0,1.0,1.0
43.26,69.0,1.0,1.0,1.0
43.27,74.0111,1.0,1.0,1.0
43.28,53.9889,1.0,1.0,1.0
43.29,57.5056,1.0,1.0,1.0
43.3,56.4944,1.0,1.0,1.0
43.31,78.9889,1.0,1.0,1.0
43.32,68.0222,1.0,1.0,1.0
43.33,74.0,1.0,1.0,1.0
43.34,62.4944,1.0,1.0,1.0
43.35,86.0,1.0,1.0,1.0
43.36,72.4944,1.0,1.0,1.0
43.37,93.0,1.0,1.0,1.0
43.38,75.0,1.0,1.0,1.0
43.39,82.4944,1.0,1.0,1.0
43.4,65.5167,1.0,1.0,1.0
43.41,67.9778,1.0,1.0,1.0
43.42,81.0222,1.0,1.0,1.0
43.43,58.9889,1.0,1.0,1.0
43.44,78.4833,1.0,1.0,1.0
43.45,115.5167,1.0,1.0,1.0
43.46,67.0111,1.0,1.0,1.0
43.47,67.4944,1.0,1.0,1.0
43.48,52.0,1.0,1.0,1.0
43.49,64.5056,1.0,1.0,1.0
43.5,63.9778,1.0,1.0,1.0
43.51,40.0222,1.0,1.0,1.0
43.52,60.9889,1.0,1.0,1.0
43.53,50.0,1.0,1.0,1.0
43.54,45.0,1.0,1.0,1.0
43.55,37.0111,1.0,1.0,1.0
43.56,40.4833,1.0,1.0,1.0
43.57,32.5167,1.0,1.0,1.0
43.58,33.9889,1.0,1.0,1.0
43.59,42.0,1.0,1.0,1.0
43.6,33.0111,1.0,1.0,1.0
43.61,41.0,1.0,1.0,1.0
43.62,23.9889,1.0,1.0,1.0
43.63,31.0111,1.0,1.0,1.0
43.64,24.0,1.0,1.0,1.0
43.65,27.0,1.0,1.0,1.0
43.66,38.0,1.0,1.0,1.0
43.67,17.9889,1.0,1.0,1.0
43.68,30.5056,1.0,1.0,1.0
43.69,30.4944,1.0,1.0,1.0
43.7,32.0111,1.0,1.0,1.0
43.71,15.0,1.0,1.0,1.0
43.72,37.4944,1.0,1.0,1.0
43.73,28.0,1.0,1.0,1.0
43.74,22.0,1.0,1.0,1.0
43.75,40.5056,1.0,1.0,1.0
43.76,31.0,1.0,1.0,1.0
43.77,37.0,1.0,1.0,1.0
43.78,33.4944,1.0,1.0,1.0
43.79,25.4944,1.0,1.0,1.0
43.8,47.5056,1.0,1.0,1.0
43.81,52.4944,1.0,1.0,1.0
43.82,29.0111,1.0,1.0,1.0
43.83,39.4944,1.0,1.0,1.0
43.84,62.4944,1.0,1.0,1.0
43.85,52.0111,1.0,1.0,1.0
43.86,61.4944,1.0,1.0,1.0
43.87,58.0,1.0,1.0,1.0
43.88,72.4833,1.0,1.0,1.0
43.89,60.5056,1.0,1.0,1.0
43.9,65.5056,1.0,1.0,1.0
43.91,66.5056,1.0,1.0,1.0
43.92,78.0,1.0,1.0,1.0
43.93,103.4944,1.0,1.0,1.0
43.94,73.0,1.0,1.0,1.0
43.95,90.5056,1.0,1.0,1.0
43.96,106.0,1.0,1.0,1.0
43.97,83.4944,1.0,1.0,1.0
43.98,92.0,1.0,1.0,1.0
43.99,118.4944,1.0,1.0,1.0
44.0,104.0111,1.0,1.0,1.0
44.01,67.9889,1.0,1.0,1.0
44.02,115.4944,1.0,1.0,1.0
44.03,119.0111,1.0,1.0,1.0
44.04,115.4833,1.0,1.0,1.0
44.05,109.5278,1.0,1.0,1.0
44.06,129.4833,1.0,1.0,1.0
44.07,102.0111,1.0,1.0,1.0
44.08,104.4944,1.0,1.0,1.0
44.09,118.4944,1.0,1.0,1.0
44.1,114.9889,1.0,1.0,1.0
44.11,145.0,1.0,1.0,1.0
44.12,125.4944,1.0,1.0,1.0
44.13,122.0222,1.0,1.0,1.0
44.14,109.0,1.0,1.0,1.0
44.15,114.0,1.0,1.0,1.0
44.16,102.9889,1.0,1.0,1.0
44.17,127.5056,1.0,1.0,1.0
44.18,118.4944,1.0,1.0,1.0
44.19,103.5056,1.0,1.0,1.0
44.2,92.0111,1.0,1.0,1.0
44.21,90.5056,1.0,1.0,1.0
44.22,108.4833,1.0,1.0,1.0
44.23,86.0111,1.0,1.0,1.0
44.24,86.4944,1.0,1.0,1.0
44.25,74.5056,1.0,1.0,1.0
44.26,85.9889,1.0,1.0,1.0
44.27,88.0111,1.0,1.0,1.0
44.28,62.4944,1.0,1.0,1.0
44.29,64.0,1.0,1.0,1.0
44.3,58.0,1.0,1.0,1.0
44.31,57.0111,1.0,1.0,1.0
44.32,59.4944,1.0,1.0,1.0
44.33,54.5056,1.0,1.0,1.0
44.34,38.0,1.0,1.0,1.0
44.35,68.4944,1.0,1.0,1.0
44.36,29.5056,1.0,1.0,1.0
44.37,48.4944,1.0,1.0,1.0
44.38,43.4944,1.0,1.0,1.0
44.39,46.5056,1.0,1.0,1.0
44.4,36.5056,1.0,1.0,1.0
44.41,39.9889,1.0,1.0,1.0
44.42,39.0,1.0,1.0,1.0
44.43,41.0111,1.0,1.0,1.0
44.44,41.4944,1.0,1.0,1.0
44.45,40.4944,1.0,1.0,1.0
44.46,34.0111,1.0,1.0,1.0
44.47,25.9889,1.0,1.0,1.0
44.48,31.5056,1.0,1.0,1.0
44.49,49.0,1.0,1.0,1.0
44.5,52.0,1.0,1.0,1.0
44.51,34.5056,1.0,1.0,1.0
44.52,52.4944,1.0,1.0,1.0
44.53,66.0,1.0,1.0,1.0
44.54,54.4833,1.0,1.0,1.0
44.55,61.5167,1.0,1.0,1.0
44.56,80.4944,1.0,1.0,1.0
44.57,78.4944,1.0,1.0,1.0
44.58,74.5167,1.0,1.0,1.0
44.59,83.4833,1.0,1.0,1.0
44.6,92.0,1.0,1.0,1.0
44.61,99.0,1.0,1.0,1.0
44.62,99.5056,1.0,1.0,1.0
44.63,114.9889,1.0,1.0,1.0
44.64,138.5056,1.0,1.0,1.0
44.65,113.4944,1.0,1.0,1.0
44.66,118.9889,1.0,1.0,1.0
44.67,158.5056,1.0,1.0,1.0
44.68,140.0,1.0,1.0,1.0
44.69,180.5167,1.0,1.0,1.0
44.7,152.9889,1.0,1.0,1.0
44.71,132.5167,1.0,1.0,1.0
44.72,177.4833,1.0,1.0,1.0
44.73,177.4944,1.0,1.0,1.0
44.74,176.5167,1.0,1.0,1.0
44.75,150.4944,1.0,1.0,1.0
44.76,184.4944,1.0,1.0,1.0
44.77,180.0,1.0,1.0,1.0
44.78,181.5056,1.0,1.0,1.0
44.79,176.0,1.0,1.0,1.0
44.8,171.4944,1.0,1.0,1.0
44.81,176.0222,1.0,1.0,1.0
44.82,193.9778,1.0,1.0,1.0
44.83,157.9889,1.0,1.0,1.0
44.84,177.0111,1.0,1.0,1.0
44.85,175.0,1.0,1.0,1.0
44.86,187.0,1.0,1.0,1.0
44.87,168.5056,1.0,1.0,1.0
44.88,162.9889,1.0,1.0,1.0
44.89,144.0222,1.0,1.0,1.0
44.9,171.4833,1.0,1.0,1.0
44.91,147.5056,1.0,1.0,1.0
44.92,150.5056,1.0,1.0,1.0
44.93,131.5056,1.0,1.0,1.0
44.94,115.4833,1.0,1.0,1.0
44.95,161.0111,1.0,1.0,1.0
44.96,134.9778,1.0,1.0,1.0
44.97,156.0222,1.0,1.0,1.0
44.98,125.0,1.0,1.0,1.0
44.99,103.4944,1.0,1.0,1.0
45.0,110.5056,1.0,1.0,1.0
45.01,98.0,1.0,1.0,1.0
45.02,117.9889,1.0,1.0,1.0
45.03,79.0111,1.0,1.0,1.0
45.04,104.9889,1.0,1.0,1.0
45.05,98.0111,1.0,1.0,1.0
45.06,92.0,1.0,1.0,1.0
45.07,87.4944,1.0,1.0,1.0
45.08,76.4833,1.0,1.0,1.0
45.09,72.0333,1.0,1.0,1.0
45.1,70.9889,1.0,1.0,1.0
45.11,87.0111,1.0,1.0,1.0
45.12,90.9889,1.0,1.0,1.0
45.13,94.4833,1.0,1.0,1.0
45.14,78.5167,1.0,1.0,1.0
45.15,78.5056,1.0,1.0,1.0
45.16,93.9889,1.0,1.0,1.0
45.17,110.5056,1.0,1.0,1.0
45.18,121.0111,1.0,1.0,1.0
45.19,86.9778,1.0,1.0,1.0
45.2,123.4944,1.0,1.0,1.0
45.21,197.0111,1.0,1.0,1.0
45.22,150.0,1.0,1.0,1.0
45.23,170.0,1.0,1.0,1.0
45.24,185.4944,1.0,1.0,1.0
45.25,228.4944,1.0,1.0,1.0
45.26,210.0111,1.0,1.0,1.0
45.27,248.4611,1.0,1.0,1.0
45.28,269.5167,1.0,1.0,1.0
45.29,273.5056,1.0,1.0,1.0
45.3,325.4833,1.0,1.0,1.0
45.31,348.5056,1.0,1.0,1.0
45.32,385.5056,1.0,1.0,1.0
45.33,391.9778,1.0,1.0,1.0
45.34,426.5278,1.0,1.0,1.0
45.35,399.4722,1.0,1.0,1.0
45.36,418.5167,1.0,1.0,1.0
45.37,469.9889,1.0,1.0,1.0
45.38,525.9889,1.0,1.0,1.0
45.39,562.0,1.0,1.0,1.0
45.4,565.5167,1.0,1.0,1.0
45.41,560.4833,1.0,1.0,1.0
45.42,622.9556,1.0,1.0,1.0
45.43,631.0555,1.0,1.0,1.0
45.44,675.9889,1.0,1.0,1.0
45.45,674.9778,1.0,1.0,1.0
45.46,695.5167,1.0,1.0,1.0
45.47,694.4944,1.0,1.0,1.0
45.48,751.4944,1.0,1.0,1.0
45.49,749.4944,1.0,1.0,1.0
45.5,779.0111,1.0,1.0,1.0
45.51,749.9889,1.0,1.0,1.0
45.52,748.4944,1.0,1.0,1.0
45.53,819.5278,1.0,1.0,1.0
45.54,728.9889,1.0,1.0,1.0
45.55,789.4944,1.0,1.0,1.0
45.56,758.4833,1.0,1.0,1.0
45.57,796.5389,1.0,1.0,1.0
45.58,786.9556,1.0,1.0,1.0
45.59,808.5389,1.0,1.0,1.0
45.6,752.0,1.0,1.0,1.0
45.61,807.9889,1.0,1.0,1.0
45.62,772.5278,1.0,1.0,1.0
45.63,829.4833,1.0,1.0,1.0
45.64,707.9222,1.0,1.0,1.0
45.65,743.0555,1.0,1.0,1.0
45.66,732.0333,1.0,1.0,1.0
45.67,699.9778,1.0,1.0,1.0
45.68,723.0222,1.0,1.0,1.0
45.69,686.0,1.0,1.0,1.0
45.7,680.9778,1.0,1.0,1.0
45.71,669.4833,1.0,1.0,1.0
45.72,635.0222,1.0,1.0,1.0
45.73,594.5278,1.0,1.0,1.0
45.74,588.9778,1.0,1.0,1.0
45.75,639.5167,1.0,1.0,1.0
45.76,578.4833,1.0,1.0,1.0
45.77,606.9889,1.0,1.0,1.0
45.78,564.0333,1.0,1.0,1.0
45.79,608.9889,1.0,1.0,1.0
45.8,636.9445,1.0,1.0,1.0
45.81,633.5278,1.0,1.0,1.0
45.82,599.0444,1.0,1.0,1.0
45.83,692.45,1.0,1.0,1.0
45.84,655.55,1.0,1.0,1.0
45.85,739.4722,1.0,1.0,1.0
45.86,714.5056,1.0,1.0,1.0
45.87,741.9445,1.0,1.0,1.0
45.88,864.0333,1.0,1.0,1.0
45.89,891.0111,1.0,1.0,1.0
45.9,983.5056,1.0,1.0,1.0
45.91,1117.99,1.0,1.0,1.0
45.92,1169.97,1.0,1.0,1.0
45.93,1271.44,1.0,1.0,1.0
45.94,1427.0,1.0,1.0,1.0
45.95,1541.0,1.0,1.0,1.0
45.96,1583.54,1.0,1.0,1.0
45.97,1783.92,1.0,1.0,1.0
45.98,1894.99,1.0,1.0,1.0
45.99,2117.08,1.0,1.0,1.0
46.0,2283.88,1.0,1.0,1.0
46.01,2477.47,1.0,1.0,1.0
46.02,2614.0,1.0,1.0,1.0
46.03,3077.439,1.0,1.0,1.0
46.04,3224.96,1.0,1.0,1.0
46.05,3491.97,1.0,1.0,1.0
46.06,3724.03,1.0,1.0,1.0
46.07,3894.41,1.0,1.0,1.0
46.08,4378.49,1.0,1.0,1.0
46.09,4619.87,1.0,1.0,1.0
46.1,4925.16,1.0,1.0,1.0
46.11,5320.86,1.0,1.0,1.0
46.12,5796.47,1.0,1.0,1.0
46.13,6123.02,1.0,1.0,1.0
46.14,6403.34,1.0,1.0,1.0
46.15,6696.01,1.0,1.0,1.0
46.16,7182.54,1.0,1.0,1.0
46.17,7763.71,1.0,1.0,1.0
46.18,8335.14,1.0,1.0,1.0
46.19,8543.02,1.0,1.0,1.0
46.2,9225.68,1.0,1.0,1.0
46.21,9570.45,1.0,1.0,1.0
46.22,9954.1,1.0,1.0,1.0
46.23,10487.9,1.0,1.0,1.0
46.24,11239.9,1.0,1.0,1.0
46.25,11694.3,1.0,1.0,1.0
46.26,12237.5,1.0,1.0,1.0
46.27,12921.417,1.0,1.0,1.0
46.28,13309.3,1.0,1.0,1.0
46.29,14119.9,1.0,1.0,1.0
46.3,14727,1.0,1.0,1.0
46.31,14912.9,1.0,1.0,1.0
46.32,15501.2,1.0,1.0,1.0
46.33,16370.2,1.0,1.0,1.0
46.34,16783.5,1.0,1.0,1.0
46.35,17323.4,1.0,1.0,1.0
46.36,17970.3,1.0,1.0,1.0
46.37,18431.3,1.0,1.0,1.0
46.38,19356.6,1.0,1.0,1.0
46.39,19950.166,1.0,1.0,1.0
46.4,20379.3,1.0,1.0,1.0
46.41,21261.4,1.0,1.0,1.0
46.42,21441.5,1.0,1.0,1.0
46.43,22112.4,1.0,1.0,1.0
46.44,22773.3,1.0,1.0,1.0
46.45,23247,1.0,1.0,1.0
46.46,24037.5,1.0,1.0,1.0
46.47,24734.6,1.0,1.0,1.0
46.48,24923.2,1.0,1.0,1.0
46.49,25475.3,1.0,1.0,1.0
46.5,25826.7,1.0,1.0,1.0
46.51,26634.2,1.0,1.0,1.0
46.52,27218.584,1.0,1.0,1.0
46.53,27625.4,1.0,1.0,1.0
46.54,28295,1.0,1.0,1.0
46.55,28595.6,1.0,1.0,1.0
46.56,29242.2,1.0,1.0,1.0
46.57,30101.2,1.0,1.0,1.0
46.58,30611.3,1.0,1.0,1.0
46.59,31055.2,1.0,1.0,1.0
46.6,31658,1.0,1.0,1.0
46.61,31870.7,1.0,1.0,1.0
46.62,33104.9,1.0,1.0,1.0
46.63,33611.8,1.0,1.0,1.0
46.64,33989.1,1.0,1.0,1.0
46.65,35051.3,1.0,1.0,1.0
46.66,35613.6,1.0,1.0,1.0
46.67,36615.6,1.0,1.0,1.0
46.68,38221.168,1.0,1.0,1.0
46.69,38661.918,1.0,1.0,1.0
46.7,39965.7,1.0,1.0,1.0
46.71,41625,1.0,1.0,1.0
46.72,43694.8,1.0,1.0,1.0
46.73,45589.1,1.0,1.0,1.0
46.74,48307.4,1.0,1.0,1.0
46.75,51405.543,1.0,1.0,1.0
46.76,54943.7,1.0,1.0,1.0
46.77,60495.7,1.0,1.0,1.0
46.78,66426.5,1.0,1.0,1.0
46.79,75383.1,1.0,1.0,1.0
46.8,87618.5,1.0,1.0,1.0
46.81,108259,1.0,1.0,1.0
46.82,140023,1.0,1.0,1.0
46.83,193836,1.0,1.0,1.0
46.84,292229,1.0,1.0,1.0
46.85,498294,1.0,1.0,1.0
46.86,1.02061e+06,1.0,1.0,1.0
46.87,3966714.5,1.0,1.0,1.0
46.88,26029580.0,1.0,1.0,1.0
46.89,33735712.0,1.0,1.0,1.0
46.9,21736190.0,1.0,1.0,1.0
46.91,13989685.0,1.0,1.0,1.0
46.92,12622661.0,1.0,1.0,1.0
46.93,8317408.0,1.0,1.0,1.0
46.94,2821175.5,1.0,1.0,1.0
46.95,833598.375,1.0,1.0,1.0
46.96,384456,1.0,1.0,1.0
46.97,220516,1.0,1.0,1.0
46.98,140679,1.0,1.0,1.0
46.99,95033.7,1.0,1.0,1.0
47.0,66776.9,1.0,1.0,1.0
47.01,48129.5,1.0,1.0,1.0
47.02,35528.25,1.0,1.0,1.0
47.03,27020.2,1.0,1.0,1.0
47.04,21442.2,1.0,1.0,1.0
47.05,17239,1.0,1.0,1.0
47.06,13755,1.0,1.0,1.0
47.07,11401.7,1.0,1.0,1.0
47.08,9392.18,1.0,1.0,1.0
47.09,8060.61,1.0,1.0,1.0
47.1,6895.08,1.0,1.0,1.0
47.11,6122.57,1.0,1.0,1.0
47.12,5408.72,1.0,1.0,1.0
47.13,4890.93,1.0,1.0,1.0
47.14,4334.53,1.0,1.0,1.0
47.15,4075.67,1.0,1.0,1.0
47.16,3638.96,1.0,1.0,1.0
47.17,3297.1,1.0,1.0,1.0
47.18,2945.08,1.0,1.0,1.0
47.19,2680.92,1.0,1.0,1.0
47.2,2342.62,1.0,1.0,1.0
47.21,2156.97,1.0,1.0,1.0
47.22,1930.01,1.0,1.0,1.0
47.23,1753.04,1.0,1.0,1.0
47.24,1555.52,1.0,1.0,1.0
47.25,1440.54,1.0,1.0,1.0
47.26,1249.92,1.0,1.0,1.0
47.27,1085.06,1.0,1.0,1.0
47.28,986.0444,1.0,1.0,1.0
47.29,859.9889,1.0,1.0,1.0
47.3,773.4722,1.0,1.0,1.0
47.31,673.0222,1.0,1.0,1.0
47.32,599.5722,1.0,1.0,1.0
47.33,507.9333,1.0,1.0,1.0
47.34,435.0555,1.0,1.0,1.0
47.35,433.9889,1.0,1.0,1.0
47.36,376.0222,1.0,1.0,1.0
47.37,357.0,1.0,1.0,1.0
47.38,295.4944,1.0,1.0,1.0
47.39,248.5056,1.0,1.0,1.0
47.4,240.0222,1.0,1.0,1.0
47.41,223.4944,1.0,1.0,1.0
47.42,236.4833,1.0,1.0,1.0
47.43,201.0,1.0,1.0,1.0
47.44,231.5167,1.0,1.0,1.0
47.45,195.0,1.0,1.0,1.0
47.46,196.9889,1.0,1.0,1.0
47.47,218.4944,1.0,1.0,1.0
47.48,206.0,1.0,1.0,1.0
47.49,241.5167,1.0,1.0,1.0
47.5,231.5056,1.0,1.0,1.0
47.51,208.4611,1.0,1.0,1.0
47.52,245.5278,1.0,1.0,1.0
47.53,257.4944,1.0,1.0,1.0
47.54,286.9889,1.0,1.0,1.0
47.55,319.9889,1.0,1.0,1.0
47.56,326.5167,1.0,1.0,1.0
47.57,334.4833,1.0,1.0,1.0
47.58,333.4944,1.0,1.0,1.0
47.59,369.0222,1.0,1.0,1.0
47.6,384.0,1.0,1.0,1.0
47.61,390.9556,1.0,1.0,1.0
47.62,421.0333,1.0,1.0,1.0
47.63,430.5056,1.0,1.0,1.0
47.64,424.4833,1.0,1.0,1.0
47.65,432.0111,1.0,1.0,1.0
47.66,432.9778,1.0,1.0,1.0
47.67,458.5389,1.0,1.0,1.0
47.68,458.4722,1.0,1.0,1.0
47.69,473.5167,1.0,1.0,1.0
47.7,470.4611,1.0,1.0,1.0
47.71,501.0222,1.0,1.0,1.0
47.72,477.9778,1.0,1.0,1.0
47.73,461.5278,1.0,1.0,1.0
47.74,427.0111,1.0,1.0,1.0
47.75,432.4722,1.0,1.0,1.0
47.76,438.4833,1.0,1.0,1.0
47.77,450.0333,1.0,1.0,1.0
47.78,465.4944,1.0,1.0,1.0
47.79,454.0222,1.0,1.0,1.0
47.8,444.0,1.0,1.0,1.0
47.81,373.4722,1.0,1.0,1.0
47.82,413.5389,1.0,1.0,1.0
47.83,385.4833,1.0,1.0,1.0
47.84,371.9889,1.0,1.0,1.0
47.85,328.0,1.0,1.0,1.0
47.86,343.0222,1.0,1.0,1.0
47.87,328.9889,1.0,1.0,1.0
47.88,305.5056,1.0,1.0,1.0
47.89,300.4722,1.0,1.0,1.0
47.9,250.0222,1.0,1.0,1.0
47.91,234.0,1.0,1.0,1.0
47.92,244.0111,1.0,1.0,1.0
47.93,250.0111,1.0,1.0,1.0
47.94,215.4722,1.0,1.0,1.0
47.95,206.0222,1.0,1.0,1.0
47.96,174.9889,1.0,1.0,1.0
47.97,173.5056,1.0,1.0,1.0
47.98,164.5167,1.0,1.0,1.0
47.99,140.5056,1.0,1.0,1.0
48.0,139.9778,1.0,1.0,1.0
48.01,117.5167,1.0,1.0,1.0
48.02,120.4833,1.0,1.0,1.0
48.03,109.5167,1.0,1.0,1.0
48.04,79.0,1.0,1.0,1.0
48.05,96.4833,1.0,1.0,1.0
48.06,75.0111,1.0,1.0,1.0
48.07,53.0111,1.0,1.0,1.0
48.08,49.0,1.0,1.0,1.0
48.09,63.4944,1.0,1.0,1.0
48.1,57.0,1.0,1.0,1.0
48.11,55.4944,1.0,1.0,1.0
48.12,63.5056,1.0,1.0,1.0
48.13,55.0,1.0,1.0,1.0
48.14,20.5056,1.0,1.0,1.0
48.15,39.9889,1.0,1.0,1.0
48.16,46.4944,1.0,1.0,1.0
48.17,44.5167,1.0,1.0,1.0
48.18,38.0,1.0,1.0,1.0
48.19,48.4944,1.0,1.0,1.0
48.2,44.5056,1.0,1.0,1.0
48.21,39.4944,1.0,1.0,1.0
48.22,38.4944,1.0,1.0,1.0
48.23,62.0111,1.0,1.0,1.0
48.24,65.9889,1.0,1.0,1.0
48.25,61.4944,1.0,1.0,1.0
48.26,70.5056,1.0,1.0,1.0
48.27,75.5056,1.0,1.0,1.0
48.28,79.4944,1.0,1.0,1.0
48.29,81.0111,1.0,1.0,1.0
48.3,72.4944,1.0,1.0,1.0
48.31,96.0,1.0,1.0,1.0
48.32,99.9889,1.0,1.0,1.0
48.33,96.5167,1.0,1.0,1.0
48.34,110.4722,1.0,1.0,1.0
48.35,129.0111,1.0,1.0,1.0
48.36,112.0,1.0,1.0,1.0
48.37,112.0111,1.0,1.0,1.0
48.38,120.5056,1.0,1.0,1.0
48.39,121.4833,1.0,1.0,1.0
48.4,119.0,1.0,1.0,1.0
48.41,155.9889,1.0,1.0,1.0
48.42,133.5167,1.0,1.0,1.0
48.43,135.4944,1.0,1.0,1.0
48.44,139.0111,1.0,1.0,1.0
48.45,130.9778,1.0,1.0,1.0
48.46,136.9889,1.0,1.0,1.0
48.47,150.5167,1.0,1.0,1.0
48.48,123.0,1.0,1.0,1.0
48.49,134.0111,1.0,1.0,1.0
48.5,140.9889,1.0,1.0,1.0
48.51,134.5056,1.0,1.0,1.0
48.52,132.5167,1.0,1.0,1.0
48.53,109.4833,1.0,1.0,1.0
48.54,128.0,1.0,1.0,1.0
48.55,106.0,1.0,1.0,1.0
48.56,114.5056,1.0,1.0,1.0
48.57,113.0,1.0,1.0,1.0
48.58,123.4833,1.0,1.0,1.0
48.59,109.5056,1.0,1.0,1.0
48.6,132.5056,1.0,1.0,1.0
48.61,94.0111,1.0,1.0,1.0
48.62,80.4833,1.0,1.0,1.0
48.63,88.0222,1.0,1.0,1.0
48.64,102.9889,1.0,1.0,1.0
48.65,74.5056,1.0,1.0,1.0
48.66,77.5056,1.0,1.0,1.0
48.67,74.0,1.0,1.0,1.0
48.68,85.4944,1.0,1.0,1.0
48.69,80.5056,1.0,1.0,1.0
48.7,66.4944,1.0,1.0,1.0
48.71,79.0,1.0,1.0,1.0
48.72,68.0,1.0,1.0,1.0
48.73,38.5056,1.0,1.0,1.0
48.74,53.4944,1.0,1.0,1.0
48.75,42.4944,1.0,1.0,1.0
48.76,28.0111,1.0,1.0,1.0
48.77,23.0,1.0,1.0,1.0
48.78,42.9889,1.0,1.0,1.0
48.79,36.5056,1.0,1.0,1.0
48.8,23.5056,1.0,1.0,1.0
48.81,30.0,1.0,1.0,1.0
48.82,29.0,1.0,1.0,1.0
48.83,34.0,1.0,1.0,1.0
48.84,19.0,1.0,1.0,1.0
48.85,34.4944,1.0,1.0,1.0
48.86,24.5056,1.0,1.0,1.0
48.87,36.0,1.0,1.0,1.0
48.88,24.0,1.0,1.0,1.0
48.89,19.4944,1.0,1.0,1.0
48.9,10.9889,1.0,1.0,1.0
48.91,27.5167,1.0,1.0,1.0
48.92,27.4944,1.0,1.0,1.0
48.93,21.0,1.0,1.0,1.0
48.94,29.5056,1.0,1.0,1.0
48.95,18.0,1.0,1.0,1.0
48.96,23.0,1.0,1.0,1.0
48.97,27.4944,1.0,1.0,1.0
48.98,32.0,1.0,1.0,1.0
48.99,27.5056,1.0,1.0,1.0
49.0,33.4944,1.0,1.0,1.0
49.01,52.0,1.0,1.0,1.0
49.02,47.0,1.0,1.0,1.0
49.03,18.5056,1.0,1.0,1.0
49.04,40.0,1.0,1.0,1.0
49.05,48.0,1.0,1.0,1.0
49.06,35.4944,1.0,1.0,1.0
49.07,33.5056,1.0,1.0,1.0
49.08,49.4944,1.0,1.0,1.0
49.09,32.0,1.0,1.0,1.0
49.1,34.5056,1.0,1.0,1.0
49.11,41.4944,1.0,1.0,1.0
49.12,42.4944,1.0,1.0,1.0
49.13,53.0111,1.0,1.0,1.0
49.14,63.0,1.0,1.0,1.0
49.15,53.0,1.0,1.0,1.0
49.16,49.0,1.0,1.0,1.0
49.17,41.9889,1.0,1.0,1.0
49.18,57.4944,1.0,1.0,1.0
49.19,61.0111,1.0,1.0,1.0
49.2,43.4944,1.0,1.0,1.0
49.21,61.5056,1.0,1.0,1.0
49.22,74.5056,1.0,1.0,1.0
49.23,57.0,1.0,1.0,1.0
49.24,57.0,1.0,1.0,1.0
49.25,45.4944,1.0,1.0,1.0
49.26,58.0,1.0,1.0,1.0
49.27,59.5056,1.0,1.0,1.0
49.28,41.9889,1.0,1.0,1.0
49.29,51.0111,1.0,1.0,1.0
49.3,43.9889,1.0,1.0,1.0
49.31,58.4944,1.0,1.0,1.0
49.32,51.0111,1.0,1.0,1.0
49.33,52.0,1.0,1.0,1.0
49.34,62.5056,1.0,1.0,1.0
49.35,35.9889,1.0,1.0,1.0
49.36,36.0111,1.0,1.0,1.0
49.37,21.0,1.0,1.0,1.0
49.38,29.9889,1.0,1.0,1.0
49.39,38.0111,1.0,1.0,1.0
49.4,31.0,1.0,1.0,1.0
49.41,36.0,1.0,1.0,1.0
49.42,41.4944,1.0,1.0,1.0
49.43,23.5056,1.0,1.0,1.0
49.44,46.4944,1.0,1.0,1.0
49.45,25.4944,1.0,1.0,1.0
49.46,30.0111,1.0,1.0,1.0
49.47,26.0,1.0,1.0,1.0
49.48,35.4944,1.0,1.0,1.0
49.49,17.5056,1.0,1.0,1.0
49.5,18.0,1.0,1.0,1.0
49.51,11.0,1.0,1.0,1.0
49.52,21.0,1.0,1.0,1.0
49.53,22.0,1.0,1.0,1.0
49.54,25.0,1.0,1.0,1.0
49.55,22.0,1.0,1.0,1.0
49.56,16.0,1.0,1.0,1.0
49.57,15.0,1.0,1.0,1.0
49.58,23.0,1.0,1.0,1.0
49.59,10.0,1.0,1.0,1.0
49.6,12.4944,1.0,1.0,1.0
49.61,10.5056,1.0,1.0,1.0
49.62,13.0,1.0,1.0,1.0
49.63,24.0,1.0,1.0,1.0
49.64,7.0,1.0,1.0,1.0
49.65,8.0,1.0,1.0,1.0
49.66,8.0,1.0,1.0,1.0
49.67,11.0,1.0,1.0,1.0
49.68,2.0,1.0,1.0,1.0
49.69,17.0,1.0,1.0,1.0
49.7,15.0,1.0,1.0,1.0
49.71,15.0,1.0,1.0,1.0
49.72,17.0,1.0,1.0,1.0
49.73,11.0,1.0,1.0,1.0
49.74,6.0,1.0,1.0,1.0
49.75,16.4944,1.0,1.0,1.0
49.76,13.5056,1.0,1.0,1.0
49.77,20.0,1.0,1.0,1.0
49.78,10.0,1.0,1.0,1.0
49.79,18.0,1.0,1.0,1.0
49.8,15.9889,1.0,1.0,1.0
49.81,24.5056,1.0,1.0,1.0
49.82,15.5056,1.0,1.0,1.0
49.83,28.0,1.0,1.0,1.0
49.84,23.0,1.0,1.0,1.0
49.85,32.0,1.0,1.0,1.0
49.86,18.0,1.0,1.0,1.0
49.87,16.0,1.0,1.0,1.0
49.88,32.0,1.0,1.0,1.0
49.89,14.4944,1.0,1.0,1.0
49.9,28.5056,1.0,1.0,1.0
49.91,32.0,1.0,1.0,1.0
49.92,36.4944,1.0,1.0,1.0
49.93,31.0,1.0,1.0,1.0
49.94,21.5056,1.0,1.0,1.0
49.95,38.4944,1.0,1.0,1.0
49.96,41.5056,1.0,1.0,1.0
49.97,37.0,1.0,1.0,1.0
49.98,35.0,1.0,1.0,1.0
49.99,27.0,1.0,1.0,1.0
50.0,24.0,1.0,1.0,1.0
50.01,13.0,1.0,1.0,1.0
50.02,34.4944,1.0,1.0,1.0
50.03,18.5056,1.0,1.0,1.0
50.04,36.0,1.0,1.0,1.0
50.05,43.9889,1.0,1.0,1.0
50.06,27.0111,1.0,1.0,1.0
50.07,30.0,1.0,1.0,1.0
50.08,23.0,1.0,1.0,1.0
50.09,27.0,1.0,1.0,1.0
50.1,27.0,1.0,1.0,1.0
50.11,21.0,1.0,1.0,1.0
50.12,27.0,1.0,1.0,1.0
50.13,31.0,1.0,1.0,1.0
50.14,20.9889,1.0,1.0,1.0
50.15,27.0111,1.0,1.0,1.0
50.16,23.0,1.0,1.0,1.0
50.17,26.9889,1.0,1.0,1.0
50.18,12.0111,1.0,1.0,1.0
50.19,20.4944,1.0,1.0,1.0
50.2,24.5056,1.0,1.0,1.0
50.21,22.0,1.0,1.0,1.0
50.22,11.0,1.0,1.0,1.0
50.23,18.0,1.0,1.0,1.0
50.24,23.0,1.0,1.0,1.0
50.25,12.0,1.0,1.0,1.0
50.26,15.0,1.0,1.0,1.0
50.27,5.0,1.0,1.0,1.0
50.28,14.0,1.0,1.0,1.0
50.29,7.0,1.0,1.0,1.0
50.3,9.0,1.0,1.0,1.0
50.31,10.0,1.0,1.0,1.0
50.32,14.4944,1.0,1.0,1.0
50.33,11.5056,1.0,1.0,1.0
50.34,12.0,1.0,1.0,1.0
50.35,12.4944,1.0,1.0,1.0
50.36,5.5056,1.0,1.0,1.0
50.37,6.0,1.0,1.0,1.0
50.38,8.4944,1.0,1.0,1.0
50.39,1.5056,1.0,1.0,1.0
50.4,0.0,1.0,1.0,1.0
50.41,9.4944,1.0,1.0,1.0
50.42,17.5056,1.0,1.0,1.0
50.43,3.0,1.0,1.0,1.0
50.44,7.0,1.0,1.0,1.0
50.45,13.0,1.0,1.0,1.0
50.46,13.0,1.0,1.0,1.0
50.47,14.0,1.0,1.0,1.0
50.48,11.0,1.0,1.0,1.0
50.49,12.0,1.0,1.0,1.0
50.5,6.0,1.0,1.0,1.0
50.51,12.0,1.0,1.0,1.0
50.52,4.0,1.0,1.0,1.0
50.53,7.4944,1.0,1.0,1.0
50.54,10.0,1.0,1.0,1.0
50.55,17.5056,1.0,1.0,1.0
50.56,10.9889,1.0,1.0,1.0
50.57,15.0111,1.0,1.0,1.0
50.58,25.0,1.0,1.0,1.0
50.59,15.0,1.0,1.0,1.0
50.6,24.0,1.0,1.0,1.0
50.61,26.0,1.0,1.0,1.0
50.62,16.0,1.0,1.0,1.0
50.63,8.0,1.0,1.0,1.0
50.64,16.0,1.0,1.0,1.0
50.65,18.0,1.0,1.0,1.0
50.66,17.4944,1.0,1.0,1.0
50.67,15.5056,1.0,1.0,1.0
50.68,21.0,1.0,1.0,1.0
50.69,7.0,1.0,1.0,1.0
50.7,15.0,1.0,1.0,1.0
50.71,17.0,1.0,1.0,1.0
50.72,20.0,1.0,1.0,1.0
50.73,17.0,1.0,1.0,1.0
50.74,13.0,1.0,1.0,1.0
50.75,15.0,1.0,1.0,1.0
50.76,19.4944,1.0,1.0,1.0
50.77,22.5056,1.0,1.0,1.0
50.78,7.0,1.0,1.0,1.0
50.79,7.0,1.0,1.0,1.0
50.8,8.0,1.0,1.0,1.0
50.81,10.0,1.0,1.0,1.0
50.82,13.0,1.0,1.0,1.0
50.83,9.0,1.0,1.0,1.0
50.84,6.0,1.0,1.0,1.0
50.85,9.0,1.0,1.0,1.0
50.86,19.0,1.0,1.0,1.0
50.87,24.0,1.0,1.0,1.0
50.88,21.0,1.0,1.0,1.0
50.89,13.0,1.0,1.0,1.0
50.9,15.0,1.0,1.0,1.0
50.91,19.0,1.0,1.0,1.0
50.92,11.0,1.0,1.0,1.0
50.93,3.0,1.0,1.0,1.0
50.94,14.0,1.0,1.0,1.0
50.95,8.0,1.0,1.0,1.0
50.96,9.0,1.0,1.0,1.0
50.97,13.4944,1.0,1.0,1.0
50.98,9.5056,1.0,1.0,1.0
50.99,8.0,1.0,1.0,1.0
51.0,9.0,1.0,1.0,1.0
51.01,11.0,1.0,1.0,1.0
51.02,2.0,1.0,1.0,1.0
51.03,20.0,1.0,1.0,1.0
51.04,18.4944,1.0,1.0,1.0
51.05,4.5056,1.0,1.0,1.0
51.06,0.0,1.0,1.0,1.0
51.07,5.0,1.0,1.0,1.0
51.08,7.0,1.0,1.0,1.0
51.09,13.0,1.0,1.0,1.0
51.1,14.0,1.0,1.0,1.0
51.11,6.0,1.0,1.0,1.0
51.12,12.4944,1.0,1.0,1.0
51.13,5.5056,1.0,1.0,1.0
51.14,6.0,1.0,1.0,1.0
51.15,2.0,1.0,1.0,1.0
51.16,6.0,1.0,1.0,1.0
51.17,2.0,1.0,1.0,1.0
51.18,5.4944,1.0,1.0,1.0
51.19,15.5056,1.0,1.0,1.0
51.2,7.0,1.0,1.0,1.0
51.21,3.0,1.0,1.0,1.0
51.22,6.0,1.0,1.0,1.0
51.23,5.0,1.0,1.0,1.0
51.24,2.0,1.0,1.0,1.0
51.25,5.0,1.0,1.0,1.0
51.26,11.4944,1.0,1.0,1.0
51.27,8.5056,1.0,1.0,1.0
51.28,35.4944,1.0,1.0,1.0
51.29,2.5056,1.0,1.0,1.0
51.3,7.4944,1.0,1.0,1.0
51.31,8.5056,1.0,1.0,1.0
51.32,8.0,1.0,1.0,1.0
51.33,7.0,1.0,1.0,1.0
51.34,2.0,1.0,1.0,1.0
51.35,8.0,1.0,1.0,1.0
51.36,6.0,1.0,1.0,1.0
51.37,4.0,1.0,1.0,1.0
51.38,4.0,1.0,1.0,1.0
51.39,7.0,1.0,1.0,1.0
51.4,7.4944,1.0,1.0,1.0
51.41,18.5056,1.0,1.0,1.0
51.42,20.0,1.0,1.0,1.0
51.43,13.0,1.0,1.0,1.0
51.44,9.0,1.0,1.0,1.0
51.45,0.0,1.0,1.0,1.0
51.46,15.4944,1.0,1.0,1.0
51.47,16.5056,1.0,1.0,1.0
51.48,3.0,1.0,1.0,1.0
51.49,6.0,1.0,1.0,1.0
51.5,7.0,1.0,1.0,1.0
51.51,19.0,1.0,1.0,1.0
51.52,8.0,1.0,1.0,1.0
51.53,15.0,1.0,1.0,1.0
51.54,4.0,1.0,1.0,1.0
51.55,7.0,1.0,1.0,1.0
51.56,9.0,1.0,1.0,1.0
51.57,15.0,1.0,1.0,1.0
51.58,5.0,1.0,1.0,1.0
51.59,9.0,1.0,1.0,1.0
51.6,16.4944,1.0,1.0,1.0
51.61,8.5056,1.0,1.0,1.0
51.62,25.0,1.0,1.0,1.0
51.63,17.0,1.0,1.0,1.0
51.64,6.0,1.0,1.0,1.0
51.65,14.0,1.0,1.0,1.0
51.66,9.0,1.0,1.0,1.0
51.67,11.0,1.0,1.0,1.0
51.68,7.0,1.0,1.0,1.0
51.69,9.0,1.0,1.0,1.0
51.7,2.0,1.0,1.0,1.0
51.71,11.0,1.0,1.0,1.0
51.72,7.0,1.0,1.0,1.0
51.73,7.0,1.0,1.0,1.0
51.74,14.4944,1.0,1.0,1.0
51.75,11.5056,1.0,1.0,1.0
51.76,4.0,1.0,1.0,1.0
51.77,7.0,1.0,1.0,1.0
51.78,8.0,1.0,1.0,1.0
51.79,12.0,1.0,1.0,1.0
51.8,6.0,1.0,1.0,1.0
51.81,11.0,1.0,1.0,1.0
51.82,9.0,1.0,1.0,1.0
51.83,2.0,1.0,1.0,1.0
51.84,8.4944,1.0,1.0,1.0
51.85,5.5056,1.0,1.0,1.0
51.86,11.0,1.0,1.0,1.0
51.87,6.0,1.0,1.0,1.0
51.88,2.0,1.0,1.0,1.0
51.89,2.0,1.0,1.0,1.0
51.9,13.4944,1.0,1.0,1.0
51.91,7.5056,1.0,1.0,1.0
51.92,11.0,1.0,1.0,1.0
51.93,2.0,1.0,1.0,1.0
51.94,8.0,1.0,1.0,1.0
51.95,7.4944,1.0,1.0,1.0
51.96,4.4944,1.0,1.0,1.0
51.97,8.0111,1.0,1.0,1.0
51.98,2.0,1.0,1.0,1.0
51.99,10.0,1.0,1.0,1.0
52.0,5.4944,1.0,1.0,1.0