File: XRD:XRR/SCO/22164_SL(CO)L/22164_SL(CO)L_002_XRD_2-Theta_Omega.asc
*TYPE		=  Raw
*CLASS		=  ASCII CLASS
*SAMPLE		=
*COMMENT	=
*FNAME		=  22164_SL(CO)L_002_XRD_2-Theta_Omega.asc
*DATE		=  24-Nov-22 18:02

*GROUP_COUNT	=  1
*GONIO		=  SmartLab(In-plane), 0.000000
*ATTACHMENT	=  Z-Phi Stage
*ASC		=  0, 0, 0.000000, 0.000000
*I_MONOCHRO	=  Ge(220)x2, 0.000000
*FILTER		=  None
*C_MONOCHRO	=  None, 0.000000
*SLIT_NAME	=  0, Incident slit
*SLIT_NAME	=  1, Receiving slit # 1
*SLIT_NAME	=  2, Receiving slit # 2
*COUNTER	=  D/teX Ultra 250, 0
*POS_FORMAT	=  0
*SCAN_AXIS	=  2Theta/Omega
*MEAS_MODE	=  Continuous Scanning
*TARGET		=  29
*XRAY_CHAR	=  K-ALPHA1
*WAVE_LENGTH1	=  1.54059
*WAVE_LENGTH2	=  1.54441
*THICKNESS	=  0, 0.000000
*MU		=  0, 0.000000
*SCAN_MODE	=  2Theta/Omega
*SPEED_DIM	=  sec./step
*XUNIT		=  deg.
*YUNIT		=  counts
*SCALE_MODE	=  1
*REP_COUNT	=  0
*SE_COUNT	=  0
*STD_MATERIAL	=  Unknown, Unknown, 0.000000, 0.000000, 0.000000, 0.000000, 0.000000, 0.000000
*LATT_CONS	=  0, Unknown, Unknown, 0.000000, 0.000000, 0.000000, 0.000000, 0.000000, 0.000000
*SEC_COUNT	=  1
*TSPEC_SIZE	=  0
*EXTRA_SIZE	=  0
*MEMO		=

*BEGIN
*GROUP		=  0
*START		=  40
*STOP		=  54
*STEP		=  0.01
*OFFSET		=  0.0334
*SPEED		=  17.1013
*SLIT_SPEC	=  0, 0.600mm, 0.6, 0.000000
*SLIT_SPEC	=  1, 0.600mm, 0.6, 0.000000
*SLIT_SPEC	=  2, 0.600mm, 0.6, 0.000000
*KV		=  40
*MA		=  30
*LOW		=  0.000000
*HIGH		=  0.000000
*CTEMPER	=  0, 0.000000
*CTEMPER	=  1, 0.000000
*CTEMPER	=  2, 0.000000
*PAREX		=  0, 0.000000
*PAREX		=  1, 0.000000
*PAREX		=  2, 0.000000
*PAREX		=  3, 0.000000
*PAREX		=  4, 0.000000
*PAREX		=  5, 0.000000
*PAREX		=  6, 0.000000
*PAREX		=  7, 0.000000
*PAREX		=  8, 0.000000
*PAREX		=  9, 0.000000
*PAREX		=  10, 0.000000
*PAREX		=  11, 0.000000
*PAREX		=  12, 0.000000
*PAREX		=  13, 0.000000
*PAREX		=  14, 0.000000
*PAREX		=  15, 0.000000
*FULL_SCALE	=  1156636.1
*INDEX		=  0, 0, 0
*COUNT		=  1401
36.5278, 36, 24, 35
39.9889, 22.5056, 32, 28.4944
43.5056, 24.4944, 37.0111, 23.4944
47.4944, 29.5056, 31.5056, 30.4944
35.5056, 33.4944, 33.4944, 28
31.5056, 22.5056, 39.9889, 29.0111
28.4944, 40.5056, 31, 35.9889
23.0111, 30.4944, 30.5056, 33
29.9889, 34.0111, 26, 27
15, 32, 43.4944, 39
32.4944, 40.5056, 36, 38
28.5056, 23, 43.4833, 39.5167
24.4944, 21.5056, 33.4944, 24.5056
51, 26.9889, 40, 45.0111
34, 29, 26, 32.4944
26, 33.5056, 24.4944, 29.5056
38.4944, 34.5056, 30, 20.4944
19, 32, 21, 18
24, 43, 32.5056, 25
26.4944, 33.5056, 16, 40.4944
18, 35.4944, 45.0111, 32.9889
35.0111, 22, 37.4944, 26.5056
32.4944, 37.5056, 20, 34
40, 24.9889, 38.0111, 19
35.4944, 31.4944, 20.0111, 25.9889
32, 24.0111, 37, 39.4944
41.4944, 23.5056, 37.5056, 41
40.9889, 19.0111, 27, 42
28.9889, 44.0111, 43, 32
46, 15.4944, 34.5056, 27.4944
32.4944, 35.0111, 29, 22
42, 37.4944, 22.5056, 22.4944
42.5056, 28, 30, 52
35.9889, 28.5056, 29.5056, 38.4833
37.0111, 33.9889, 43.0111, 34.5056
40.9889, 39.0111, 25.9889, 36.0111
33, 44, 31.4944, 38.5056
42, 38.4944, 36.5056, 36
36.4944, 51, 20, 39
32.5056, 33.4944, 30.5056, 48
30, 43.4944, 33.5056, 37
37.4944, 26.5056, 44, 21
44.4944, 32.5056, 32.4944, 40
42.4944, 21.0111, 45, 35.4944
29.4833, 19.0222, 49.9889, 55.5056
38.4944, 31, 34.0111, 33
30.4944, 34.5056, 41.4944, 29.5056
37.9889, 24.0111, 23, 51
32, 32, 30.9889, 38.0111
32, 46.4944, 38.5056, 35.4944
42, 39, 31, 25.5056
26.4944, 34, 51.9889, 41.5167
33.4944, 30.5056, 28.4944, 42
35.5056, 19, 26, 32.9889
36.0111, 32, 38, 43
29.4944, 44.5056, 41, 38.4944
50.5056, 31, 47, 27.4944
44, 39.5056, 29.9889, 46.0111
32, 20, 32, 31
47.4944, 21.5056, 31, 15.4833
62.0111, 33.4944, 43.4944, 45.5167
32, 38.4944, 46.5056, 37
40.4944, 39, 42.4944, 53.0111
46.4833, 52.0111, 28.4944, 29.0111
39.9778, 55.0111, 49.0111, 40
48, 41, 47.4944, 46.9889
39.0111, 51, 61.9889, 42.0111
53, 49.9889, 33.0111, 63.5056
49, 39.4944, 40.5056, 43
33.4944, 51.4944, 51.0111, 34.4944
42.5056, 38, 53.9889, 42.5056
43, 64.4944, 46, 41.9889
50.5167, 37.4944, 35.0111, 56.4944
51.4944, 30, 39.5056, 38
43.5056, 38, 25.4944, 36
33.5056, 28, 35, 18.9889
51.0111, 39, 44.4944, 34
26, 40.4944, 46.5056, 52.5056
40.4944, 34.4944, 19.0111, 22
41, 31.9889, 40.0111, 32.4944
25.5056, 31, 60, 38
48, 40, 35, 39
20.9889, 16.0111, 31, 20
41.4944, 39.5056, 37.4944, 35.4944
27.5056, 29.9889, 46.0111, 51.5056
36, 39, 56.9889, 44.5056
40.4944, 35.0111, 24.4944, 31.5056
40.4944, 28, 31.4944, 39.0111
45.4944, 46.4944, 45.5056, 36
23.5056, 34.4944, 41.5056, 31.4944
29.5056, 49, 36.4944, 60.5056
46, 39, 36.4944, 52.5056
41, 50, 46.4944, 42.4944
59, 34.5056, 50.5056, 23
39.9889, 75.5056, 38.5056, 58.4944
49.4944, 50, 56, 47
58.5056, 51.5056, 72.9889, 55.5056
64, 39, 57.5056, 55
71.9889, 62.4944, 75.5056, 66.0111
73, 74.4944, 64, 78.5056
89.9778, 135.011, 97.0111, 109
105.483, 109, 109.517, 102.989
92, 69.4944, 77, 74.5167
88.4944, 75, 70.5056, 80.4833
69.5056, 92, 78, 82.4944
97, 88.5056, 98.0111, 68.9889
82.4944, 103.517, 108.989, 86.4944
110.011, 131.989, 111.011, 114.494
138.494, 98.5167, 109.978, 139.506
135.506, 146.978, 161.528, 159.967
165.033, 174.472, 184.517, 175
224.483, 208.011, 183.494, 192.989
230.517, 199.517, 220.494, 245.483
268.517, 267, 261.956, 274.539
267.494, 265.978, 293.483, 339.011
280.967, 281.067, 305.45, 279.033
314.011, 308.978, 292.517, 285.978
300.539, 267.989, 308.472, 260.011
308.506, 284.494, 277.967, 296.55
245.483, 279.483, 279.517, 266.494
226.022, 234.989, 279.506, 211
236.011, 162.989, 222.011, 227.506
216.483, 197.011, 184, 192.978
180.022, 191.483, 208.011, 189
191.517, 161.989, 170.494, 186.989
181.011, 168, 195.506, 182.011
190.483, 177.506, 187.506, 213.989
240.494, 275.989, 279.517, 269.483
282.528, 317.461, 358.022, 402.978
404.506, 394.011, 517.989, 602
586.472, 622.517, 654.967, 748.989
794.539, 769.472, 852.989, 921.967
961.033, 969, 1082.02, 1110.46
1196.47, 1286.01, 1326.01, 1354.51
1307.92, 1430.02, 1485.51, 1514.02
1545.44, 1595.53, 1650.51, 1734.53
1710.42, 1714, 1792.61, 1784.44
1815.41, 1800.14, 1783.43, 1753.03
1844.89, 1804.12, 1786.98, 1705.49
1704.99, 1772.02, 1686.49, 1712.45
1697.55, 1720, 1767.47, 1731.03
1702.01, 1695.97, 1752.07, 1703.49
1703.92, 1726, 1615.02, 1659.01
1588.02, 1530, 1444.46, 1488.53
1429.02, 1351.54, 1380.43, 1196.03
1203, 1130.54, 1074.46, 973.55
965.528, 876.978, 810.494, 785.483
749.517, 720.011, 632.506, 637.517
669.483, 611.539, 665.472, 599.506
669.528, 645.944, 703.539, 725.494
801.967, 812, 886.494, 972.956
1059.54, 1140.48, 1221.97, 1316.96
1493.52, 1585.97, 1733.01, 1958.98
2074.06, 2275.42, 2410.98, 2679.41
3001.46, 3123.53, 3276.52, 3613.9
3731.02, 4031.03, 4097.01, 4210.91
4394.99, 4692.91, 4685.97, 4991.09
5195.44, 5573.39, 5647.07, 5797.02
5897.93, 6031.54, 6041.45, 6159.53
6391.46, 6463.59, 6575.32, 6609.52
6410.56, 6504, 6771.41, 6804.97
6650.06, 6689.08, 6723.45, 6841.52
6896.92, 7114.93, 7121.66, 7141.46
7442.42, 7421.54, 7520.98, 7408.58
7556.58, 7766.26, 7645.67, 7648.96
7523.74, 7733.14, 7582.08, 7514.88
7369.52, 7203.14, 6953.46, 6908.92
6782.54, 6557.12, 6384, 6141.56
6059.91, 5799.65, 5733.52, 5541.92
5430.11, 5065.97, 4887.57, 4713.54
4661.37, 4459.59, 4346.56, 4098.59
3952.91, 3751.47, 3653, 3503.07
3431.06, 3090.01, 3053.52, 3004.91
2829.61, 2672.57, 2611.38, 2629.03
2493.59, 2306.92, 2318.01, 2253.46
2224.01, 2258.59, 2190.52, 2180.43
2328.53, 2409.98, 2508.07, 2534.91
2551.51, 2794.92, 3018.55, 3005.54
3347.81, 3340.03, 3522.49, 3745.56
3922.92, 4107.47, 4155.07, 4370.91
4576.39, 4588.11, 4664.52, 4744.43
4888.45, 4765.57, 4768.09, 4793.93
4648.94, 4393.58, 4339, 4257.09
4249.98, 3906.96, 3726, 3600.1
3293.97, 3135.17, 3039.81, 2827.59
2700, 2587.07, 2458, 2283.52
2169.48, 2086.01, 1960.47, 1845.12
1797.43, 1665.03, 1629.55, 1587.94
1609.57, 1523.96, 1507.03, 1499.93
1602, 1665.52, 1677.47, 1739.49
1846.01, 1772.01, 1935.99, 2123.97
2219.96, 2344.52, 2521.99, 2775.92
3049.52, 3283.49, 3482.51, 3696.48
4121.9, 4440.96, 4893.32, 5325.99
5756.03, 6749.37, 7479.33, 8383.09
9560.34, 11331.7, 13013.2, 15551.9
19114.7, 24326, 31658.5, 43293.9
62132.1, 95045.5, 161718, 379124
2748864.8, 5577043, 11442470, 13230557
6740831.5, 5870010, 2568389.5, 658175
340290, 227190, 162757, 119896
91143.8, 70426, 55312.1, 43527.6
34689.4, 27882.9, 22643.2, 18421.8
15559.9, 13006.3, 10695.1, 9269.13
7923.19, 6774.73, 5852.04, 5041.56
4345.52, 3801.61, 3263.61, 3083.52
2786, 2559.52, 2288.47, 2214.09
1947.46, 1885.01, 1734.51, 1565.09
1502.46, 1406.54, 1339.47, 1239.07
1140.48, 1048.49, 938.461, 1002.03
891.583, 847.45, 808.506, 759
686.494, 664.506, 707.011, 592.011
606.528, 588.494, 575.978, 502.967
506.55, 474.528, 485.45, 441.056
433.461, 395.011, 378.989, 459.494
361.55, 352.472, 363.483, 345.517
348.472, 331.55, 316.483, 270.472
282.033, 281.011, 261.967, 231.011
254.528, 247.956, 224.528, 215.506
221.989, 230, 193.517, 196.011
194.989, 192.011, 186.483, 202.506
183.483, 170, 183, 215.517
210.472, 201.528, 183.494, 156
201.494, 178.506, 187.989, 180.506
167, 160.483, 201.506, 182.011
188.494, 168, 182.506, 148
149.517, 153.506, 131.967, 145.506
123.011, 132.989, 127.528, 102
136.989, 84.4944, 103, 110.483
90.0222, 82.5056, 98, 72.4944
92, 80, 86.0111, 100
67.4944, 64.5056, 65.4944, 69.5056
82, 68.4944, 64.4944, 73.5056
66.5056, 64, 110.989, 43.4944
74.5167, 67, 79.9889, 69.5056
58.4944, 60, 54.5056, 77.4944
44.0111, 49.9889, 51, 54.4944
52.5056, 58.0111, 42, 52
50, 48.9889, 51.0111, 55.4944
50.4833, 69.0222, 43.9889, 50.0111
55.9889, 58, 62, 47.4944
34.5167, 52.4944, 49.4944, 48.0111
47.4944, 42.4944, 51.5056, 54.5056
39.9778, 63.0111, 43.5056, 35.5056
55, 47, 29.9889, 44
49, 44.0111, 44.9889, 36.5056
44.4944, 41.5056, 40.4944, 37.0111
50.4944, 60.9889, 24.5167, 29
46, 41, 43, 53.4944
24.5056, 42, 44.4944, 59.5056
40.9889, 30.0111, 46.4944, 53.4944
15, 24.0111, 26, 49.4944
36.5056, 41, 44, 41.9889
33.0111, 37.9889, 27.5056, 51
35, 29.5056, 34.4944, 29
24, 26.5056, 36, 33.4944
45.9889, 32.5056, 31.5056, 32.5056
32.4944, 29, 39.5056, 27
35, 39.4944, 46.4944, 33.5056
39.5056, 41.9889, 22.5056, 20.5056
36.4944, 35, 45.5056, 41.9778
28.0111, 29.0111, 34, 41.9889
29, 38.5056, 29, 21.5056
44.4944, 33.5056, 49, 20
8, 29.4944, 24.5056, 32
27.9889, 39.0111, 30.4944, 27.5056
25.4944, 43.5056, 35, 26
34, 22, 28, 24.9889
29.0111, 40, 17, 17.4944
13.5056, 23, 37.4944, 24.5056
35.9889, 28.5056, 43, 39.4944
44.0111, 51.4944, 28.5056, 31.4944
34.5056, 45, 29, 38.9889
45.0111, 31.4944, 35, 21.5056
23, 38, 27, 41.4944
29.5056, 22, 37, 20
36.4944, 26.4944, 40.4944, 27.5056
19.0111, 28, 20.4944, 33.5056
33, 25, 30, 30
28.4944, 35.5056, 27, 17
41.4944, 31.5056, 26, 17
25, 27, 16, 18
35, 25, 24.4944, 15.5056
29, 23.4833, 33.5167, 11.9889
27.0111, 33, 7.98889, 41.5056
25.5056, 29, 12, 32
27, 34.9889, 27.0111, 19
28, 24.4944, 27.5056, 33
25, 20.4944, 37, 20.5056
18.4944, 40.4944, 17.5056, 30.5056
39, 39, 25, 25
24.9889, 20.5056, 28.5056, 18
15, 27, 16, 18
21.4944, 36.5056, 28, 37
17, 20, 24.4944, 32.5056
33.4944, 23, 28.5056, 32
27.4944, 25.4944, 23.5056, 21.5056
27, 30.4944, 22.4944, 18.0111
15, 21, 26.4944, 28.5056
27, 27, 19.9889, 34
14.0111, 31, 45.4944, 22
25, 29, 30.5056, 27
19.4944, 25.5056, 41.9889, 24.0111
22.4944, 39, 37, 23.4833
28.0222, 21.4944, 36, 29.5056
35.4944, 34, 30.5056, 23.4944
24, 22.5056, 35.4944, 39
39.5056, 24.9889, 46.0111, 30.4833
27.5056, 26.0111, 26, 29.4944
31.5056, 22.4833, 36.0111, 24
20, 25.5056, 29.4944, 21.5056
33, 17, 30.4944, 27.5056
15, 10, 18.4944, 32.5056
44, 19, 20.4944, 27.5056
12, 15.4944, 33.5056, 27.4944
30.5056, 34, 25, 21
26.4944, 32, 17.5056, 14
35, 30, 36.9889, 38.0111
20.4944, 27.5056, 25, 18.4944
28.5056, 23.4944, 25.5056, 25
15, 32.4944, 12.5056, 37
21, 19, 32, 28
21, 29.4944, 16.5056, 35.9889
28.5056, 33, 20.5056, 26
29.4944, 8, 22.5056, 33
32.9889, 17.5056, 24.5056, 26
16, 24.4944, 3, 26.5056
21.4944, 16, 36, 24.5056
30, 24, 12, 21
23, 29, 23, 24.4944
29.5056, 26, 16, 30.4944
27.5056, 40, 31, 24.4944
13.5056, 26.4944, 20, 33
15.5056, 18.9889, 24.0111, 33
16, 32.4944, 18.5056, 16
25, 28, 24.9889, 17.0111
18, 26, 15.9889, 39.0111
17.9889, 28.5056, 10.5056, 36
27.9889, 34.0111, 16, 24.4944
30.5056, 18, 22, 23.4944
17, 34.5056, 10.4944, 19.5056
42, 13, 25, 34.4944
29.4944, 24.0111, 24, 25.4944
20.4944, 13.0111, 18, 19
15, 23, 31, 24.4944
25.5056, 12, 38.4944, 32.4944
32.5056, 31.5056, 17, 21
16, 32.4944, 44.5056, 37
19.4944, 15.4944, 10.0111, 8.49445
26, 23.5056, 13, 18.4944
28.5056
*END

*EOF