File: XRD:XRR/SCO/22164_SL(CO)L/22164_SL(CO)L_XRD_001_2-Theta_Omega.asc
*TYPE		=  Raw
*CLASS		=  ASCII CLASS
*SAMPLE		=
*COMMENT	=
*FNAME		=  22164_SL(CO)L_XRD_001_2-Theta_Omega.asc
*DATE		=  09-Dec-22 01:38

*GROUP_COUNT	=  1
*GONIO		=  SmartLab(In-plane), 0.000000
*ATTACHMENT	=  Z-Phi Stage
*ASC		=  0, 0, 0.000000, 0.000000
*I_MONOCHRO	=  Ge(220)x2, 0.000000
*FILTER		=  None
*C_MONOCHRO	=  None, 0.000000
*SLIT_NAME	=  0, Incident slit
*SLIT_NAME	=  1, Receiving slit # 1
*SLIT_NAME	=  2, Receiving slit # 2
*COUNTER	=  D/teX Ultra 250, 0
*POS_FORMAT	=  0
*SCAN_AXIS	=  2Theta/Omega
*MEAS_MODE	=  Continuous Scanning
*TARGET		=  29
*XRAY_CHAR	=  K-ALPHA1
*WAVE_LENGTH1	=  1.54059
*WAVE_LENGTH2	=  1.54441
*THICKNESS	=  0, 0.000000
*MU		=  0, 0.000000
*SCAN_MODE	=  2Theta/Omega
*SPEED_DIM	=  sec./step
*XUNIT		=  deg.
*YUNIT		=  counts
*SCALE_MODE	=  1
*REP_COUNT	=  0
*SE_COUNT	=  0
*STD_MATERIAL	=  Unknown, Unknown, 0.000000, 0.000000, 0.000000, 0.000000, 0.000000, 0.000000
*LATT_CONS	=  0, Unknown, Unknown, 0.000000, 0.000000, 0.000000, 0.000000, 0.000000, 0.000000
*SEC_COUNT	=  1
*TSPEC_SIZE	=  0
*EXTRA_SIZE	=  0
*MEMO		=

*BEGIN
*GROUP		=  0
*START		=  17
*STOP		=  29
*STEP		=  0.01
*OFFSET		=  0.1607
*SPEED		=  23.9588
*SLIT_SPEC	=  0, 0.400mm, 0.4, 0.000000
*SLIT_SPEC	=  1, 0.400mm, 0.4, 0.000000
*SLIT_SPEC	=  2, 0.400mm, 0.4, 0.000000
*KV		=  40
*MA		=  30
*LOW		=  0.000000
*HIGH		=  0.000000
*CTEMPER	=  0, 0.000000
*CTEMPER	=  1, 0.000000
*CTEMPER	=  2, 0.000000
*PAREX		=  0, 0.000000
*PAREX		=  1, 0.000000
*PAREX		=  2, 0.000000
*PAREX		=  3, 0.000000
*PAREX		=  4, 0.000000
*PAREX		=  5, 0.000000
*PAREX		=  6, 0.000000
*PAREX		=  7, 0.000000
*PAREX		=  8, 0.000000
*PAREX		=  9, 0.000000
*PAREX		=  10, 0.000000
*PAREX		=  11, 0.000000
*PAREX		=  12, 0.000000
*PAREX		=  13, 0.000000
*PAREX		=  14, 0.000000
*PAREX		=  15, 0.000000
*FULL_SCALE	=  249160
*INDEX		=  0, 0, 0
*COUNT		=  1201
39, 33.5199, 54.9841, 42
33, 52, 33, 31
50, 35, 34.504, 35.496
21.496, 32, 36.504, 38.496
53.504, 17.496, 31.504, 26.496
42, 46, 30.504, 38.504
33.992, 50, 33, 37.504
25, 24.496, 38, 40.008
30.992, 36, 29, 38.008
20.496, 40.496, 36.008, 30.496
40.496, 59.008, 31.992, 46
56, 38, 48.504, 33.496
39.008, 48.992, 48.5119, 26.4881
39.504, 32.496, 49.504, 35.496
32.504, 35.496, 37.504, 44.496
34.504, 36, 55.504, 53.992
46.008, 44.496, 33.496, 54.008
56.992, 22, 60, 37
47, 43.008, 41.992, 40.504
48, 52, 51.496, 36.008
43.992, 32, 41, 54.504
44.496, 25.504, 46.496, 44
24, 37.5119, 58.992, 43.496
48, 50.008, 34.992, 38
48.008, 30.992, 41.504, 38.496
43.008, 56, 40, 43.496
47.504, 49.496, 36.496, 47
37.504, 38, 40, 41.496
40.008, 34.496, 18, 54.496
36.504, 54.496, 36, 44.008
41.496, 26.496, 31, 27.504
46.496, 38, 45, 35
36.008, 41.496, 47.496, 51.008
43, 35.992, 31.008, 32.496
40.496, 43, 48.504, 38
42.504, 39, 32.992, 55.504
54, 39.496, 27.504, 39.496
25.504, 41.496, 37, 37.504
40.496, 16, 25, 34
35, 44, 36, 34
36.008, 36, 51.504, 28.4881
33, 48, 32, 26.504
35.496, 30, 34.504, 25.496
33, 46.008, 37.992, 33.008
38, 39.504, 42.992, 30.496
47.504, 7.49602, 49, 27
29, 33.504, 44.496, 32
41, 20, 36, 39.504
37.496, 46, 36.504, 52
32, 41, 32.496, 37
36, 30, 30.008, 37.992
55.008, 38.992, 46.504, 30.496
34, 19.504, 35.496, 41.008
39.496, 30, 37.496, 37.008
38.496, 45, 38.496, 31.008
51.496, 39, 39, 38.008
43.992, 44.504, 38.992, 43.008
53.496, 35, 45, 28.496
38.504, 52.496, 24, 38
21.5119, 55.4881, 34.504, 24.504
25.992, 39, 31.504, 41.496
29.504, 26.504, 59.496, 38
54, 52.496, 40, 34.008
26, 39.496, 50.496, 55.008
33, 42.992, 39, 48.008
35.992, 27.5119, 38.4881, 29
30, 44, 39, 42
36.504, 36.504, 49, 33.992
43, 18, 35, 42
33.504, 37, 46, 52.496
54.008, 30, 43.992, 30.504
37.504, 46.496, 50, 43.496
45, 30.504, 35.008, 42.496
20.496, 40.496, 40, 49
51, 47.008, 56.5119, 48.4801
52.504, 57, 33.496, 56.008
54.496, 36.496, 63, 44
42.504, 29.496, 48, 40
40, 44.008, 38.496, 36.496
51, 37, 39.008, 46.992
33.504, 36.008, 49.992, 42.504
41.992, 64.504, 39.504, 51.504
38.4881, 32.504, 42, 55.496
32.504, 60.496, 32.504, 41
35, 31.496, 34.504, 33
41.496, 43.504, 38.496, 46
37, 35, 34, 24.504
40.504, 59.496, 32.496, 33
29, 31.504, 34.008, 27.4881
41.504, 40.496, 39.008, 39.992
40.008, 31.992, 32, 27
26.504, 33.504, 44.496, 36.496
29.504, 47.496, 53, 46.504
41.496, 29, 28.504, 52
50, 29.496, 41, 39
54, 33.504, 46, 36.496
37, 46, 57.504, 46.504
48.496, 46.496, 45.504, 39.504
42.496, 34, 38.496, 42.504
48.496, 53.008, 59.496, 24
46.504, 40.504, 63.992, 45
42.504, 49.992, 46.504, 35.496
54.008, 43.008, 59.9841, 56
41.504, 41, 60.008, 37.496
56.504, 51.992, 43.504, 60
56.992, 46, 53.504, 74.496
42.008, 60.496, 53.504, 59.992
68.5119, 63.496, 61.992, 66
75.008, 65, 75.992, 70.504
51, 72.504, 69.496, 67.504
66.992, 59, 87.008, 72.496
81, 93.008, 98.504, 79.496
87, 94.496, 134.496, 112
247.512, 130.496, 136.496, 136.008
135.992, 155, 145.504, 129.992
147.008, 122, 142.496, 143.992
124.024, 137.488, 139, 133.008
154, 125.984, 122.008, 114.496
120.504, 97.4881, 107.504, 108.008
87.496, 96.992, 112.008, 95.008
108.984, 104.008, 141.504, 106.496
117.992, 116.008, 120, 103.992
120, 89.0159, 94.992, 147.008
142, 142, 152.496, 154
136, 161, 181.496, 159.512
182, 188.992, 214.016, 203.496
236.496, 205, 225.504, 244
217, 226.488, 252.024, 224.976
250.016, 251.488, 277.496, 251.008
259.488, 260.504, 297.016, 314
252.488, 314, 354.52, 336.008
420.488, 429.992, 399.504, 443.992
390.016, 393.512, 427.968, 395.024
442.992, 405.504, 438.992, 443.032
398.464, 406.016, 366.496, 353.488
365.488, 373.544, 341.456, 370.528
399.488, 362.52, 357.472, 340.512
334, 299, 291.512, 267.984
223.48, 266.008, 214.504, 208.496
153.992, 176.512, 209.992, 162
177.512, 211.496, 194.992, 208
215.496, 227.016, 231.48, 236.024
280, 264, 311.48, 296.008
340.52, 367.984, 338.52, 416.504
418.992, 440.496, 492.008, 509.984
547.504, 557.512, 625.024, 678.512
718.488, 731.984, 879.008, 821.536
937.504, 964.984, 1055.5, 974.48
1062.53, 1187.49, 1299.01, 1293.49
1411.58, 1428, 1529.46, 1597.04
1653.98, 1705.52, 1933, 1905.5
2001.02, 2001.48, 2019.02, 1969.52
2090.48, 2055.08, 2083.9, 1962.54
1938.48, 1932.51, 1767.48, 1727.97
1632.98, 1446.5, 1279, 1175.49
1180.98, 1096.01, 1114.5, 1067.01
1074.02, 1218.51, 1292.47, 1519.04
1703.03, 1779, 2093.02, 2378.05
2609.51, 2906.54, 3328.92, 3646.11
4069.06, 5075.13, 6781.66, 9156.2
12008.7, 17380.4, 23892.7, 32907.8
44127.1, 59362, 78621.1, 103508
137658, 205948, 371857, 915194
2232400.5, 4031271.5, 3230323.8, 399166
84117.6, 38107.7, 21819.6, 14232.9
9897.71, 7700.84, 5782.42, 4475.4
3507.94, 2848.93, 2296.51, 1877.99
1679.42, 1359, 1168.5, 1006.98
880.448, 806.528, 751.008, 660.472
608, 519.008, 518.488, 447.504
421.984, 322, 336.504, 322.504
326.504, 285.96, 309.016, 290.016
374, 321, 360.984, 406.008
388, 412.512, 377.488, 439.504
386.496, 384.52, 364.984, 338.008
276.496, 291.984, 255, 216.504
224.496, 191.496, 176.504, 144.488
160.016, 144.488, 116.496, 114
123.504, 103.496, 112, 125
103.008, 90.504, 96.992, 90
94, 100.504, 82.496, 104.008
97.496, 73.992, 85.504, 95.008
93.496, 65, 60.4881, 58
74, 57.504, 53.496, 70
63.008, 75, 53.496, 68.496
55.504, 71.504, 55, 62.992
72.504, 64.504, 51, 51
59.496, 54.496, 50, 47.504
53.504, 37.992, 65.5119, 41.4881
56, 50.008, 72, 60.504
55.496, 42.496, 78.5119, 60.9841
39.504, 50, 73, 56
67.5119, 62.9841, 80.5119, 49.4881
56.008, 74.496, 61, 58.496
67.008, 43.496, 53, 55.496
42.5119, 23.992, 35, 44
45.496, 30.008, 44.992, 43.504
44.496, 35, 35, 45.0159
32.9841, 37.504, 48.496, 37.504
40.496, 30.008, 22.496, 25
23, 36.496, 41, 44.504
18.496, 27, 50.504, 45.496
39.504, 40.496, 28, 41.008
38.992, 35.504, 40.496, 30
30.5119, 45.992, 44.504, 53.496
22.496, 26.504, 36.496, 42
39, 33, 42.504, 29.496
17, 30.008, 33.504, 42.992
36, 40.504, 29, 37.496
39.496, 18.504, 34.504, 35.992
32, 34.008, 31.992, 25.5119
35.496, 45.992, 41.504, 30.496
17.504, 33.496, 21, 27.504
26.504, 40.992, 24.008, 21.992
22, 17, 22.008, 34.992
14.008, 9.99203, 21, 6
22, 18, 20, 17.504
30, 27, 21.496, 14.008
27.992, 25.008, 18.992, 10
22.504, 16.496, 16, 32
16, 9, 18, 28
15.504, 21.496, 29.504, 17.496
23, 34, 22, 12
18, 10, 11, 21.504
32.496, 23, 17.008, 26.496
9.49602, 22.504, 16.496, 10.504
15.496, 22.504, 23, 22.496
20.504, 9.49602, 13, 24.504
22, 17.496, 38, 15
21.504, 22.496, 17, 18.504
13.496, 14.504, 13.496, 11
9, 23, 11, 24
26, 22, 19, 23
22, 21.504, 5.49602, 13
27, 20, 20.504, 21.496
20, 18, 19.504, 27.496
16, 28.504, 16.496, 18.504
20.496, 11, 27, 28
14, 11.008, 27.496, 24.496
6, 17.504, 18.504, 10.992
21, 12, 9, 23
18, 14.008, 21.992, 17.008
13, 14.496, 21.496, 23.504
25.496, 21.504, 17.496, 16
18, 35, 15, 14.008
23.992, 24, 27, 22
17.008, 22.496, 20.496, 16
16, 15, 21, 23.504
16.496, 33.008, 20.992, 11
15, 21, 24, 21.504
30.504, 42.992, 13, 23.504
28.496, 15, 23, 29.504
29.496, 13, 38.504, 38.496
24, 23, 16, 21
25, 20, 19, 10
24, 30, 23, 15
22.504, 13.496, 16, 12.504
13.504, 10.992, 10.008, 24.496
20.496, 19, 12.008, 5.99203
9, 10, 16, 22
15, 16, 31, 19.504
12.496, 16, 11, 14
13, 17, 12, 21
13, 20, 8.50398, 25.496
12, 12, 20, 16
21, 15, 19.504, 22
11.496, 9, 18.504, 20.496
6.50398, 7.49602, 11, 5
10.008, 17.992, 17, 6.50398
6.49602, 17, 16, 10
18, 8, 24, 12
16, 18, 28, 20
13.504, 17.496, 6, 15.008
23.992, 16, 11, 12
16, 13, 11, 16
15.504, 12.504, 10.992, 4
12, 9.50398, 19.496, 13
20, 20.504, 9.00797, 17.992
15.496, 16.008, 12.992, 14
22.504, 10.496, 14, 18
16, 18, 23, 17
24, 18, 12.504, 14.496
12.504, 24.496, 11, 19
24.008, 19.992, 5, 22
15, 18, 9.00797, 13.992
4, 10, 8, 6
2, 13.504, 9.49602, 17
8.50398, 14.496, 5, 13
18, 11, 19, 10
9, 23, 25, 4
25, 20, 12, 11.504
5.49602, 15.504, 17.496, 12
17, 16, 11, 17
8, 10, 24.504, 19.496
13.504, 27.496, 12, 16
7, 14, 16, 28
22, 11, 12.504, 22.496
12.504, 16, 17.496, 23
6, 10, 13, 17
7.50398, 25.496, 8, 18
12.504
*END

*EOF