File: XRD:XRR/SCO/22164_SL(CO)L/22164_SL(CO)L_XRD_001.csv
#twotheta, yobs, ycal, bkg, diff
17.0,39.0,1.0,1.0,1.0
17.01,33.5199,1.0,1.0,1.0
17.02,54.9841,1.0,1.0,1.0
17.03,42.0,1.0,1.0,1.0
17.04,33.0,1.0,1.0,1.0
17.05,52.0,1.0,1.0,1.0
17.06,33.0,1.0,1.0,1.0
17.07,31.0,1.0,1.0,1.0
17.08,50.0,1.0,1.0,1.0
17.09,35.0,1.0,1.0,1.0
17.1,34.504,1.0,1.0,1.0
17.11,35.496,1.0,1.0,1.0
17.12,21.496,1.0,1.0,1.0
17.13,32.0,1.0,1.0,1.0
17.14,36.504,1.0,1.0,1.0
17.15,38.496,1.0,1.0,1.0
17.16,53.504,1.0,1.0,1.0
17.17,17.496,1.0,1.0,1.0
17.18,31.504,1.0,1.0,1.0
17.19,26.496,1.0,1.0,1.0
17.2,42.0,1.0,1.0,1.0
17.21,46.0,1.0,1.0,1.0
17.22,30.504,1.0,1.0,1.0
17.23,38.504,1.0,1.0,1.0
17.24,33.992,1.0,1.0,1.0
17.25,50.0,1.0,1.0,1.0
17.26,33.0,1.0,1.0,1.0
17.27,37.504,1.0,1.0,1.0
17.28,25.0,1.0,1.0,1.0
17.29,24.496,1.0,1.0,1.0
17.3,38.0,1.0,1.0,1.0
17.31,40.008,1.0,1.0,1.0
17.32,30.992,1.0,1.0,1.0
17.33,36.0,1.0,1.0,1.0
17.34,29.0,1.0,1.0,1.0
17.35,38.008,1.0,1.0,1.0
17.36,20.496,1.0,1.0,1.0
17.37,40.496,1.0,1.0,1.0
17.38,36.008,1.0,1.0,1.0
17.39,30.496,1.0,1.0,1.0
17.4,40.496,1.0,1.0,1.0
17.41,59.008,1.0,1.0,1.0
17.42,31.992,1.0,1.0,1.0
17.43,46.0,1.0,1.0,1.0
17.44,56.0,1.0,1.0,1.0
17.45,38.0,1.0,1.0,1.0
17.46,48.504,1.0,1.0,1.0
17.47,33.496,1.0,1.0,1.0
17.48,39.008,1.0,1.0,1.0
17.49,48.992,1.0,1.0,1.0
17.5,48.5119,1.0,1.0,1.0
17.51,26.4881,1.0,1.0,1.0
17.52,39.504,1.0,1.0,1.0
17.53,32.496,1.0,1.0,1.0
17.54,49.504,1.0,1.0,1.0
17.55,35.496,1.0,1.0,1.0
17.56,32.504,1.0,1.0,1.0
17.57,35.496,1.0,1.0,1.0
17.58,37.504,1.0,1.0,1.0
17.59,44.496,1.0,1.0,1.0
17.6,34.504,1.0,1.0,1.0
17.61,36.0,1.0,1.0,1.0
17.62,55.504,1.0,1.0,1.0
17.63,53.992,1.0,1.0,1.0
17.64,46.008,1.0,1.0,1.0
17.65,44.496,1.0,1.0,1.0
17.66,33.496,1.0,1.0,1.0
17.67,54.008,1.0,1.0,1.0
17.68,56.992,1.0,1.0,1.0
17.69,22.0,1.0,1.0,1.0
17.7,60.0,1.0,1.0,1.0
17.71,37.0,1.0,1.0,1.0
17.72,47.0,1.0,1.0,1.0
17.73,43.008,1.0,1.0,1.0
17.74,41.992,1.0,1.0,1.0
17.75,40.504,1.0,1.0,1.0
17.76,48.0,1.0,1.0,1.0
17.77,52.0,1.0,1.0,1.0
17.78,51.496,1.0,1.0,1.0
17.79,36.008,1.0,1.0,1.0
17.8,43.992,1.0,1.0,1.0
17.81,32.0,1.0,1.0,1.0
17.82,41.0,1.0,1.0,1.0
17.83,54.504,1.0,1.0,1.0
17.84,44.496,1.0,1.0,1.0
17.85,25.504,1.0,1.0,1.0
17.86,46.496,1.0,1.0,1.0
17.87,44.0,1.0,1.0,1.0
17.88,24.0,1.0,1.0,1.0
17.89,37.5119,1.0,1.0,1.0
17.9,58.992,1.0,1.0,1.0
17.91,43.496,1.0,1.0,1.0
17.92,48.0,1.0,1.0,1.0
17.93,50.008,1.0,1.0,1.0
17.94,34.992,1.0,1.0,1.0
17.95,38.0,1.0,1.0,1.0
17.96,48.008,1.0,1.0,1.0
17.97,30.992,1.0,1.0,1.0
17.98,41.504,1.0,1.0,1.0
17.99,38.496,1.0,1.0,1.0
18.0,43.008,1.0,1.0,1.0
18.01,56.0,1.0,1.0,1.0
18.02,40.0,1.0,1.0,1.0
18.03,43.496,1.0,1.0,1.0
18.04,47.504,1.0,1.0,1.0
18.05,49.496,1.0,1.0,1.0
18.06,36.496,1.0,1.0,1.0
18.07,47.0,1.0,1.0,1.0
18.08,37.504,1.0,1.0,1.0
18.09,38.0,1.0,1.0,1.0
18.1,40.0,1.0,1.0,1.0
18.11,41.496,1.0,1.0,1.0
18.12,40.008,1.0,1.0,1.0
18.13,34.496,1.0,1.0,1.0
18.14,18.0,1.0,1.0,1.0
18.15,54.496,1.0,1.0,1.0
18.16,36.504,1.0,1.0,1.0
18.17,54.496,1.0,1.0,1.0
18.18,36.0,1.0,1.0,1.0
18.19,44.008,1.0,1.0,1.0
18.2,41.496,1.0,1.0,1.0
18.21,26.496,1.0,1.0,1.0
18.22,31.0,1.0,1.0,1.0
18.23,27.504,1.0,1.0,1.0
18.24,46.496,1.0,1.0,1.0
18.25,38.0,1.0,1.0,1.0
18.26,45.0,1.0,1.0,1.0
18.27,35.0,1.0,1.0,1.0
18.28,36.008,1.0,1.0,1.0
18.29,41.496,1.0,1.0,1.0
18.3,47.496,1.0,1.0,1.0
18.31,51.008,1.0,1.0,1.0
18.32,43.0,1.0,1.0,1.0
18.33,35.992,1.0,1.0,1.0
18.34,31.008,1.0,1.0,1.0
18.35,32.496,1.0,1.0,1.0
18.36,40.496,1.0,1.0,1.0
18.37,43.0,1.0,1.0,1.0
18.38,48.504,1.0,1.0,1.0
18.39,38.0,1.0,1.0,1.0
18.4,42.504,1.0,1.0,1.0
18.41,39.0,1.0,1.0,1.0
18.42,32.992,1.0,1.0,1.0
18.43,55.504,1.0,1.0,1.0
18.44,54.0,1.0,1.0,1.0
18.45,39.496,1.0,1.0,1.0
18.46,27.504,1.0,1.0,1.0
18.47,39.496,1.0,1.0,1.0
18.48,25.504,1.0,1.0,1.0
18.49,41.496,1.0,1.0,1.0
18.5,37.0,1.0,1.0,1.0
18.51,37.504,1.0,1.0,1.0
18.52,40.496,1.0,1.0,1.0
18.53,16.0,1.0,1.0,1.0
18.54,25.0,1.0,1.0,1.0
18.55,34.0,1.0,1.0,1.0
18.56,35.0,1.0,1.0,1.0
18.57,44.0,1.0,1.0,1.0
18.58,36.0,1.0,1.0,1.0
18.59,34.0,1.0,1.0,1.0
18.6,36.008,1.0,1.0,1.0
18.61,36.0,1.0,1.0,1.0
18.62,51.504,1.0,1.0,1.0
18.63,28.4881,1.0,1.0,1.0
18.64,33.0,1.0,1.0,1.0
18.65,48.0,1.0,1.0,1.0
18.66,32.0,1.0,1.0,1.0
18.67,26.504,1.0,1.0,1.0
18.68,35.496,1.0,1.0,1.0
18.69,30.0,1.0,1.0,1.0
18.7,34.504,1.0,1.0,1.0
18.71,25.496,1.0,1.0,1.0
18.72,33.0,1.0,1.0,1.0
18.73,46.008,1.0,1.0,1.0
18.74,37.992,1.0,1.0,1.0
18.75,33.008,1.0,1.0,1.0
18.76,38.0,1.0,1.0,1.0
18.77,39.504,1.0,1.0,1.0
18.78,42.992,1.0,1.0,1.0
18.79,30.496,1.0,1.0,1.0
18.8,47.504,1.0,1.0,1.0
18.81,7.496,1.0,1.0,1.0
18.82,49.0,1.0,1.0,1.0
18.83,27.0,1.0,1.0,1.0
18.84,29.0,1.0,1.0,1.0
18.85,33.504,1.0,1.0,1.0
18.86,44.496,1.0,1.0,1.0
18.87,32.0,1.0,1.0,1.0
18.88,41.0,1.0,1.0,1.0
18.89,20.0,1.0,1.0,1.0
18.9,36.0,1.0,1.0,1.0
18.91,39.504,1.0,1.0,1.0
18.92,37.496,1.0,1.0,1.0
18.93,46.0,1.0,1.0,1.0
18.94,36.504,1.0,1.0,1.0
18.95,52.0,1.0,1.0,1.0
18.96,32.0,1.0,1.0,1.0
18.97,41.0,1.0,1.0,1.0
18.98,32.496,1.0,1.0,1.0
18.99,37.0,1.0,1.0,1.0
19.0,36.0,1.0,1.0,1.0
19.01,30.0,1.0,1.0,1.0
19.02,30.008,1.0,1.0,1.0
19.03,37.992,1.0,1.0,1.0
19.04,55.008,1.0,1.0,1.0
19.05,38.992,1.0,1.0,1.0
19.06,46.504,1.0,1.0,1.0
19.07,30.496,1.0,1.0,1.0
19.08,34.0,1.0,1.0,1.0
19.09,19.504,1.0,1.0,1.0
19.1,35.496,1.0,1.0,1.0
19.11,41.008,1.0,1.0,1.0
19.12,39.496,1.0,1.0,1.0
19.13,30.0,1.0,1.0,1.0
19.14,37.496,1.0,1.0,1.0
19.15,37.008,1.0,1.0,1.0
19.16,38.496,1.0,1.0,1.0
19.17,45.0,1.0,1.0,1.0
19.18,38.496,1.0,1.0,1.0
19.19,31.008,1.0,1.0,1.0
19.2,51.496,1.0,1.0,1.0
19.21,39.0,1.0,1.0,1.0
19.22,39.0,1.0,1.0,1.0
19.23,38.008,1.0,1.0,1.0
19.24,43.992,1.0,1.0,1.0
19.25,44.504,1.0,1.0,1.0
19.26,38.992,1.0,1.0,1.0
19.27,43.008,1.0,1.0,1.0
19.28,53.496,1.0,1.0,1.0
19.29,35.0,1.0,1.0,1.0
19.3,45.0,1.0,1.0,1.0
19.31,28.496,1.0,1.0,1.0
19.32,38.504,1.0,1.0,1.0
19.33,52.496,1.0,1.0,1.0
19.34,24.0,1.0,1.0,1.0
19.35,38.0,1.0,1.0,1.0
19.36,21.5119,1.0,1.0,1.0
19.37,55.4881,1.0,1.0,1.0
19.38,34.504,1.0,1.0,1.0
19.39,24.504,1.0,1.0,1.0
19.4,25.992,1.0,1.0,1.0
19.41,39.0,1.0,1.0,1.0
19.42,31.504,1.0,1.0,1.0
19.43,41.496,1.0,1.0,1.0
19.44,29.504,1.0,1.0,1.0
19.45,26.504,1.0,1.0,1.0
19.46,59.496,1.0,1.0,1.0
19.47,38.0,1.0,1.0,1.0
19.48,54.0,1.0,1.0,1.0
19.49,52.496,1.0,1.0,1.0
19.5,40.0,1.0,1.0,1.0
19.51,34.008,1.0,1.0,1.0
19.52,26.0,1.0,1.0,1.0
19.53,39.496,1.0,1.0,1.0
19.54,50.496,1.0,1.0,1.0
19.55,55.008,1.0,1.0,1.0
19.56,33.0,1.0,1.0,1.0
19.57,42.992,1.0,1.0,1.0
19.58,39.0,1.0,1.0,1.0
19.59,48.008,1.0,1.0,1.0
19.6,35.992,1.0,1.0,1.0
19.61,27.5119,1.0,1.0,1.0
19.62,38.4881,1.0,1.0,1.0
19.63,29.0,1.0,1.0,1.0
19.64,30.0,1.0,1.0,1.0
19.65,44.0,1.0,1.0,1.0
19.66,39.0,1.0,1.0,1.0
19.67,42.0,1.0,1.0,1.0
19.68,36.504,1.0,1.0,1.0
19.69,36.504,1.0,1.0,1.0
19.7,49.0,1.0,1.0,1.0
19.71,33.992,1.0,1.0,1.0
19.72,43.0,1.0,1.0,1.0
19.73,18.0,1.0,1.0,1.0
19.74,35.0,1.0,1.0,1.0
19.75,42.0,1.0,1.0,1.0
19.76,33.504,1.0,1.0,1.0
19.77,37.0,1.0,1.0,1.0
19.78,46.0,1.0,1.0,1.0
19.79,52.496,1.0,1.0,1.0
19.8,54.008,1.0,1.0,1.0
19.81,30.0,1.0,1.0,1.0
19.82,43.992,1.0,1.0,1.0
19.83,30.504,1.0,1.0,1.0
19.84,37.504,1.0,1.0,1.0
19.85,46.496,1.0,1.0,1.0
19.86,50.0,1.0,1.0,1.0
19.87,43.496,1.0,1.0,1.0
19.88,45.0,1.0,1.0,1.0
19.89,30.504,1.0,1.0,1.0
19.9,35.008,1.0,1.0,1.0
19.91,42.496,1.0,1.0,1.0
19.92,20.496,1.0,1.0,1.0
19.93,40.496,1.0,1.0,1.0
19.94,40.0,1.0,1.0,1.0
19.95,49.0,1.0,1.0,1.0
19.96,51.0,1.0,1.0,1.0
19.97,47.008,1.0,1.0,1.0
19.98,56.5119,1.0,1.0,1.0
19.99,48.4801,1.0,1.0,1.0
20.0,52.504,1.0,1.0,1.0
20.01,57.0,1.0,1.0,1.0
20.02,33.496,1.0,1.0,1.0
20.03,56.008,1.0,1.0,1.0
20.04,54.496,1.0,1.0,1.0
20.05,36.496,1.0,1.0,1.0
20.06,63.0,1.0,1.0,1.0
20.07,44.0,1.0,1.0,1.0
20.08,42.504,1.0,1.0,1.0
20.09,29.496,1.0,1.0,1.0
20.1,48.0,1.0,1.0,1.0
20.11,40.0,1.0,1.0,1.0
20.12,40.0,1.0,1.0,1.0
20.13,44.008,1.0,1.0,1.0
20.14,38.496,1.0,1.0,1.0
20.15,36.496,1.0,1.0,1.0
20.16,51.0,1.0,1.0,1.0
20.17,37.0,1.0,1.0,1.0
20.18,39.008,1.0,1.0,1.0
20.19,46.992,1.0,1.0,1.0
20.2,33.504,1.0,1.0,1.0
20.21,36.008,1.0,1.0,1.0
20.22,49.992,1.0,1.0,1.0
20.23,42.504,1.0,1.0,1.0
20.24,41.992,1.0,1.0,1.0
20.25,64.504,1.0,1.0,1.0
20.26,39.504,1.0,1.0,1.0
20.27,51.504,1.0,1.0,1.0
20.28,38.4881,1.0,1.0,1.0
20.29,32.504,1.0,1.0,1.0
20.3,42.0,1.0,1.0,1.0
20.31,55.496,1.0,1.0,1.0
20.32,32.504,1.0,1.0,1.0
20.33,60.496,1.0,1.0,1.0
20.34,32.504,1.0,1.0,1.0
20.35,41.0,1.0,1.0,1.0
20.36,35.0,1.0,1.0,1.0
20.37,31.496,1.0,1.0,1.0
20.38,34.504,1.0,1.0,1.0
20.39,33.0,1.0,1.0,1.0
20.4,41.496,1.0,1.0,1.0
20.41,43.504,1.0,1.0,1.0
20.42,38.496,1.0,1.0,1.0
20.43,46.0,1.0,1.0,1.0
20.44,37.0,1.0,1.0,1.0
20.45,35.0,1.0,1.0,1.0
20.46,34.0,1.0,1.0,1.0
20.47,24.504,1.0,1.0,1.0
20.48,40.504,1.0,1.0,1.0
20.49,59.496,1.0,1.0,1.0
20.5,32.496,1.0,1.0,1.0
20.51,33.0,1.0,1.0,1.0
20.52,29.0,1.0,1.0,1.0
20.53,31.504,1.0,1.0,1.0
20.54,34.008,1.0,1.0,1.0
20.55,27.4881,1.0,1.0,1.0
20.56,41.504,1.0,1.0,1.0
20.57,40.496,1.0,1.0,1.0
20.58,39.008,1.0,1.0,1.0
20.59,39.992,1.0,1.0,1.0
20.6,40.008,1.0,1.0,1.0
20.61,31.992,1.0,1.0,1.0
20.62,32.0,1.0,1.0,1.0
20.63,27.0,1.0,1.0,1.0
20.64,26.504,1.0,1.0,1.0
20.65,33.504,1.0,1.0,1.0
20.66,44.496,1.0,1.0,1.0
20.67,36.496,1.0,1.0,1.0
20.68,29.504,1.0,1.0,1.0
20.69,47.496,1.0,1.0,1.0
20.7,53.0,1.0,1.0,1.0
20.71,46.504,1.0,1.0,1.0
20.72,41.496,1.0,1.0,1.0
20.73,29.0,1.0,1.0,1.0
20.74,28.504,1.0,1.0,1.0
20.75,52.0,1.0,1.0,1.0
20.76,50.0,1.0,1.0,1.0
20.77,29.496,1.0,1.0,1.0
20.78,41.0,1.0,1.0,1.0
20.79,39.0,1.0,1.0,1.0
20.8,54.0,1.0,1.0,1.0
20.81,33.504,1.0,1.0,1.0
20.82,46.0,1.0,1.0,1.0
20.83,36.496,1.0,1.0,1.0
20.84,37.0,1.0,1.0,1.0
20.85,46.0,1.0,1.0,1.0
20.86,57.504,1.0,1.0,1.0
20.87,46.504,1.0,1.0,1.0
20.88,48.496,1.0,1.0,1.0
20.89,46.496,1.0,1.0,1.0
20.9,45.504,1.0,1.0,1.0
20.91,39.504,1.0,1.0,1.0
20.92,42.496,1.0,1.0,1.0
20.93,34.0,1.0,1.0,1.0
20.94,38.496,1.0,1.0,1.0
20.95,42.504,1.0,1.0,1.0
20.96,48.496,1.0,1.0,1.0
20.97,53.008,1.0,1.0,1.0
20.98,59.496,1.0,1.0,1.0
20.99,24.0,1.0,1.0,1.0
21.0,46.504,1.0,1.0,1.0
21.01,40.504,1.0,1.0,1.0
21.02,63.992,1.0,1.0,1.0
21.03,45.0,1.0,1.0,1.0
21.04,42.504,1.0,1.0,1.0
21.05,49.992,1.0,1.0,1.0
21.06,46.504,1.0,1.0,1.0
21.07,35.496,1.0,1.0,1.0
21.08,54.008,1.0,1.0,1.0
21.09,43.008,1.0,1.0,1.0
21.1,59.9841,1.0,1.0,1.0
21.11,56.0,1.0,1.0,1.0
21.12,41.504,1.0,1.0,1.0
21.13,41.0,1.0,1.0,1.0
21.14,60.008,1.0,1.0,1.0
21.15,37.496,1.0,1.0,1.0
21.16,56.504,1.0,1.0,1.0
21.17,51.992,1.0,1.0,1.0
21.18,43.504,1.0,1.0,1.0
21.19,60.0,1.0,1.0,1.0
21.2,56.992,1.0,1.0,1.0
21.21,46.0,1.0,1.0,1.0
21.22,53.504,1.0,1.0,1.0
21.23,74.496,1.0,1.0,1.0
21.24,42.008,1.0,1.0,1.0
21.25,60.496,1.0,1.0,1.0
21.26,53.504,1.0,1.0,1.0
21.27,59.992,1.0,1.0,1.0
21.28,68.5119,1.0,1.0,1.0
21.29,63.496,1.0,1.0,1.0
21.3,61.992,1.0,1.0,1.0
21.31,66.0,1.0,1.0,1.0
21.32,75.008,1.0,1.0,1.0
21.33,65.0,1.0,1.0,1.0
21.34,75.992,1.0,1.0,1.0
21.35,70.504,1.0,1.0,1.0
21.36,51.0,1.0,1.0,1.0
21.37,72.504,1.0,1.0,1.0
21.38,69.496,1.0,1.0,1.0
21.39,67.504,1.0,1.0,1.0
21.4,66.992,1.0,1.0,1.0
21.41,59.0,1.0,1.0,1.0
21.42,87.008,1.0,1.0,1.0
21.43,72.496,1.0,1.0,1.0
21.44,81.0,1.0,1.0,1.0
21.45,93.008,1.0,1.0,1.0
21.46,98.504,1.0,1.0,1.0
21.47,79.496,1.0,1.0,1.0
21.48,87.0,1.0,1.0,1.0
21.49,94.496,1.0,1.0,1.0
21.5,134.496,1.0,1.0,1.0
21.51,112.0,1.0,1.0,1.0
21.52,247.5119,1.0,1.0,1.0
21.53,130.496,1.0,1.0,1.0
21.54,136.496,1.0,1.0,1.0
21.55,136.008,1.0,1.0,1.0
21.56,135.992,1.0,1.0,1.0
21.57,155.0,1.0,1.0,1.0
21.58,145.504,1.0,1.0,1.0
21.59,129.992,1.0,1.0,1.0
21.6,147.008,1.0,1.0,1.0
21.61,122.0,1.0,1.0,1.0
21.62,142.496,1.0,1.0,1.0
21.63,143.992,1.0,1.0,1.0
21.64,124.0239,1.0,1.0,1.0
21.65,137.4881,1.0,1.0,1.0
21.66,139.0,1.0,1.0,1.0
21.67,133.008,1.0,1.0,1.0
21.68,154.0,1.0,1.0,1.0
21.69,125.9841,1.0,1.0,1.0
21.7,122.008,1.0,1.0,1.0
21.71,114.496,1.0,1.0,1.0
21.72,120.504,1.0,1.0,1.0
21.73,97.4881,1.0,1.0,1.0
21.74,107.504,1.0,1.0,1.0
21.75,108.008,1.0,1.0,1.0
21.76,87.496,1.0,1.0,1.0
21.77,96.992,1.0,1.0,1.0
21.78,112.008,1.0,1.0,1.0
21.79,95.008,1.0,1.0,1.0
21.8,108.9841,1.0,1.0,1.0
21.81,104.008,1.0,1.0,1.0
21.82,141.504,1.0,1.0,1.0
21.83,106.496,1.0,1.0,1.0
21.84,117.992,1.0,1.0,1.0
21.85,116.008,1.0,1.0,1.0
21.86,120.0,1.0,1.0,1.0
21.87,103.992,1.0,1.0,1.0
21.88,120.0,1.0,1.0,1.0
21.89,89.0159,1.0,1.0,1.0
21.9,94.992,1.0,1.0,1.0
21.91,147.008,1.0,1.0,1.0
21.92,142.0,1.0,1.0,1.0
21.93,142.0,1.0,1.0,1.0
21.94,152.496,1.0,1.0,1.0
21.95,154.0,1.0,1.0,1.0
21.96,136.0,1.0,1.0,1.0
21.97,161.0,1.0,1.0,1.0
21.98,181.496,1.0,1.0,1.0
21.99,159.5119,1.0,1.0,1.0
22.0,182.0,1.0,1.0,1.0
22.01,188.992,1.0,1.0,1.0
22.02,214.0159,1.0,1.0,1.0
22.03,203.496,1.0,1.0,1.0
22.04,236.496,1.0,1.0,1.0
22.05,205.0,1.0,1.0,1.0
22.06,225.504,1.0,1.0,1.0
22.07,244.0,1.0,1.0,1.0
22.08,217.0,1.0,1.0,1.0
22.09,226.4881,1.0,1.0,1.0
22.1,252.0239,1.0,1.0,1.0
22.11,224.9761,1.0,1.0,1.0
22.12,250.0159,1.0,1.0,1.0
22.13,251.4881,1.0,1.0,1.0
22.14,277.496,1.0,1.0,1.0
22.15,251.008,1.0,1.0,1.0
22.16,259.4881,1.0,1.0,1.0
22.17,260.504,1.0,1.0,1.0
22.18,297.0159,1.0,1.0,1.0
22.19,314.0,1.0,1.0,1.0
22.2,252.4881,1.0,1.0,1.0
22.21,314.0,1.0,1.0,1.0
22.22,354.5199,1.0,1.0,1.0
22.23,336.008,1.0,1.0,1.0
22.24,420.4881,1.0,1.0,1.0
22.25,429.992,1.0,1.0,1.0
22.26,399.504,1.0,1.0,1.0
22.27,443.992,1.0,1.0,1.0
22.28,390.0159,1.0,1.0,1.0
22.29,393.5119,1.0,1.0,1.0
22.3,427.9681,1.0,1.0,1.0
22.31,395.0239,1.0,1.0,1.0
22.32,442.992,1.0,1.0,1.0
22.33,405.504,1.0,1.0,1.0
22.34,438.992,1.0,1.0,1.0
22.35,443.0319,1.0,1.0,1.0
22.36,398.4642,1.0,1.0,1.0
22.37,406.0159,1.0,1.0,1.0
22.38,366.496,1.0,1.0,1.0
22.39,353.4881,1.0,1.0,1.0
22.4,365.4881,1.0,1.0,1.0
22.41,373.5438,1.0,1.0,1.0
22.42,341.4562,1.0,1.0,1.0
22.43,370.5279,1.0,1.0,1.0
22.44,399.4881,1.0,1.0,1.0
22.45,362.5199,1.0,1.0,1.0
22.46,357.4721,1.0,1.0,1.0
22.47,340.5119,1.0,1.0,1.0
22.48,334.0,1.0,1.0,1.0
22.49,299.0,1.0,1.0,1.0
22.5,291.5119,1.0,1.0,1.0
22.51,267.9841,1.0,1.0,1.0
22.52,223.4801,1.0,1.0,1.0
22.53,266.008,1.0,1.0,1.0
22.54,214.504,1.0,1.0,1.0
22.55,208.496,1.0,1.0,1.0
22.56,153.992,1.0,1.0,1.0
22.57,176.5119,1.0,1.0,1.0
22.58,209.992,1.0,1.0,1.0
22.59,162.0,1.0,1.0,1.0
22.6,177.5119,1.0,1.0,1.0
22.61,211.496,1.0,1.0,1.0
22.62,194.992,1.0,1.0,1.0
22.63,208.0,1.0,1.0,1.0
22.64,215.496,1.0,1.0,1.0
22.65,227.0159,1.0,1.0,1.0
22.66,231.4801,1.0,1.0,1.0
22.67,236.0239,1.0,1.0,1.0
22.68,280.0,1.0,1.0,1.0
22.69,264.0,1.0,1.0,1.0
22.7,311.4801,1.0,1.0,1.0
22.71,296.008,1.0,1.0,1.0
22.72,340.5199,1.0,1.0,1.0
22.73,367.9841,1.0,1.0,1.0
22.74,338.5199,1.0,1.0,1.0
22.75,416.504,1.0,1.0,1.0
22.76,418.992,1.0,1.0,1.0
22.77,440.496,1.0,1.0,1.0
22.78,492.008,1.0,1.0,1.0
22.79,509.9841,1.0,1.0,1.0
22.8,547.504,1.0,1.0,1.0
22.81,557.512,1.0,1.0,1.0
22.82,625.0239,1.0,1.0,1.0
22.83,678.512,1.0,1.0,1.0
22.84,718.488,1.0,1.0,1.0
22.85,731.9841,1.0,1.0,1.0
22.86,879.0079,1.0,1.0,1.0
22.87,821.5358,1.0,1.0,1.0
22.88,937.504,1.0,1.0,1.0
22.89,964.9841,1.0,1.0,1.0
22.9,1055.504,1.0,1.0,1.0
22.91,974.4801,1.0,1.0,1.0
22.92,1062.53,1.0,1.0,1.0
22.93,1187.488,1.0,1.0,1.0
22.94,1299.01,1.0,1.0,1.0
22.95,1293.488,1.0,1.0,1.0
22.96,1411.58,1.0,1.0,1.0
22.97,1428.0,1.0,1.0,1.0
22.98,1529.46,1.0,1.0,1.0
22.99,1597.04,1.0,1.0,1.0
23.0,1653.98,1.0,1.0,1.0
23.01,1705.52,1.0,1.0,1.0
23.02,1933.0,1.0,1.0,1.0
23.03,1905.496,1.0,1.0,1.0
23.04,2001.02,1.0,1.0,1.0
23.05,2001.48,1.0,1.0,1.0
23.06,2019.02,1.0,1.0,1.0
23.07,1969.52,1.0,1.0,1.0
23.08,2090.48,1.0,1.0,1.0
23.09,2055.08,1.0,1.0,1.0
23.1,2083.9,1.0,1.0,1.0
23.11,1962.54,1.0,1.0,1.0
23.12,1938.48,1.0,1.0,1.0
23.13,1932.512,1.0,1.0,1.0
23.14,1767.48,1.0,1.0,1.0
23.15,1727.97,1.0,1.0,1.0
23.16,1632.98,1.0,1.0,1.0
23.17,1446.496,1.0,1.0,1.0
23.18,1279.0,1.0,1.0,1.0
23.19,1175.488,1.0,1.0,1.0
23.2,1180.98,1.0,1.0,1.0
23.21,1096.01,1.0,1.0,1.0
23.22,1114.504,1.0,1.0,1.0
23.23,1067.01,1.0,1.0,1.0
23.24,1074.02,1.0,1.0,1.0
23.25,1218.512,1.0,1.0,1.0
23.26,1292.47,1.0,1.0,1.0
23.27,1519.04,1.0,1.0,1.0
23.28,1703.03,1.0,1.0,1.0
23.29,1779.0,1.0,1.0,1.0
23.3,2093.02,1.0,1.0,1.0
23.31,2378.05,1.0,1.0,1.0
23.32,2609.512,1.0,1.0,1.0
23.33,2906.54,1.0,1.0,1.0
23.34,3328.92,1.0,1.0,1.0
23.35,3646.11,1.0,1.0,1.0
23.36,4069.06,1.0,1.0,1.0
23.37,5075.13,1.0,1.0,1.0
23.38,6781.66,1.0,1.0,1.0
23.39,9156.2,1.0,1.0,1.0
23.4,12008.7,1.0,1.0,1.0
23.41,17380.4,1.0,1.0,1.0
23.42,23892.709,1.0,1.0,1.0
23.43,32907.8,1.0,1.0,1.0
23.44,44127.082,1.0,1.0,1.0
23.45,59362,1.0,1.0,1.0
23.46,78621.1,1.0,1.0,1.0
23.47,103508,1.0,1.0,1.0
23.48,137658,1.0,1.0,1.0
23.49,205948,1.0,1.0,1.0
23.5,371857,1.0,1.0,1.0
23.51,915194,1.0,1.0,1.0
23.52,2232400.5,1.0,1.0,1.0
23.53,4031271.5,1.0,1.0,1.0
23.54,3230323.75,1.0,1.0,1.0
23.55,399166,1.0,1.0,1.0
23.56,84117.6,1.0,1.0,1.0
23.57,38107.7,1.0,1.0,1.0
23.58,21819.627,1.0,1.0,1.0
23.59,14232.9,1.0,1.0,1.0
23.6,9897.71,1.0,1.0,1.0
23.61,7700.84,1.0,1.0,1.0
23.62,5782.42,1.0,1.0,1.0
23.63,4475.4,1.0,1.0,1.0
23.64,3507.94,1.0,1.0,1.0
23.65,2848.93,1.0,1.0,1.0
23.66,2296.512,1.0,1.0,1.0
23.67,1877.99,1.0,1.0,1.0
23.68,1679.42,1.0,1.0,1.0
23.69,1359.0,1.0,1.0,1.0
23.7,1168.496,1.0,1.0,1.0
23.71,1006.98,1.0,1.0,1.0
23.72,880.4482,1.0,1.0,1.0
23.73,806.5279,1.0,1.0,1.0
23.74,751.0079,1.0,1.0,1.0
23.75,660.4721,1.0,1.0,1.0
23.76,608.0,1.0,1.0,1.0
23.77,519.0079,1.0,1.0,1.0
23.78,518.488,1.0,1.0,1.0
23.79,447.504,1.0,1.0,1.0
23.8,421.9841,1.0,1.0,1.0
23.81,322.0,1.0,1.0,1.0
23.82,336.504,1.0,1.0,1.0
23.83,322.504,1.0,1.0,1.0
23.84,326.504,1.0,1.0,1.0
23.85,285.9602,1.0,1.0,1.0
23.86,309.0159,1.0,1.0,1.0
23.87,290.0159,1.0,1.0,1.0
23.88,374.0,1.0,1.0,1.0
23.89,321.0,1.0,1.0,1.0
23.9,360.9841,1.0,1.0,1.0
23.91,406.008,1.0,1.0,1.0
23.92,388.0,1.0,1.0,1.0
23.93,412.5119,1.0,1.0,1.0
23.94,377.4881,1.0,1.0,1.0
23.95,439.504,1.0,1.0,1.0
23.96,386.496,1.0,1.0,1.0
23.97,384.5199,1.0,1.0,1.0
23.98,364.9841,1.0,1.0,1.0
23.99,338.008,1.0,1.0,1.0
24.0,276.496,1.0,1.0,1.0
24.01,291.9841,1.0,1.0,1.0
24.02,255.0,1.0,1.0,1.0
24.03,216.504,1.0,1.0,1.0
24.04,224.496,1.0,1.0,1.0
24.05,191.496,1.0,1.0,1.0
24.06,176.504,1.0,1.0,1.0
24.07,144.4881,1.0,1.0,1.0
24.08,160.0159,1.0,1.0,1.0
24.09,144.4881,1.0,1.0,1.0
24.1,116.496,1.0,1.0,1.0
24.11,114.0,1.0,1.0,1.0
24.12,123.504,1.0,1.0,1.0
24.13,103.496,1.0,1.0,1.0
24.14,112.0,1.0,1.0,1.0
24.15,125.0,1.0,1.0,1.0
24.16,103.008,1.0,1.0,1.0
24.17,90.504,1.0,1.0,1.0
24.18,96.992,1.0,1.0,1.0
24.19,90.0,1.0,1.0,1.0
24.2,94.0,1.0,1.0,1.0
24.21,100.504,1.0,1.0,1.0
24.22,82.496,1.0,1.0,1.0
24.23,104.008,1.0,1.0,1.0
24.24,97.496,1.0,1.0,1.0
24.25,73.992,1.0,1.0,1.0
24.26,85.504,1.0,1.0,1.0
24.27,95.008,1.0,1.0,1.0
24.28,93.496,1.0,1.0,1.0
24.29,65.0,1.0,1.0,1.0
24.3,60.4881,1.0,1.0,1.0
24.31,58.0,1.0,1.0,1.0
24.32,74.0,1.0,1.0,1.0
24.33,57.504,1.0,1.0,1.0
24.34,53.496,1.0,1.0,1.0
24.35,70.0,1.0,1.0,1.0
24.36,63.008,1.0,1.0,1.0
24.37,75.0,1.0,1.0,1.0
24.38,53.496,1.0,1.0,1.0
24.39,68.496,1.0,1.0,1.0
24.4,55.504,1.0,1.0,1.0
24.41,71.504,1.0,1.0,1.0
24.42,55.0,1.0,1.0,1.0
24.43,62.992,1.0,1.0,1.0
24.44,72.504,1.0,1.0,1.0
24.45,64.504,1.0,1.0,1.0
24.46,51.0,1.0,1.0,1.0
24.47,51.0,1.0,1.0,1.0
24.48,59.496,1.0,1.0,1.0
24.49,54.496,1.0,1.0,1.0
24.5,50.0,1.0,1.0,1.0
24.51,47.504,1.0,1.0,1.0
24.52,53.504,1.0,1.0,1.0
24.53,37.992,1.0,1.0,1.0
24.54,65.5119,1.0,1.0,1.0
24.55,41.4881,1.0,1.0,1.0
24.56,56.0,1.0,1.0,1.0
24.57,50.008,1.0,1.0,1.0
24.58,72.0,1.0,1.0,1.0
24.59,60.504,1.0,1.0,1.0
24.6,55.496,1.0,1.0,1.0
24.61,42.496,1.0,1.0,1.0
24.62,78.5119,1.0,1.0,1.0
24.63,60.9841,1.0,1.0,1.0
24.64,39.504,1.0,1.0,1.0
24.65,50.0,1.0,1.0,1.0
24.66,73.0,1.0,1.0,1.0
24.67,56.0,1.0,1.0,1.0
24.68,67.5119,1.0,1.0,1.0
24.69,62.9841,1.0,1.0,1.0
24.7,80.5119,1.0,1.0,1.0
24.71,49.4881,1.0,1.0,1.0
24.72,56.008,1.0,1.0,1.0
24.73,74.496,1.0,1.0,1.0
24.74,61.0,1.0,1.0,1.0
24.75,58.496,1.0,1.0,1.0
24.76,67.008,1.0,1.0,1.0
24.77,43.496,1.0,1.0,1.0
24.78,53.0,1.0,1.0,1.0
24.79,55.496,1.0,1.0,1.0
24.8,42.5119,1.0,1.0,1.0
24.81,23.992,1.0,1.0,1.0
24.82,35.0,1.0,1.0,1.0
24.83,44.0,1.0,1.0,1.0
24.84,45.496,1.0,1.0,1.0
24.85,30.008,1.0,1.0,1.0
24.86,44.992,1.0,1.0,1.0
24.87,43.504,1.0,1.0,1.0
24.88,44.496,1.0,1.0,1.0
24.89,35.0,1.0,1.0,1.0
24.9,35.0,1.0,1.0,1.0
24.91,45.0159,1.0,1.0,1.0
24.92,32.9841,1.0,1.0,1.0
24.93,37.504,1.0,1.0,1.0
24.94,48.496,1.0,1.0,1.0
24.95,37.504,1.0,1.0,1.0
24.96,40.496,1.0,1.0,1.0
24.97,30.008,1.0,1.0,1.0
24.98,22.496,1.0,1.0,1.0
24.99,25.0,1.0,1.0,1.0
25.0,23.0,1.0,1.0,1.0
25.01,36.496,1.0,1.0,1.0
25.02,41.0,1.0,1.0,1.0
25.03,44.504,1.0,1.0,1.0
25.04,18.496,1.0,1.0,1.0
25.05,27.0,1.0,1.0,1.0
25.06,50.504,1.0,1.0,1.0
25.07,45.496,1.0,1.0,1.0
25.08,39.504,1.0,1.0,1.0
25.09,40.496,1.0,1.0,1.0
25.1,28.0,1.0,1.0,1.0
25.11,41.008,1.0,1.0,1.0
25.12,38.992,1.0,1.0,1.0
25.13,35.504,1.0,1.0,1.0
25.14,40.496,1.0,1.0,1.0
25.15,30.0,1.0,1.0,1.0
25.16,30.5119,1.0,1.0,1.0
25.17,45.992,1.0,1.0,1.0
25.18,44.504,1.0,1.0,1.0
25.19,53.496,1.0,1.0,1.0
25.2,22.496,1.0,1.0,1.0
25.21,26.504,1.0,1.0,1.0
25.22,36.496,1.0,1.0,1.0
25.23,42.0,1.0,1.0,1.0
25.24,39.0,1.0,1.0,1.0
25.25,33.0,1.0,1.0,1.0
25.26,42.504,1.0,1.0,1.0
25.27,29.496,1.0,1.0,1.0
25.28,17.0,1.0,1.0,1.0
25.29,30.008,1.0,1.0,1.0
25.3,33.504,1.0,1.0,1.0
25.31,42.992,1.0,1.0,1.0
25.32,36.0,1.0,1.0,1.0
25.33,40.504,1.0,1.0,1.0
25.34,29.0,1.0,1.0,1.0
25.35,37.496,1.0,1.0,1.0
25.36,39.496,1.0,1.0,1.0
25.37,18.504,1.0,1.0,1.0
25.38,34.504,1.0,1.0,1.0
25.39,35.992,1.0,1.0,1.0
25.4,32.0,1.0,1.0,1.0
25.41,34.008,1.0,1.0,1.0
25.42,31.992,1.0,1.0,1.0
25.43,25.5119,1.0,1.0,1.0
25.44,35.496,1.0,1.0,1.0
25.45,45.992,1.0,1.0,1.0
25.46,41.504,1.0,1.0,1.0
25.47,30.496,1.0,1.0,1.0
25.48,17.504,1.0,1.0,1.0
25.49,33.496,1.0,1.0,1.0
25.5,21.0,1.0,1.0,1.0
25.51,27.504,1.0,1.0,1.0
25.52,26.504,1.0,1.0,1.0
25.53,40.992,1.0,1.0,1.0
25.54,24.008,1.0,1.0,1.0
25.55,21.992,1.0,1.0,1.0
25.56,22.0,1.0,1.0,1.0
25.57,17.0,1.0,1.0,1.0
25.58,22.008,1.0,1.0,1.0
25.59,34.992,1.0,1.0,1.0
25.6,14.008,1.0,1.0,1.0
25.61,9.992,1.0,1.0,1.0
25.62,21.0,1.0,1.0,1.0
25.63,6.0,1.0,1.0,1.0
25.64,22.0,1.0,1.0,1.0
25.65,18.0,1.0,1.0,1.0
25.66,20.0,1.0,1.0,1.0
25.67,17.504,1.0,1.0,1.0
25.68,30.0,1.0,1.0,1.0
25.69,27.0,1.0,1.0,1.0
25.7,21.496,1.0,1.0,1.0
25.71,14.008,1.0,1.0,1.0
25.72,27.992,1.0,1.0,1.0
25.73,25.008,1.0,1.0,1.0
25.74,18.992,1.0,1.0,1.0
25.75,10.0,1.0,1.0,1.0
25.76,22.504,1.0,1.0,1.0
25.77,16.496,1.0,1.0,1.0
25.78,16.0,1.0,1.0,1.0
25.79,32.0,1.0,1.0,1.0
25.8,16.0,1.0,1.0,1.0
25.81,9.0,1.0,1.0,1.0
25.82,18.0,1.0,1.0,1.0
25.83,28.0,1.0,1.0,1.0
25.84,15.504,1.0,1.0,1.0
25.85,21.496,1.0,1.0,1.0
25.86,29.504,1.0,1.0,1.0
25.87,17.496,1.0,1.0,1.0
25.88,23.0,1.0,1.0,1.0
25.89,34.0,1.0,1.0,1.0
25.9,22.0,1.0,1.0,1.0
25.91,12.0,1.0,1.0,1.0
25.92,18.0,1.0,1.0,1.0
25.93,10.0,1.0,1.0,1.0
25.94,11.0,1.0,1.0,1.0
25.95,21.504,1.0,1.0,1.0
25.96,32.496,1.0,1.0,1.0
25.97,23.0,1.0,1.0,1.0
25.98,17.008,1.0,1.0,1.0
25.99,26.496,1.0,1.0,1.0
26.0,9.496,1.0,1.0,1.0
26.01,22.504,1.0,1.0,1.0
26.02,16.496,1.0,1.0,1.0
26.03,10.504,1.0,1.0,1.0
26.04,15.496,1.0,1.0,1.0
26.05,22.504,1.0,1.0,1.0
26.06,23.0,1.0,1.0,1.0
26.07,22.496,1.0,1.0,1.0
26.08,20.504,1.0,1.0,1.0
26.09,9.496,1.0,1.0,1.0
26.1,13.0,1.0,1.0,1.0
26.11,24.504,1.0,1.0,1.0
26.12,22.0,1.0,1.0,1.0
26.13,17.496,1.0,1.0,1.0
26.14,38.0,1.0,1.0,1.0
26.15,15.0,1.0,1.0,1.0
26.16,21.504,1.0,1.0,1.0
26.17,22.496,1.0,1.0,1.0
26.18,17.0,1.0,1.0,1.0
26.19,18.504,1.0,1.0,1.0
26.2,13.496,1.0,1.0,1.0
26.21,14.504,1.0,1.0,1.0
26.22,13.496,1.0,1.0,1.0
26.23,11.0,1.0,1.0,1.0
26.24,9.0,1.0,1.0,1.0
26.25,23.0,1.0,1.0,1.0
26.26,11.0,1.0,1.0,1.0
26.27,24.0,1.0,1.0,1.0
26.28,26.0,1.0,1.0,1.0
26.29,22.0,1.0,1.0,1.0
26.3,19.0,1.0,1.0,1.0
26.31,23.0,1.0,1.0,1.0
26.32,22.0,1.0,1.0,1.0
26.33,21.504,1.0,1.0,1.0
26.34,5.496,1.0,1.0,1.0
26.35,13.0,1.0,1.0,1.0
26.36,27.0,1.0,1.0,1.0
26.37,20.0,1.0,1.0,1.0
26.38,20.504,1.0,1.0,1.0
26.39,21.496,1.0,1.0,1.0
26.4,20.0,1.0,1.0,1.0
26.41,18.0,1.0,1.0,1.0
26.42,19.504,1.0,1.0,1.0
26.43,27.496,1.0,1.0,1.0
26.44,16.0,1.0,1.0,1.0
26.45,28.504,1.0,1.0,1.0
26.46,16.496,1.0,1.0,1.0
26.47,18.504,1.0,1.0,1.0
26.48,20.496,1.0,1.0,1.0
26.49,11.0,1.0,1.0,1.0
26.5,27.0,1.0,1.0,1.0
26.51,28.0,1.0,1.0,1.0
26.52,14.0,1.0,1.0,1.0
26.53,11.008,1.0,1.0,1.0
26.54,27.496,1.0,1.0,1.0
26.55,24.496,1.0,1.0,1.0
26.56,6.0,1.0,1.0,1.0
26.57,17.504,1.0,1.0,1.0
26.58,18.504,1.0,1.0,1.0
26.59,10.992,1.0,1.0,1.0
26.6,21.0,1.0,1.0,1.0
26.61,12.0,1.0,1.0,1.0
26.62,9.0,1.0,1.0,1.0
26.63,23.0,1.0,1.0,1.0
26.64,18.0,1.0,1.0,1.0
26.65,14.008,1.0,1.0,1.0
26.66,21.992,1.0,1.0,1.0
26.67,17.008,1.0,1.0,1.0
26.68,13.0,1.0,1.0,1.0
26.69,14.496,1.0,1.0,1.0
26.7,21.496,1.0,1.0,1.0
26.71,23.504,1.0,1.0,1.0
26.72,25.496,1.0,1.0,1.0
26.73,21.504,1.0,1.0,1.0
26.74,17.496,1.0,1.0,1.0
26.75,16.0,1.0,1.0,1.0
26.76,18.0,1.0,1.0,1.0
26.77,35.0,1.0,1.0,1.0
26.78,15.0,1.0,1.0,1.0
26.79,14.008,1.0,1.0,1.0
26.8,23.992,1.0,1.0,1.0
26.81,24.0,1.0,1.0,1.0
26.82,27.0,1.0,1.0,1.0
26.83,22.0,1.0,1.0,1.0
26.84,17.008,1.0,1.0,1.0
26.85,22.496,1.0,1.0,1.0
26.86,20.496,1.0,1.0,1.0
26.87,16.0,1.0,1.0,1.0
26.88,16.0,1.0,1.0,1.0
26.89,15.0,1.0,1.0,1.0
26.9,21.0,1.0,1.0,1.0
26.91,23.504,1.0,1.0,1.0
26.92,16.496,1.0,1.0,1.0
26.93,33.008,1.0,1.0,1.0
26.94,20.992,1.0,1.0,1.0
26.95,11.0,1.0,1.0,1.0
26.96,15.0,1.0,1.0,1.0
26.97,21.0,1.0,1.0,1.0
26.98,24.0,1.0,1.0,1.0
26.99,21.504,1.0,1.0,1.0
27.0,30.504,1.0,1.0,1.0
27.01,42.992,1.0,1.0,1.0
27.02,13.0,1.0,1.0,1.0
27.03,23.504,1.0,1.0,1.0
27.04,28.496,1.0,1.0,1.0
27.05,15.0,1.0,1.0,1.0
27.06,23.0,1.0,1.0,1.0
27.07,29.504,1.0,1.0,1.0
27.08,29.496,1.0,1.0,1.0
27.09,13.0,1.0,1.0,1.0
27.1,38.504,1.0,1.0,1.0
27.11,38.496,1.0,1.0,1.0
27.12,24.0,1.0,1.0,1.0
27.13,23.0,1.0,1.0,1.0
27.14,16.0,1.0,1.0,1.0
27.15,21.0,1.0,1.0,1.0
27.16,25.0,1.0,1.0,1.0
27.17,20.0,1.0,1.0,1.0
27.18,19.0,1.0,1.0,1.0
27.19,10.0,1.0,1.0,1.0
27.2,24.0,1.0,1.0,1.0
27.21,30.0,1.0,1.0,1.0
27.22,23.0,1.0,1.0,1.0
27.23,15.0,1.0,1.0,1.0
27.24,22.504,1.0,1.0,1.0
27.25,13.496,1.0,1.0,1.0
27.26,16.0,1.0,1.0,1.0
27.27,12.504,1.0,1.0,1.0
27.28,13.504,1.0,1.0,1.0
27.29,10.992,1.0,1.0,1.0
27.3,10.008,1.0,1.0,1.0
27.31,24.496,1.0,1.0,1.0
27.32,20.496,1.0,1.0,1.0
27.33,19.0,1.0,1.0,1.0
27.34,12.008,1.0,1.0,1.0
27.35,5.992,1.0,1.0,1.0
27.36,9.0,1.0,1.0,1.0
27.37,10.0,1.0,1.0,1.0
27.38,16.0,1.0,1.0,1.0
27.39,22.0,1.0,1.0,1.0
27.4,15.0,1.0,1.0,1.0
27.41,16.0,1.0,1.0,1.0
27.42,31.0,1.0,1.0,1.0
27.43,19.504,1.0,1.0,1.0
27.44,12.496,1.0,1.0,1.0
27.45,16.0,1.0,1.0,1.0
27.46,11.0,1.0,1.0,1.0
27.47,14.0,1.0,1.0,1.0
27.48,13.0,1.0,1.0,1.0
27.49,17.0,1.0,1.0,1.0
27.5,12.0,1.0,1.0,1.0
27.51,21.0,1.0,1.0,1.0
27.52,13.0,1.0,1.0,1.0
27.53,20.0,1.0,1.0,1.0
27.54,8.504,1.0,1.0,1.0
27.55,25.496,1.0,1.0,1.0
27.56,12.0,1.0,1.0,1.0
27.57,12.0,1.0,1.0,1.0
27.58,20.0,1.0,1.0,1.0
27.59,16.0,1.0,1.0,1.0
27.6,21.0,1.0,1.0,1.0
27.61,15.0,1.0,1.0,1.0
27.62,19.504,1.0,1.0,1.0
27.63,22.0,1.0,1.0,1.0
27.64,11.496,1.0,1.0,1.0
27.65,9.0,1.0,1.0,1.0
27.66,18.504,1.0,1.0,1.0
27.67,20.496,1.0,1.0,1.0
27.68,6.504,1.0,1.0,1.0
27.69,7.496,1.0,1.0,1.0
27.7,11.0,1.0,1.0,1.0
27.71,5.0,1.0,1.0,1.0
27.72,10.008,1.0,1.0,1.0
27.73,17.992,1.0,1.0,1.0
27.74,17.0,1.0,1.0,1.0
27.75,6.504,1.0,1.0,1.0
27.76,6.496,1.0,1.0,1.0
27.77,17.0,1.0,1.0,1.0
27.78,16.0,1.0,1.0,1.0
27.79,10.0,1.0,1.0,1.0
27.8,18.0,1.0,1.0,1.0
27.81,8.0,1.0,1.0,1.0
27.82,24.0,1.0,1.0,1.0
27.83,12.0,1.0,1.0,1.0
27.84,16.0,1.0,1.0,1.0
27.85,18.0,1.0,1.0,1.0
27.86,28.0,1.0,1.0,1.0
27.87,20.0,1.0,1.0,1.0
27.88,13.504,1.0,1.0,1.0
27.89,17.496,1.0,1.0,1.0
27.9,6.0,1.0,1.0,1.0
27.91,15.008,1.0,1.0,1.0
27.92,23.992,1.0,1.0,1.0
27.93,16.0,1.0,1.0,1.0
27.94,11.0,1.0,1.0,1.0
27.95,12.0,1.0,1.0,1.0
27.96,16.0,1.0,1.0,1.0
27.97,13.0,1.0,1.0,1.0
27.98,11.0,1.0,1.0,1.0
27.99,16.0,1.0,1.0,1.0
28.0,15.504,1.0,1.0,1.0
28.01,12.504,1.0,1.0,1.0
28.02,10.992,1.0,1.0,1.0
28.03,4.0,1.0,1.0,1.0
28.04,12.0,1.0,1.0,1.0
28.05,9.504,1.0,1.0,1.0
28.06,19.496,1.0,1.0,1.0
28.07,13.0,1.0,1.0,1.0
28.08,20.0,1.0,1.0,1.0
28.09,20.504,1.0,1.0,1.0
28.1,9.008,1.0,1.0,1.0
28.11,17.992,1.0,1.0,1.0
28.12,15.496,1.0,1.0,1.0
28.13,16.008,1.0,1.0,1.0
28.14,12.992,1.0,1.0,1.0
28.15,14.0,1.0,1.0,1.0
28.16,22.504,1.0,1.0,1.0
28.17,10.496,1.0,1.0,1.0
28.18,14.0,1.0,1.0,1.0
28.19,18.0,1.0,1.0,1.0
28.2,16.0,1.0,1.0,1.0
28.21,18.0,1.0,1.0,1.0
28.22,23.0,1.0,1.0,1.0
28.23,17.0,1.0,1.0,1.0
28.24,24.0,1.0,1.0,1.0
28.25,18.0,1.0,1.0,1.0
28.26,12.504,1.0,1.0,1.0
28.27,14.496,1.0,1.0,1.0
28.28,12.504,1.0,1.0,1.0
28.29,24.496,1.0,1.0,1.0
28.3,11.0,1.0,1.0,1.0
28.31,19.0,1.0,1.0,1.0
28.32,24.008,1.0,1.0,1.0
28.33,19.992,1.0,1.0,1.0
28.34,5.0,1.0,1.0,1.0
28.35,22.0,1.0,1.0,1.0
28.36,15.0,1.0,1.0,1.0
28.37,18.0,1.0,1.0,1.0
28.38,9.008,1.0,1.0,1.0
28.39,13.992,1.0,1.0,1.0
28.4,4.0,1.0,1.0,1.0
28.41,10.0,1.0,1.0,1.0
28.42,8.0,1.0,1.0,1.0
28.43,6.0,1.0,1.0,1.0
28.44,2.0,1.0,1.0,1.0
28.45,13.504,1.0,1.0,1.0
28.46,9.496,1.0,1.0,1.0
28.47,17.0,1.0,1.0,1.0
28.48,8.504,1.0,1.0,1.0
28.49,14.496,1.0,1.0,1.0
28.5,5.0,1.0,1.0,1.0
28.51,13.0,1.0,1.0,1.0
28.52,18.0,1.0,1.0,1.0
28.53,11.0,1.0,1.0,1.0
28.54,19.0,1.0,1.0,1.0
28.55,10.0,1.0,1.0,1.0
28.56,9.0,1.0,1.0,1.0
28.57,23.0,1.0,1.0,1.0
28.58,25.0,1.0,1.0,1.0
28.59,4.0,1.0,1.0,1.0
28.6,25.0,1.0,1.0,1.0
28.61,20.0,1.0,1.0,1.0
28.62,12.0,1.0,1.0,1.0
28.63,11.504,1.0,1.0,1.0
28.64,5.496,1.0,1.0,1.0
28.65,15.504,1.0,1.0,1.0
28.66,17.496,1.0,1.0,1.0
28.67,12.0,1.0,1.0,1.0
28.68,17.0,1.0,1.0,1.0
28.69,16.0,1.0,1.0,1.0
28.7,11.0,1.0,1.0,1.0
28.71,17.0,1.0,1.0,1.0
28.72,8.0,1.0,1.0,1.0
28.73,10.0,1.0,1.0,1.0
28.74,24.504,1.0,1.0,1.0
28.75,19.496,1.0,1.0,1.0
28.76,13.504,1.0,1.0,1.0
28.77,27.496,1.0,1.0,1.0
28.78,12.0,1.0,1.0,1.0
28.79,16.0,1.0,1.0,1.0
28.8,7.0,1.0,1.0,1.0
28.81,14.0,1.0,1.0,1.0
28.82,16.0,1.0,1.0,1.0
28.83,28.0,1.0,1.0,1.0
28.84,22.0,1.0,1.0,1.0
28.85,11.0,1.0,1.0,1.0
28.86,12.504,1.0,1.0,1.0
28.87,22.496,1.0,1.0,1.0
28.88,12.504,1.0,1.0,1.0
28.89,16.0,1.0,1.0,1.0
28.9,17.496,1.0,1.0,1.0
28.91,23.0,1.0,1.0,1.0
28.92,6.0,1.0,1.0,1.0
28.93,10.0,1.0,1.0,1.0
28.94,13.0,1.0,1.0,1.0
28.95,17.0,1.0,1.0,1.0
28.96,7.504,1.0,1.0,1.0
28.97,25.496,1.0,1.0,1.0
28.98,8.0,1.0,1.0,1.0
28.99,18.0,1.0,1.0,1.0
29.0,12.504,1.0,1.0,1.0