File: XRD:XRR/SCO/22164_SL(CO)L/22164_SL(CO)L_002_XRD.csv
#twotheta, yobs, ycal, bkg, diff
40.0,36.5278,1.0,1.0,1.0
40.01,36.0,1.0,1.0,1.0
40.02,24.0,1.0,1.0,1.0
40.03,35.0,1.0,1.0,1.0
40.04,39.9889,1.0,1.0,1.0
40.05,22.5056,1.0,1.0,1.0
40.06,32.0,1.0,1.0,1.0
40.07,28.4944,1.0,1.0,1.0
40.08,43.5056,1.0,1.0,1.0
40.09,24.4944,1.0,1.0,1.0
40.1,37.0111,1.0,1.0,1.0
40.11,23.4944,1.0,1.0,1.0
40.12,47.4944,1.0,1.0,1.0
40.13,29.5056,1.0,1.0,1.0
40.14,31.5056,1.0,1.0,1.0
40.15,30.4944,1.0,1.0,1.0
40.16,35.5056,1.0,1.0,1.0
40.17,33.4944,1.0,1.0,1.0
40.18,33.4944,1.0,1.0,1.0
40.19,28.0,1.0,1.0,1.0
40.2,31.5056,1.0,1.0,1.0
40.21,22.5056,1.0,1.0,1.0
40.22,39.9889,1.0,1.0,1.0
40.23,29.0111,1.0,1.0,1.0
40.24,28.4944,1.0,1.0,1.0
40.25,40.5056,1.0,1.0,1.0
40.26,31.0,1.0,1.0,1.0
40.27,35.9889,1.0,1.0,1.0
40.28,23.0111,1.0,1.0,1.0
40.29,30.4944,1.0,1.0,1.0
40.3,30.5056,1.0,1.0,1.0
40.31,33.0,1.0,1.0,1.0
40.32,29.9889,1.0,1.0,1.0
40.33,34.0111,1.0,1.0,1.0
40.34,26.0,1.0,1.0,1.0
40.35,27.0,1.0,1.0,1.0
40.36,15.0,1.0,1.0,1.0
40.37,32.0,1.0,1.0,1.0
40.38,43.4944,1.0,1.0,1.0
40.39,39.0,1.0,1.0,1.0
40.4,32.4944,1.0,1.0,1.0
40.41,40.5056,1.0,1.0,1.0
40.42,36.0,1.0,1.0,1.0
40.43,38.0,1.0,1.0,1.0
40.44,28.5056,1.0,1.0,1.0
40.45,23.0,1.0,1.0,1.0
40.46,43.4833,1.0,1.0,1.0
40.47,39.5167,1.0,1.0,1.0
40.48,24.4944,1.0,1.0,1.0
40.49,21.5056,1.0,1.0,1.0
40.5,33.4944,1.0,1.0,1.0
40.51,24.5056,1.0,1.0,1.0
40.52,51.0,1.0,1.0,1.0
40.53,26.9889,1.0,1.0,1.0
40.54,40.0,1.0,1.0,1.0
40.55,45.0111,1.0,1.0,1.0
40.56,34.0,1.0,1.0,1.0
40.57,29.0,1.0,1.0,1.0
40.58,26.0,1.0,1.0,1.0
40.59,32.4944,1.0,1.0,1.0
40.6,26.0,1.0,1.0,1.0
40.61,33.5056,1.0,1.0,1.0
40.62,24.4944,1.0,1.0,1.0
40.63,29.5056,1.0,1.0,1.0
40.64,38.4944,1.0,1.0,1.0
40.65,34.5056,1.0,1.0,1.0
40.66,30.0,1.0,1.0,1.0
40.67,20.4944,1.0,1.0,1.0
40.68,19.0,1.0,1.0,1.0
40.69,32.0,1.0,1.0,1.0
40.7,21.0,1.0,1.0,1.0
40.71,18.0,1.0,1.0,1.0
40.72,24.0,1.0,1.0,1.0
40.73,43.0,1.0,1.0,1.0
40.74,32.5056,1.0,1.0,1.0
40.75,25.0,1.0,1.0,1.0
40.76,26.4944,1.0,1.0,1.0
40.77,33.5056,1.0,1.0,1.0
40.78,16.0,1.0,1.0,1.0
40.79,40.4944,1.0,1.0,1.0
40.8,18.0,1.0,1.0,1.0
40.81,35.4944,1.0,1.0,1.0
40.82,45.0111,1.0,1.0,1.0
40.83,32.9889,1.0,1.0,1.0
40.84,35.0111,1.0,1.0,1.0
40.85,22.0,1.0,1.0,1.0
40.86,37.4944,1.0,1.0,1.0
40.87,26.5056,1.0,1.0,1.0
40.88,32.4944,1.0,1.0,1.0
40.89,37.5056,1.0,1.0,1.0
40.9,20.0,1.0,1.0,1.0
40.91,34.0,1.0,1.0,1.0
40.92,40.0,1.0,1.0,1.0
40.93,24.9889,1.0,1.0,1.0
40.94,38.0111,1.0,1.0,1.0
40.95,19.0,1.0,1.0,1.0
40.96,35.4944,1.0,1.0,1.0
40.97,31.4944,1.0,1.0,1.0
40.98,20.0111,1.0,1.0,1.0
40.99,25.9889,1.0,1.0,1.0
41.0,32.0,1.0,1.0,1.0
41.01,24.0111,1.0,1.0,1.0
41.02,37.0,1.0,1.0,1.0
41.03,39.4944,1.0,1.0,1.0
41.04,41.4944,1.0,1.0,1.0
41.05,23.5056,1.0,1.0,1.0
41.06,37.5056,1.0,1.0,1.0
41.07,41.0,1.0,1.0,1.0
41.08,40.9889,1.0,1.0,1.0
41.09,19.0111,1.0,1.0,1.0
41.1,27.0,1.0,1.0,1.0
41.11,42.0,1.0,1.0,1.0
41.12,28.9889,1.0,1.0,1.0
41.13,44.0111,1.0,1.0,1.0
41.14,43.0,1.0,1.0,1.0
41.15,32.0,1.0,1.0,1.0
41.16,46.0,1.0,1.0,1.0
41.17,15.4944,1.0,1.0,1.0
41.18,34.5056,1.0,1.0,1.0
41.19,27.4944,1.0,1.0,1.0
41.2,32.4944,1.0,1.0,1.0
41.21,35.0111,1.0,1.0,1.0
41.22,29.0,1.0,1.0,1.0
41.23,22.0,1.0,1.0,1.0
41.24,42.0,1.0,1.0,1.0
41.25,37.4944,1.0,1.0,1.0
41.26,22.5056,1.0,1.0,1.0
41.27,22.4944,1.0,1.0,1.0
41.28,42.5056,1.0,1.0,1.0
41.29,28.0,1.0,1.0,1.0
41.3,30.0,1.0,1.0,1.0
41.31,52.0,1.0,1.0,1.0
41.32,35.9889,1.0,1.0,1.0
41.33,28.5056,1.0,1.0,1.0
41.34,29.5056,1.0,1.0,1.0
41.35,38.4833,1.0,1.0,1.0
41.36,37.0111,1.0,1.0,1.0
41.37,33.9889,1.0,1.0,1.0
41.38,43.0111,1.0,1.0,1.0
41.39,34.5056,1.0,1.0,1.0
41.4,40.9889,1.0,1.0,1.0
41.41,39.0111,1.0,1.0,1.0
41.42,25.9889,1.0,1.0,1.0
41.43,36.0111,1.0,1.0,1.0
41.44,33.0,1.0,1.0,1.0
41.45,44.0,1.0,1.0,1.0
41.46,31.4944,1.0,1.0,1.0
41.47,38.5056,1.0,1.0,1.0
41.48,42.0,1.0,1.0,1.0
41.49,38.4944,1.0,1.0,1.0
41.5,36.5056,1.0,1.0,1.0
41.51,36.0,1.0,1.0,1.0
41.52,36.4944,1.0,1.0,1.0
41.53,51.0,1.0,1.0,1.0
41.54,20.0,1.0,1.0,1.0
41.55,39.0,1.0,1.0,1.0
41.56,32.5056,1.0,1.0,1.0
41.57,33.4944,1.0,1.0,1.0
41.58,30.5056,1.0,1.0,1.0
41.59,48.0,1.0,1.0,1.0
41.6,30.0,1.0,1.0,1.0
41.61,43.4944,1.0,1.0,1.0
41.62,33.5056,1.0,1.0,1.0
41.63,37.0,1.0,1.0,1.0
41.64,37.4944,1.0,1.0,1.0
41.65,26.5056,1.0,1.0,1.0
41.66,44.0,1.0,1.0,1.0
41.67,21.0,1.0,1.0,1.0
41.68,44.4944,1.0,1.0,1.0
41.69,32.5056,1.0,1.0,1.0
41.7,32.4944,1.0,1.0,1.0
41.71,40.0,1.0,1.0,1.0
41.72,42.4944,1.0,1.0,1.0
41.73,21.0111,1.0,1.0,1.0
41.74,45.0,1.0,1.0,1.0
41.75,35.4944,1.0,1.0,1.0
41.76,29.4833,1.0,1.0,1.0
41.77,19.0222,1.0,1.0,1.0
41.78,49.9889,1.0,1.0,1.0
41.79,55.5056,1.0,1.0,1.0
41.8,38.4944,1.0,1.0,1.0
41.81,31.0,1.0,1.0,1.0
41.82,34.0111,1.0,1.0,1.0
41.83,33.0,1.0,1.0,1.0
41.84,30.4944,1.0,1.0,1.0
41.85,34.5056,1.0,1.0,1.0
41.86,41.4944,1.0,1.0,1.0
41.87,29.5056,1.0,1.0,1.0
41.88,37.9889,1.0,1.0,1.0
41.89,24.0111,1.0,1.0,1.0
41.9,23.0,1.0,1.0,1.0
41.91,51.0,1.0,1.0,1.0
41.92,32.0,1.0,1.0,1.0
41.93,32.0,1.0,1.0,1.0
41.94,30.9889,1.0,1.0,1.0
41.95,38.0111,1.0,1.0,1.0
41.96,32.0,1.0,1.0,1.0
41.97,46.4944,1.0,1.0,1.0
41.98,38.5056,1.0,1.0,1.0
41.99,35.4944,1.0,1.0,1.0
42.0,42.0,1.0,1.0,1.0
42.01,39.0,1.0,1.0,1.0
42.02,31.0,1.0,1.0,1.0
42.03,25.5056,1.0,1.0,1.0
42.04,26.4944,1.0,1.0,1.0
42.05,34.0,1.0,1.0,1.0
42.06,51.9889,1.0,1.0,1.0
42.07,41.5167,1.0,1.0,1.0
42.08,33.4944,1.0,1.0,1.0
42.09,30.5056,1.0,1.0,1.0
42.1,28.4944,1.0,1.0,1.0
42.11,42.0,1.0,1.0,1.0
42.12,35.5056,1.0,1.0,1.0
42.13,19.0,1.0,1.0,1.0
42.14,26.0,1.0,1.0,1.0
42.15,32.9889,1.0,1.0,1.0
42.16,36.0111,1.0,1.0,1.0
42.17,32.0,1.0,1.0,1.0
42.18,38.0,1.0,1.0,1.0
42.19,43.0,1.0,1.0,1.0
42.2,29.4944,1.0,1.0,1.0
42.21,44.5056,1.0,1.0,1.0
42.22,41.0,1.0,1.0,1.0
42.23,38.4944,1.0,1.0,1.0
42.24,50.5056,1.0,1.0,1.0
42.25,31.0,1.0,1.0,1.0
42.26,47.0,1.0,1.0,1.0
42.27,27.4944,1.0,1.0,1.0
42.28,44.0,1.0,1.0,1.0
42.29,39.5056,1.0,1.0,1.0
42.3,29.9889,1.0,1.0,1.0
42.31,46.0111,1.0,1.0,1.0
42.32,32.0,1.0,1.0,1.0
42.33,20.0,1.0,1.0,1.0
42.34,32.0,1.0,1.0,1.0
42.35,31.0,1.0,1.0,1.0
42.36,47.4944,1.0,1.0,1.0
42.37,21.5056,1.0,1.0,1.0
42.38,31.0,1.0,1.0,1.0
42.39,15.4833,1.0,1.0,1.0
42.4,62.0111,1.0,1.0,1.0
42.41,33.4944,1.0,1.0,1.0
42.42,43.4944,1.0,1.0,1.0
42.43,45.5167,1.0,1.0,1.0
42.44,32.0,1.0,1.0,1.0
42.45,38.4944,1.0,1.0,1.0
42.46,46.5056,1.0,1.0,1.0
42.47,37.0,1.0,1.0,1.0
42.48,40.4944,1.0,1.0,1.0
42.49,39.0,1.0,1.0,1.0
42.5,42.4944,1.0,1.0,1.0
42.51,53.0111,1.0,1.0,1.0
42.52,46.4833,1.0,1.0,1.0
42.53,52.0111,1.0,1.0,1.0
42.54,28.4944,1.0,1.0,1.0
42.55,29.0111,1.0,1.0,1.0
42.56,39.9778,1.0,1.0,1.0
42.57,55.0111,1.0,1.0,1.0
42.58,49.0111,1.0,1.0,1.0
42.59,40.0,1.0,1.0,1.0
42.6,48.0,1.0,1.0,1.0
42.61,41.0,1.0,1.0,1.0
42.62,47.4944,1.0,1.0,1.0
42.63,46.9889,1.0,1.0,1.0
42.64,39.0111,1.0,1.0,1.0
42.65,51.0,1.0,1.0,1.0
42.66,61.9889,1.0,1.0,1.0
42.67,42.0111,1.0,1.0,1.0
42.68,53.0,1.0,1.0,1.0
42.69,49.9889,1.0,1.0,1.0
42.7,33.0111,1.0,1.0,1.0
42.71,63.5056,1.0,1.0,1.0
42.72,49.0,1.0,1.0,1.0
42.73,39.4944,1.0,1.0,1.0
42.74,40.5056,1.0,1.0,1.0
42.75,43.0,1.0,1.0,1.0
42.76,33.4944,1.0,1.0,1.0
42.77,51.4944,1.0,1.0,1.0
42.78,51.0111,1.0,1.0,1.0
42.79,34.4944,1.0,1.0,1.0
42.8,42.5056,1.0,1.0,1.0
42.81,38.0,1.0,1.0,1.0
42.82,53.9889,1.0,1.0,1.0
42.83,42.5056,1.0,1.0,1.0
42.84,43.0,1.0,1.0,1.0
42.85,64.4944,1.0,1.0,1.0
42.86,46.0,1.0,1.0,1.0
42.87,41.9889,1.0,1.0,1.0
42.88,50.5167,1.0,1.0,1.0
42.89,37.4944,1.0,1.0,1.0
42.9,35.0111,1.0,1.0,1.0
42.91,56.4944,1.0,1.0,1.0
42.92,51.4944,1.0,1.0,1.0
42.93,30.0,1.0,1.0,1.0
42.94,39.5056,1.0,1.0,1.0
42.95,38.0,1.0,1.0,1.0
42.96,43.5056,1.0,1.0,1.0
42.97,38.0,1.0,1.0,1.0
42.98,25.4944,1.0,1.0,1.0
42.99,36.0,1.0,1.0,1.0
43.0,33.5056,1.0,1.0,1.0
43.01,28.0,1.0,1.0,1.0
43.02,35.0,1.0,1.0,1.0
43.03,18.9889,1.0,1.0,1.0
43.04,51.0111,1.0,1.0,1.0
43.05,39.0,1.0,1.0,1.0
43.06,44.4944,1.0,1.0,1.0
43.07,34.0,1.0,1.0,1.0
43.08,26.0,1.0,1.0,1.0
43.09,40.4944,1.0,1.0,1.0
43.1,46.5056,1.0,1.0,1.0
43.11,52.5056,1.0,1.0,1.0
43.12,40.4944,1.0,1.0,1.0
43.13,34.4944,1.0,1.0,1.0
43.14,19.0111,1.0,1.0,1.0
43.15,22.0,1.0,1.0,1.0
43.16,41.0,1.0,1.0,1.0
43.17,31.9889,1.0,1.0,1.0
43.18,40.0111,1.0,1.0,1.0
43.19,32.4944,1.0,1.0,1.0
43.2,25.5056,1.0,1.0,1.0
43.21,31.0,1.0,1.0,1.0
43.22,60.0,1.0,1.0,1.0
43.23,38.0,1.0,1.0,1.0
43.24,48.0,1.0,1.0,1.0
43.25,40.0,1.0,1.0,1.0
43.26,35.0,1.0,1.0,1.0
43.27,39.0,1.0,1.0,1.0
43.28,20.9889,1.0,1.0,1.0
43.29,16.0111,1.0,1.0,1.0
43.3,31.0,1.0,1.0,1.0
43.31,20.0,1.0,1.0,1.0
43.32,41.4944,1.0,1.0,1.0
43.33,39.5056,1.0,1.0,1.0
43.34,37.4944,1.0,1.0,1.0
43.35,35.4944,1.0,1.0,1.0
43.36,27.5056,1.0,1.0,1.0
43.37,29.9889,1.0,1.0,1.0
43.38,46.0111,1.0,1.0,1.0
43.39,51.5056,1.0,1.0,1.0
43.4,36.0,1.0,1.0,1.0
43.41,39.0,1.0,1.0,1.0
43.42,56.9889,1.0,1.0,1.0
43.43,44.5056,1.0,1.0,1.0
43.44,40.4944,1.0,1.0,1.0
43.45,35.0111,1.0,1.0,1.0
43.46,24.4944,1.0,1.0,1.0
43.47,31.5056,1.0,1.0,1.0
43.48,40.4944,1.0,1.0,1.0
43.49,28.0,1.0,1.0,1.0
43.5,31.4944,1.0,1.0,1.0
43.51,39.0111,1.0,1.0,1.0
43.52,45.4944,1.0,1.0,1.0
43.53,46.4944,1.0,1.0,1.0
43.54,45.5056,1.0,1.0,1.0
43.55,36.0,1.0,1.0,1.0
43.56,23.5056,1.0,1.0,1.0
43.57,34.4944,1.0,1.0,1.0
43.58,41.5056,1.0,1.0,1.0
43.59,31.4944,1.0,1.0,1.0
43.6,29.5056,1.0,1.0,1.0
43.61,49.0,1.0,1.0,1.0
43.62,36.4944,1.0,1.0,1.0
43.63,60.5056,1.0,1.0,1.0
43.64,46.0,1.0,1.0,1.0
43.65,39.0,1.0,1.0,1.0
43.66,36.4944,1.0,1.0,1.0
43.67,52.5056,1.0,1.0,1.0
43.68,41.0,1.0,1.0,1.0
43.69,50.0,1.0,1.0,1.0
43.7,46.4944,1.0,1.0,1.0
43.71,42.4944,1.0,1.0,1.0
43.72,59.0,1.0,1.0,1.0
43.73,34.5056,1.0,1.0,1.0
43.74,50.5056,1.0,1.0,1.0
43.75,23.0,1.0,1.0,1.0
43.76,39.9889,1.0,1.0,1.0
43.77,75.5056,1.0,1.0,1.0
43.78,38.5056,1.0,1.0,1.0
43.79,58.4944,1.0,1.0,1.0
43.8,49.4944,1.0,1.0,1.0
43.81,50.0,1.0,1.0,1.0
43.82,56.0,1.0,1.0,1.0
43.83,47.0,1.0,1.0,1.0
43.84,58.5056,1.0,1.0,1.0
43.85,51.5056,1.0,1.0,1.0
43.86,72.9889,1.0,1.0,1.0
43.87,55.5056,1.0,1.0,1.0
43.88,64.0,1.0,1.0,1.0
43.89,39.0,1.0,1.0,1.0
43.9,57.5056,1.0,1.0,1.0
43.91,55.0,1.0,1.0,1.0
43.92,71.9889,1.0,1.0,1.0
43.93,62.4944,1.0,1.0,1.0
43.94,75.5056,1.0,1.0,1.0
43.95,66.0111,1.0,1.0,1.0
43.96,73.0,1.0,1.0,1.0
43.97,74.4944,1.0,1.0,1.0
43.98,64.0,1.0,1.0,1.0
43.99,78.5056,1.0,1.0,1.0
44.0,89.9778,1.0,1.0,1.0
44.01,135.0111,1.0,1.0,1.0
44.02,97.0111,1.0,1.0,1.0
44.03,109.0,1.0,1.0,1.0
44.04,105.4833,1.0,1.0,1.0
44.05,109.0,1.0,1.0,1.0
44.06,109.5167,1.0,1.0,1.0
44.07,102.9889,1.0,1.0,1.0
44.08,92.0,1.0,1.0,1.0
44.09,69.4944,1.0,1.0,1.0
44.1,77.0,1.0,1.0,1.0
44.11,74.5167,1.0,1.0,1.0
44.12,88.4944,1.0,1.0,1.0
44.13,75.0,1.0,1.0,1.0
44.14,70.5056,1.0,1.0,1.0
44.15,80.4833,1.0,1.0,1.0
44.16,69.5056,1.0,1.0,1.0
44.17,92.0,1.0,1.0,1.0
44.18,78.0,1.0,1.0,1.0
44.19,82.4944,1.0,1.0,1.0
44.2,97.0,1.0,1.0,1.0
44.21,88.5056,1.0,1.0,1.0
44.22,98.0111,1.0,1.0,1.0
44.23,68.9889,1.0,1.0,1.0
44.24,82.4944,1.0,1.0,1.0
44.25,103.5167,1.0,1.0,1.0
44.26,108.9889,1.0,1.0,1.0
44.27,86.4944,1.0,1.0,1.0
44.28,110.0111,1.0,1.0,1.0
44.29,131.9889,1.0,1.0,1.0
44.3,111.0111,1.0,1.0,1.0
44.31,114.4944,1.0,1.0,1.0
44.32,138.4944,1.0,1.0,1.0
44.33,98.5167,1.0,1.0,1.0
44.34,109.9778,1.0,1.0,1.0
44.35,139.5056,1.0,1.0,1.0
44.36,135.5056,1.0,1.0,1.0
44.37,146.9778,1.0,1.0,1.0
44.38,161.5278,1.0,1.0,1.0
44.39,159.9667,1.0,1.0,1.0
44.4,165.0333,1.0,1.0,1.0
44.41,174.4722,1.0,1.0,1.0
44.42,184.5167,1.0,1.0,1.0
44.43,175.0,1.0,1.0,1.0
44.44,224.4833,1.0,1.0,1.0
44.45,208.0111,1.0,1.0,1.0
44.46,183.4944,1.0,1.0,1.0
44.47,192.9889,1.0,1.0,1.0
44.48,230.5167,1.0,1.0,1.0
44.49,199.5167,1.0,1.0,1.0
44.5,220.4944,1.0,1.0,1.0
44.51,245.4833,1.0,1.0,1.0
44.52,268.5167,1.0,1.0,1.0
44.53,267.0,1.0,1.0,1.0
44.54,261.9556,1.0,1.0,1.0
44.55,274.5389,1.0,1.0,1.0
44.56,267.4944,1.0,1.0,1.0
44.57,265.9778,1.0,1.0,1.0
44.58,293.4833,1.0,1.0,1.0
44.59,339.0111,1.0,1.0,1.0
44.6,280.9667,1.0,1.0,1.0
44.61,281.0667,1.0,1.0,1.0
44.62,305.45,1.0,1.0,1.0
44.63,279.0333,1.0,1.0,1.0
44.64,314.0111,1.0,1.0,1.0
44.65,308.9778,1.0,1.0,1.0
44.66,292.5167,1.0,1.0,1.0
44.67,285.9778,1.0,1.0,1.0
44.68,300.5389,1.0,1.0,1.0
44.69,267.9889,1.0,1.0,1.0
44.7,308.4722,1.0,1.0,1.0
44.71,260.0111,1.0,1.0,1.0
44.72,308.5056,1.0,1.0,1.0
44.73,284.4944,1.0,1.0,1.0
44.74,277.9667,1.0,1.0,1.0
44.75,296.55,1.0,1.0,1.0
44.76,245.4833,1.0,1.0,1.0
44.77,279.4833,1.0,1.0,1.0
44.78,279.5167,1.0,1.0,1.0
44.79,266.4944,1.0,1.0,1.0
44.8,226.0222,1.0,1.0,1.0
44.81,234.9889,1.0,1.0,1.0
44.82,279.5056,1.0,1.0,1.0
44.83,211.0,1.0,1.0,1.0
44.84,236.0111,1.0,1.0,1.0
44.85,162.9889,1.0,1.0,1.0
44.86,222.0111,1.0,1.0,1.0
44.87,227.5056,1.0,1.0,1.0
44.88,216.4833,1.0,1.0,1.0
44.89,197.0111,1.0,1.0,1.0
44.9,184.0,1.0,1.0,1.0
44.91,192.9778,1.0,1.0,1.0
44.92,180.0222,1.0,1.0,1.0
44.93,191.4833,1.0,1.0,1.0
44.94,208.0111,1.0,1.0,1.0
44.95,189.0,1.0,1.0,1.0
44.96,191.5167,1.0,1.0,1.0
44.97,161.9889,1.0,1.0,1.0
44.98,170.4944,1.0,1.0,1.0
44.99,186.9889,1.0,1.0,1.0
45.0,181.0111,1.0,1.0,1.0
45.01,168.0,1.0,1.0,1.0
45.02,195.5056,1.0,1.0,1.0
45.03,182.0111,1.0,1.0,1.0
45.04,190.4833,1.0,1.0,1.0
45.05,177.5056,1.0,1.0,1.0
45.06,187.5056,1.0,1.0,1.0
45.07,213.9889,1.0,1.0,1.0
45.08,240.4944,1.0,1.0,1.0
45.09,275.9889,1.0,1.0,1.0
45.1,279.5167,1.0,1.0,1.0
45.11,269.4833,1.0,1.0,1.0
45.12,282.5278,1.0,1.0,1.0
45.13,317.4611,1.0,1.0,1.0
45.14,358.0222,1.0,1.0,1.0
45.15,402.9778,1.0,1.0,1.0
45.16,404.5056,1.0,1.0,1.0
45.17,394.0111,1.0,1.0,1.0
45.18,517.9889,1.0,1.0,1.0
45.19,602.0,1.0,1.0,1.0
45.2,586.4722,1.0,1.0,1.0
45.21,622.5167,1.0,1.0,1.0
45.22,654.9667,1.0,1.0,1.0
45.23,748.9889,1.0,1.0,1.0
45.24,794.5389,1.0,1.0,1.0
45.25,769.4722,1.0,1.0,1.0
45.26,852.9889,1.0,1.0,1.0
45.27,921.9667,1.0,1.0,1.0
45.28,961.0333,1.0,1.0,1.0
45.29,969.0,1.0,1.0,1.0
45.3,1082.02,1.0,1.0,1.0
45.31,1110.46,1.0,1.0,1.0
45.32,1196.47,1.0,1.0,1.0
45.33,1286.01,1.0,1.0,1.0
45.34,1326.01,1.0,1.0,1.0
45.35,1354.51,1.0,1.0,1.0
45.36,1307.92,1.0,1.0,1.0
45.37,1430.02,1.0,1.0,1.0
45.38,1485.51,1.0,1.0,1.0
45.39,1514.02,1.0,1.0,1.0
45.4,1545.44,1.0,1.0,1.0
45.41,1595.53,1.0,1.0,1.0
45.42,1650.51,1.0,1.0,1.0
45.43,1734.53,1.0,1.0,1.0
45.44,1710.42,1.0,1.0,1.0
45.45,1714.0,1.0,1.0,1.0
45.46,1792.61,1.0,1.0,1.0
45.47,1784.44,1.0,1.0,1.0
45.48,1815.41,1.0,1.0,1.0
45.49,1800.14,1.0,1.0,1.0
45.5,1783.43,1.0,1.0,1.0
45.51,1753.03,1.0,1.0,1.0
45.52,1844.89,1.0,1.0,1.0
45.53,1804.12,1.0,1.0,1.0
45.54,1786.98,1.0,1.0,1.0
45.55,1705.49,1.0,1.0,1.0
45.56,1704.99,1.0,1.0,1.0
45.57,1772.02,1.0,1.0,1.0
45.58,1686.49,1.0,1.0,1.0
45.59,1712.45,1.0,1.0,1.0
45.6,1697.55,1.0,1.0,1.0
45.61,1720.0,1.0,1.0,1.0
45.62,1767.47,1.0,1.0,1.0
45.63,1731.03,1.0,1.0,1.0
45.64,1702.01,1.0,1.0,1.0
45.65,1695.97,1.0,1.0,1.0
45.66,1752.07,1.0,1.0,1.0
45.67,1703.49,1.0,1.0,1.0
45.68,1703.92,1.0,1.0,1.0
45.69,1726.0,1.0,1.0,1.0
45.7,1615.02,1.0,1.0,1.0
45.71,1659.01,1.0,1.0,1.0
45.72,1588.02,1.0,1.0,1.0
45.73,1530.0,1.0,1.0,1.0
45.74,1444.46,1.0,1.0,1.0
45.75,1488.53,1.0,1.0,1.0
45.76,1429.02,1.0,1.0,1.0
45.77,1351.54,1.0,1.0,1.0
45.78,1380.43,1.0,1.0,1.0
45.79,1196.03,1.0,1.0,1.0
45.8,1203.0,1.0,1.0,1.0
45.81,1130.54,1.0,1.0,1.0
45.82,1074.46,1.0,1.0,1.0
45.83,973.55,1.0,1.0,1.0
45.84,965.5278,1.0,1.0,1.0
45.85,876.9778,1.0,1.0,1.0
45.86,810.4944,1.0,1.0,1.0
45.87,785.4833,1.0,1.0,1.0
45.88,749.5167,1.0,1.0,1.0
45.89,720.0111,1.0,1.0,1.0
45.9,632.5056,1.0,1.0,1.0
45.91,637.5167,1.0,1.0,1.0
45.92,669.4833,1.0,1.0,1.0
45.93,611.5389,1.0,1.0,1.0
45.94,665.4722,1.0,1.0,1.0
45.95,599.5056,1.0,1.0,1.0
45.96,669.5278,1.0,1.0,1.0
45.97,645.9445,1.0,1.0,1.0
45.98,703.5389,1.0,1.0,1.0
45.99,725.4944,1.0,1.0,1.0
46.0,801.9667,1.0,1.0,1.0
46.01,812.0,1.0,1.0,1.0
46.02,886.4944,1.0,1.0,1.0
46.03,972.9556,1.0,1.0,1.0
46.04,1059.54,1.0,1.0,1.0
46.05,1140.48,1.0,1.0,1.0
46.06,1221.97,1.0,1.0,1.0
46.07,1316.96,1.0,1.0,1.0
46.08,1493.52,1.0,1.0,1.0
46.09,1585.97,1.0,1.0,1.0
46.1,1733.01,1.0,1.0,1.0
46.11,1958.98,1.0,1.0,1.0
46.12,2074.06,1.0,1.0,1.0
46.13,2275.42,1.0,1.0,1.0
46.14,2410.98,1.0,1.0,1.0
46.15,2679.41,1.0,1.0,1.0
46.16,3001.46,1.0,1.0,1.0
46.17,3123.53,1.0,1.0,1.0
46.18,3276.52,1.0,1.0,1.0
46.19,3613.9,1.0,1.0,1.0
46.2,3731.02,1.0,1.0,1.0
46.21,4031.03,1.0,1.0,1.0
46.22,4097.01,1.0,1.0,1.0
46.23,4210.91,1.0,1.0,1.0
46.24,4394.99,1.0,1.0,1.0
46.25,4692.91,1.0,1.0,1.0
46.26,4685.97,1.0,1.0,1.0
46.27,4991.09,1.0,1.0,1.0
46.28,5195.439,1.0,1.0,1.0
46.29,5573.39,1.0,1.0,1.0
46.3,5647.07,1.0,1.0,1.0
46.31,5797.02,1.0,1.0,1.0
46.32,5897.93,1.0,1.0,1.0
46.33,6031.54,1.0,1.0,1.0
46.34,6041.45,1.0,1.0,1.0
46.35,6159.53,1.0,1.0,1.0
46.36,6391.46,1.0,1.0,1.0
46.37,6463.59,1.0,1.0,1.0
46.38,6575.32,1.0,1.0,1.0
46.39,6609.52,1.0,1.0,1.0
46.4,6410.561,1.0,1.0,1.0
46.41,6504.0,1.0,1.0,1.0
46.42,6771.41,1.0,1.0,1.0
46.43,6804.97,1.0,1.0,1.0
46.44,6650.06,1.0,1.0,1.0
46.45,6689.08,1.0,1.0,1.0
46.46,6723.45,1.0,1.0,1.0
46.47,6841.52,1.0,1.0,1.0
46.48,6896.92,1.0,1.0,1.0
46.49,7114.93,1.0,1.0,1.0
46.5,7121.66,1.0,1.0,1.0
46.51,7141.46,1.0,1.0,1.0
46.52,7442.42,1.0,1.0,1.0
46.53,7421.54,1.0,1.0,1.0
46.54,7520.98,1.0,1.0,1.0
46.55,7408.58,1.0,1.0,1.0
46.56,7556.58,1.0,1.0,1.0
46.57,7766.26,1.0,1.0,1.0
46.58,7645.67,1.0,1.0,1.0
46.59,7648.96,1.0,1.0,1.0
46.6,7523.74,1.0,1.0,1.0
46.61,7733.14,1.0,1.0,1.0
46.62,7582.08,1.0,1.0,1.0
46.63,7514.88,1.0,1.0,1.0
46.64,7369.52,1.0,1.0,1.0
46.65,7203.14,1.0,1.0,1.0
46.66,6953.46,1.0,1.0,1.0
46.67,6908.92,1.0,1.0,1.0
46.68,6782.54,1.0,1.0,1.0
46.69,6557.12,1.0,1.0,1.0
46.7,6384.0,1.0,1.0,1.0
46.71,6141.561,1.0,1.0,1.0
46.72,6059.91,1.0,1.0,1.0
46.73,5799.65,1.0,1.0,1.0
46.74,5733.52,1.0,1.0,1.0
46.75,5541.92,1.0,1.0,1.0
46.76,5430.11,1.0,1.0,1.0
46.77,5065.97,1.0,1.0,1.0
46.78,4887.57,1.0,1.0,1.0
46.79,4713.54,1.0,1.0,1.0
46.8,4661.37,1.0,1.0,1.0
46.81,4459.59,1.0,1.0,1.0
46.82,4346.561,1.0,1.0,1.0
46.83,4098.59,1.0,1.0,1.0
46.84,3952.91,1.0,1.0,1.0
46.85,3751.47,1.0,1.0,1.0
46.86,3653.0,1.0,1.0,1.0
46.87,3503.07,1.0,1.0,1.0
46.88,3431.06,1.0,1.0,1.0
46.89,3090.01,1.0,1.0,1.0
46.9,3053.52,1.0,1.0,1.0
46.91,3004.91,1.0,1.0,1.0
46.92,2829.61,1.0,1.0,1.0
46.93,2672.57,1.0,1.0,1.0
46.94,2611.38,1.0,1.0,1.0
46.95,2629.03,1.0,1.0,1.0
46.96,2493.59,1.0,1.0,1.0
46.97,2306.92,1.0,1.0,1.0
46.98,2318.01,1.0,1.0,1.0
46.99,2253.46,1.0,1.0,1.0
47.0,2224.01,1.0,1.0,1.0
47.01,2258.59,1.0,1.0,1.0
47.02,2190.52,1.0,1.0,1.0
47.03,2180.43,1.0,1.0,1.0
47.04,2328.53,1.0,1.0,1.0
47.05,2409.98,1.0,1.0,1.0
47.06,2508.07,1.0,1.0,1.0
47.07,2534.91,1.0,1.0,1.0
47.08,2551.51,1.0,1.0,1.0
47.09,2794.92,1.0,1.0,1.0
47.1,3018.55,1.0,1.0,1.0
47.11,3005.54,1.0,1.0,1.0
47.12,3347.811,1.0,1.0,1.0
47.13,3340.03,1.0,1.0,1.0
47.14,3522.49,1.0,1.0,1.0
47.15,3745.561,1.0,1.0,1.0
47.16,3922.92,1.0,1.0,1.0
47.17,4107.47,1.0,1.0,1.0
47.18,4155.07,1.0,1.0,1.0
47.19,4370.91,1.0,1.0,1.0
47.2,4576.39,1.0,1.0,1.0
47.21,4588.11,1.0,1.0,1.0
47.22,4664.52,1.0,1.0,1.0
47.23,4744.43,1.0,1.0,1.0
47.24,4888.45,1.0,1.0,1.0
47.25,4765.57,1.0,1.0,1.0
47.26,4768.09,1.0,1.0,1.0
47.27,4793.93,1.0,1.0,1.0
47.28,4648.94,1.0,1.0,1.0
47.29,4393.58,1.0,1.0,1.0
47.3,4339.0,1.0,1.0,1.0
47.31,4257.09,1.0,1.0,1.0
47.32,4249.98,1.0,1.0,1.0
47.33,3906.96,1.0,1.0,1.0
47.34,3726.0,1.0,1.0,1.0
47.35,3600.1,1.0,1.0,1.0
47.36,3293.97,1.0,1.0,1.0
47.37,3135.17,1.0,1.0,1.0
47.38,3039.811,1.0,1.0,1.0
47.39,2827.59,1.0,1.0,1.0
47.4,2700.0,1.0,1.0,1.0
47.41,2587.07,1.0,1.0,1.0
47.42,2458.0,1.0,1.0,1.0
47.43,2283.52,1.0,1.0,1.0
47.44,2169.48,1.0,1.0,1.0
47.45,2086.01,1.0,1.0,1.0
47.46,1960.47,1.0,1.0,1.0
47.47,1845.12,1.0,1.0,1.0
47.48,1797.43,1.0,1.0,1.0
47.49,1665.03,1.0,1.0,1.0
47.5,1629.55,1.0,1.0,1.0
47.51,1587.94,1.0,1.0,1.0
47.52,1609.57,1.0,1.0,1.0
47.53,1523.96,1.0,1.0,1.0
47.54,1507.03,1.0,1.0,1.0
47.55,1499.93,1.0,1.0,1.0
47.56,1602.0,1.0,1.0,1.0
47.57,1665.52,1.0,1.0,1.0
47.58,1677.47,1.0,1.0,1.0
47.59,1739.49,1.0,1.0,1.0
47.6,1846.01,1.0,1.0,1.0
47.61,1772.01,1.0,1.0,1.0
47.62,1935.99,1.0,1.0,1.0
47.63,2123.97,1.0,1.0,1.0
47.64,2219.96,1.0,1.0,1.0
47.65,2344.52,1.0,1.0,1.0
47.66,2521.99,1.0,1.0,1.0
47.67,2775.92,1.0,1.0,1.0
47.68,3049.52,1.0,1.0,1.0
47.69,3283.49,1.0,1.0,1.0
47.7,3482.51,1.0,1.0,1.0
47.71,3696.48,1.0,1.0,1.0
47.72,4121.9,1.0,1.0,1.0
47.73,4440.96,1.0,1.0,1.0
47.74,4893.32,1.0,1.0,1.0
47.75,5325.99,1.0,1.0,1.0
47.76,5756.03,1.0,1.0,1.0
47.77,6749.37,1.0,1.0,1.0
47.78,7479.33,1.0,1.0,1.0
47.79,8383.09,1.0,1.0,1.0
47.8,9560.34,1.0,1.0,1.0
47.81,11331.7,1.0,1.0,1.0
47.82,13013.2,1.0,1.0,1.0
47.83,15551.9,1.0,1.0,1.0
47.84,19114.7,1.0,1.0,1.0
47.85,24326,1.0,1.0,1.0
47.86,31658.5,1.0,1.0,1.0
47.87,43293.9,1.0,1.0,1.0
47.88,62132.1,1.0,1.0,1.0
47.89,95045.5,1.0,1.0,1.0
47.9,161718,1.0,1.0,1.0
47.91,379124,1.0,1.0,1.0
47.92,2748864.75,1.0,1.0,1.0
47.93,5577043.0,1.0,1.0,1.0
47.94,11442470.0,1.0,1.0,1.0
47.95,13230557.0,1.0,1.0,1.0
47.96,6740831.5,1.0,1.0,1.0
47.97,5870010.0,1.0,1.0,1.0
47.98,2568389.5,1.0,1.0,1.0
47.99,658175.25,1.0,1.0,1.0
48.0,340290,1.0,1.0,1.0
48.01,227190,1.0,1.0,1.0
48.02,162757,1.0,1.0,1.0
48.03,119896,1.0,1.0,1.0
48.04,91143.8,1.0,1.0,1.0
48.05,70426,1.0,1.0,1.0
48.06,55312.1,1.0,1.0,1.0
48.07,43527.6,1.0,1.0,1.0
48.08,34689.4,1.0,1.0,1.0
48.09,27882.9,1.0,1.0,1.0
48.1,22643.2,1.0,1.0,1.0
48.11,18421.8,1.0,1.0,1.0
48.12,15559.9,1.0,1.0,1.0
48.13,13006.3,1.0,1.0,1.0
48.14,10695.1,1.0,1.0,1.0
48.15,9269.13,1.0,1.0,1.0
48.16,7923.189,1.0,1.0,1.0
48.17,6774.73,1.0,1.0,1.0
48.18,5852.04,1.0,1.0,1.0
48.19,5041.561,1.0,1.0,1.0
48.2,4345.52,1.0,1.0,1.0
48.21,3801.61,1.0,1.0,1.0
48.22,3263.61,1.0,1.0,1.0
48.23,3083.52,1.0,1.0,1.0
48.24,2786.0,1.0,1.0,1.0
48.25,2559.52,1.0,1.0,1.0
48.26,2288.47,1.0,1.0,1.0
48.27,2214.09,1.0,1.0,1.0
48.28,1947.46,1.0,1.0,1.0
48.29,1885.01,1.0,1.0,1.0
48.3,1734.51,1.0,1.0,1.0
48.31,1565.09,1.0,1.0,1.0
48.32,1502.46,1.0,1.0,1.0
48.33,1406.54,1.0,1.0,1.0
48.34,1339.47,1.0,1.0,1.0
48.35,1239.07,1.0,1.0,1.0
48.36,1140.48,1.0,1.0,1.0
48.37,1048.49,1.0,1.0,1.0
48.38,938.4611,1.0,1.0,1.0
48.39,1002.03,1.0,1.0,1.0
48.4,891.5833,1.0,1.0,1.0
48.41,847.45,1.0,1.0,1.0
48.42,808.5056,1.0,1.0,1.0
48.43,759.0,1.0,1.0,1.0
48.44,686.4944,1.0,1.0,1.0
48.45,664.5056,1.0,1.0,1.0
48.46,707.0111,1.0,1.0,1.0
48.47,592.0111,1.0,1.0,1.0
48.48,606.5278,1.0,1.0,1.0
48.49,588.4944,1.0,1.0,1.0
48.5,575.9778,1.0,1.0,1.0
48.51,502.9667,1.0,1.0,1.0
48.52,506.55,1.0,1.0,1.0
48.53,474.5278,1.0,1.0,1.0
48.54,485.45,1.0,1.0,1.0
48.55,441.0555,1.0,1.0,1.0
48.56,433.4611,1.0,1.0,1.0
48.57,395.0111,1.0,1.0,1.0
48.58,378.9889,1.0,1.0,1.0
48.59,459.4944,1.0,1.0,1.0
48.6,361.55,1.0,1.0,1.0
48.61,352.4722,1.0,1.0,1.0
48.62,363.4833,1.0,1.0,1.0
48.63,345.5167,1.0,1.0,1.0
48.64,348.4722,1.0,1.0,1.0
48.65,331.55,1.0,1.0,1.0
48.66,316.4833,1.0,1.0,1.0
48.67,270.4722,1.0,1.0,1.0
48.68,282.0333,1.0,1.0,1.0
48.69,281.0111,1.0,1.0,1.0
48.7,261.9667,1.0,1.0,1.0
48.71,231.0111,1.0,1.0,1.0
48.72,254.5278,1.0,1.0,1.0
48.73,247.9556,1.0,1.0,1.0
48.74,224.5278,1.0,1.0,1.0
48.75,215.5056,1.0,1.0,1.0
48.76,221.9889,1.0,1.0,1.0
48.77,230.0,1.0,1.0,1.0
48.78,193.5167,1.0,1.0,1.0
48.79,196.0111,1.0,1.0,1.0
48.8,194.9889,1.0,1.0,1.0
48.81,192.0111,1.0,1.0,1.0
48.82,186.4833,1.0,1.0,1.0
48.83,202.5056,1.0,1.0,1.0
48.84,183.4833,1.0,1.0,1.0
48.85,170.0,1.0,1.0,1.0
48.86,183.0,1.0,1.0,1.0
48.87,215.5167,1.0,1.0,1.0
48.88,210.4722,1.0,1.0,1.0
48.89,201.5278,1.0,1.0,1.0
48.9,183.4944,1.0,1.0,1.0
48.91,156.0,1.0,1.0,1.0
48.92,201.4944,1.0,1.0,1.0
48.93,178.5056,1.0,1.0,1.0
48.94,187.9889,1.0,1.0,1.0
48.95,180.5056,1.0,1.0,1.0
48.96,167.0,1.0,1.0,1.0
48.97,160.4833,1.0,1.0,1.0
48.98,201.5056,1.0,1.0,1.0
48.99,182.0111,1.0,1.0,1.0
49.0,188.4944,1.0,1.0,1.0
49.01,168.0,1.0,1.0,1.0
49.02,182.5056,1.0,1.0,1.0
49.03,148.0,1.0,1.0,1.0
49.04,149.5167,1.0,1.0,1.0
49.05,153.5056,1.0,1.0,1.0
49.06,131.9667,1.0,1.0,1.0
49.07,145.5056,1.0,1.0,1.0
49.08,123.0111,1.0,1.0,1.0
49.09,132.9889,1.0,1.0,1.0
49.1,127.5278,1.0,1.0,1.0
49.11,102.0,1.0,1.0,1.0
49.12,136.9889,1.0,1.0,1.0
49.13,84.4944,1.0,1.0,1.0
49.14,103.0,1.0,1.0,1.0
49.15,110.4833,1.0,1.0,1.0
49.16,90.0222,1.0,1.0,1.0
49.17,82.5056,1.0,1.0,1.0
49.18,98.0,1.0,1.0,1.0
49.19,72.4944,1.0,1.0,1.0
49.2,92.0,1.0,1.0,1.0
49.21,80.0,1.0,1.0,1.0
49.22,86.0111,1.0,1.0,1.0
49.23,100.0,1.0,1.0,1.0
49.24,67.4944,1.0,1.0,1.0
49.25,64.5056,1.0,1.0,1.0
49.26,65.4944,1.0,1.0,1.0
49.27,69.5056,1.0,1.0,1.0
49.28,82.0,1.0,1.0,1.0
49.29,68.4944,1.0,1.0,1.0
49.3,64.4944,1.0,1.0,1.0
49.31,73.5056,1.0,1.0,1.0
49.32,66.5056,1.0,1.0,1.0
49.33,64.0,1.0,1.0,1.0
49.34,110.9889,1.0,1.0,1.0
49.35,43.4944,1.0,1.0,1.0
49.36,74.5167,1.0,1.0,1.0
49.37,67.0,1.0,1.0,1.0
49.38,79.9889,1.0,1.0,1.0
49.39,69.5056,1.0,1.0,1.0
49.4,58.4944,1.0,1.0,1.0
49.41,60.0,1.0,1.0,1.0
49.42,54.5056,1.0,1.0,1.0
49.43,77.4944,1.0,1.0,1.0
49.44,44.0111,1.0,1.0,1.0
49.45,49.9889,1.0,1.0,1.0
49.46,51.0,1.0,1.0,1.0
49.47,54.4944,1.0,1.0,1.0
49.48,52.5056,1.0,1.0,1.0
49.49,58.0111,1.0,1.0,1.0
49.5,42.0,1.0,1.0,1.0
49.51,52.0,1.0,1.0,1.0
49.52,50.0,1.0,1.0,1.0
49.53,48.9889,1.0,1.0,1.0
49.54,51.0111,1.0,1.0,1.0
49.55,55.4944,1.0,1.0,1.0
49.56,50.4833,1.0,1.0,1.0
49.57,69.0222,1.0,1.0,1.0
49.58,43.9889,1.0,1.0,1.0
49.59,50.0111,1.0,1.0,1.0
49.6,55.9889,1.0,1.0,1.0
49.61,58.0,1.0,1.0,1.0
49.62,62.0,1.0,1.0,1.0
49.63,47.4944,1.0,1.0,1.0
49.64,34.5167,1.0,1.0,1.0
49.65,52.4944,1.0,1.0,1.0
49.66,49.4944,1.0,1.0,1.0
49.67,48.0111,1.0,1.0,1.0
49.68,47.4944,1.0,1.0,1.0
49.69,42.4944,1.0,1.0,1.0
49.7,51.5056,1.0,1.0,1.0
49.71,54.5056,1.0,1.0,1.0
49.72,39.9778,1.0,1.0,1.0
49.73,63.0111,1.0,1.0,1.0
49.74,43.5056,1.0,1.0,1.0
49.75,35.5056,1.0,1.0,1.0
49.76,55.0,1.0,1.0,1.0
49.77,47.0,1.0,1.0,1.0
49.78,29.9889,1.0,1.0,1.0
49.79,44.0,1.0,1.0,1.0
49.8,49.0,1.0,1.0,1.0
49.81,44.0111,1.0,1.0,1.0
49.82,44.9889,1.0,1.0,1.0
49.83,36.5056,1.0,1.0,1.0
49.84,44.4944,1.0,1.0,1.0
49.85,41.5056,1.0,1.0,1.0
49.86,40.4944,1.0,1.0,1.0
49.87,37.0111,1.0,1.0,1.0
49.88,50.4944,1.0,1.0,1.0
49.89,60.9889,1.0,1.0,1.0
49.9,24.5167,1.0,1.0,1.0
49.91,29.0,1.0,1.0,1.0
49.92,46.0,1.0,1.0,1.0
49.93,41.0,1.0,1.0,1.0
49.94,43.0,1.0,1.0,1.0
49.95,53.4944,1.0,1.0,1.0
49.96,24.5056,1.0,1.0,1.0
49.97,42.0,1.0,1.0,1.0
49.98,44.4944,1.0,1.0,1.0
49.99,59.5056,1.0,1.0,1.0
50.0,40.9889,1.0,1.0,1.0
50.01,30.0111,1.0,1.0,1.0
50.02,46.4944,1.0,1.0,1.0
50.03,53.4944,1.0,1.0,1.0
50.04,15.0,1.0,1.0,1.0
50.05,24.0111,1.0,1.0,1.0
50.06,26.0,1.0,1.0,1.0
50.07,49.4944,1.0,1.0,1.0
50.08,36.5056,1.0,1.0,1.0
50.09,41.0,1.0,1.0,1.0
50.1,44.0,1.0,1.0,1.0
50.11,41.9889,1.0,1.0,1.0
50.12,33.0111,1.0,1.0,1.0
50.13,37.9889,1.0,1.0,1.0
50.14,27.5056,1.0,1.0,1.0
50.15,51.0,1.0,1.0,1.0
50.16,35.0,1.0,1.0,1.0
50.17,29.5056,1.0,1.0,1.0
50.18,34.4944,1.0,1.0,1.0
50.19,29.0,1.0,1.0,1.0
50.2,24.0,1.0,1.0,1.0
50.21,26.5056,1.0,1.0,1.0
50.22,36.0,1.0,1.0,1.0
50.23,33.4944,1.0,1.0,1.0
50.24,45.9889,1.0,1.0,1.0
50.25,32.5056,1.0,1.0,1.0
50.26,31.5056,1.0,1.0,1.0
50.27,32.5056,1.0,1.0,1.0
50.28,32.4944,1.0,1.0,1.0
50.29,29.0,1.0,1.0,1.0
50.3,39.5056,1.0,1.0,1.0
50.31,27.0,1.0,1.0,1.0
50.32,35.0,1.0,1.0,1.0
50.33,39.4944,1.0,1.0,1.0
50.34,46.4944,1.0,1.0,1.0
50.35,33.5056,1.0,1.0,1.0
50.36,39.5056,1.0,1.0,1.0
50.37,41.9889,1.0,1.0,1.0
50.38,22.5056,1.0,1.0,1.0
50.39,20.5056,1.0,1.0,1.0
50.4,36.4944,1.0,1.0,1.0
50.41,35.0,1.0,1.0,1.0
50.42,45.5056,1.0,1.0,1.0
50.43,41.9778,1.0,1.0,1.0
50.44,28.0111,1.0,1.0,1.0
50.45,29.0111,1.0,1.0,1.0
50.46,34.0,1.0,1.0,1.0
50.47,41.9889,1.0,1.0,1.0
50.48,29.0,1.0,1.0,1.0
50.49,38.5056,1.0,1.0,1.0
50.5,29.0,1.0,1.0,1.0
50.51,21.5056,1.0,1.0,1.0
50.52,44.4944,1.0,1.0,1.0
50.53,33.5056,1.0,1.0,1.0
50.54,49.0,1.0,1.0,1.0
50.55,20.0,1.0,1.0,1.0
50.56,8.0,1.0,1.0,1.0
50.57,29.4944,1.0,1.0,1.0
50.58,24.5056,1.0,1.0,1.0
50.59,32.0,1.0,1.0,1.0
50.6,27.9889,1.0,1.0,1.0
50.61,39.0111,1.0,1.0,1.0
50.62,30.4944,1.0,1.0,1.0
50.63,27.5056,1.0,1.0,1.0
50.64,25.4944,1.0,1.0,1.0
50.65,43.5056,1.0,1.0,1.0
50.66,35.0,1.0,1.0,1.0
50.67,26.0,1.0,1.0,1.0
50.68,34.0,1.0,1.0,1.0
50.69,22.0,1.0,1.0,1.0
50.7,28.0,1.0,1.0,1.0
50.71,24.9889,1.0,1.0,1.0
50.72,29.0111,1.0,1.0,1.0
50.73,40.0,1.0,1.0,1.0
50.74,17.0,1.0,1.0,1.0
50.75,17.4944,1.0,1.0,1.0
50.76,13.5056,1.0,1.0,1.0
50.77,23.0,1.0,1.0,1.0
50.78,37.4944,1.0,1.0,1.0
50.79,24.5056,1.0,1.0,1.0
50.8,35.9889,1.0,1.0,1.0
50.81,28.5056,1.0,1.0,1.0
50.82,43.0,1.0,1.0,1.0
50.83,39.4944,1.0,1.0,1.0
50.84,44.0111,1.0,1.0,1.0
50.85,51.4944,1.0,1.0,1.0
50.86,28.5056,1.0,1.0,1.0
50.87,31.4944,1.0,1.0,1.0
50.88,34.5056,1.0,1.0,1.0
50.89,45.0,1.0,1.0,1.0
50.9,29.0,1.0,1.0,1.0
50.91,38.9889,1.0,1.0,1.0
50.92,45.0111,1.0,1.0,1.0
50.93,31.4944,1.0,1.0,1.0
50.94,35.0,1.0,1.0,1.0
50.95,21.5056,1.0,1.0,1.0
50.96,23.0,1.0,1.0,1.0
50.97,38.0,1.0,1.0,1.0
50.98,27.0,1.0,1.0,1.0
50.99,41.4944,1.0,1.0,1.0
51.0,29.5056,1.0,1.0,1.0
51.01,22.0,1.0,1.0,1.0
51.02,37.0,1.0,1.0,1.0
51.03,20.0,1.0,1.0,1.0
51.04,36.4944,1.0,1.0,1.0
51.05,26.4944,1.0,1.0,1.0
51.06,40.4944,1.0,1.0,1.0
51.07,27.5056,1.0,1.0,1.0
51.08,19.0111,1.0,1.0,1.0
51.09,28.0,1.0,1.0,1.0
51.1,20.4944,1.0,1.0,1.0
51.11,33.5056,1.0,1.0,1.0
51.12,33.0,1.0,1.0,1.0
51.13,25.0,1.0,1.0,1.0
51.14,30.0,1.0,1.0,1.0
51.15,30.0,1.0,1.0,1.0
51.16,28.4944,1.0,1.0,1.0
51.17,35.5056,1.0,1.0,1.0
51.18,27.0,1.0,1.0,1.0
51.19,17.0,1.0,1.0,1.0
51.2,41.4944,1.0,1.0,1.0
51.21,31.5056,1.0,1.0,1.0
51.22,26.0,1.0,1.0,1.0
51.23,17.0,1.0,1.0,1.0
51.24,25.0,1.0,1.0,1.0
51.25,27.0,1.0,1.0,1.0
51.26,16.0,1.0,1.0,1.0
51.27,18.0,1.0,1.0,1.0
51.28,35.0,1.0,1.0,1.0
51.29,25.0,1.0,1.0,1.0
51.3,24.4944,1.0,1.0,1.0
51.31,15.5056,1.0,1.0,1.0
51.32,29.0,1.0,1.0,1.0
51.33,23.4833,1.0,1.0,1.0
51.34,33.5167,1.0,1.0,1.0
51.35,11.9889,1.0,1.0,1.0
51.36,27.0111,1.0,1.0,1.0
51.37,33.0,1.0,1.0,1.0
51.38,7.9889,1.0,1.0,1.0
51.39,41.5056,1.0,1.0,1.0
51.4,25.5056,1.0,1.0,1.0
51.41,29.0,1.0,1.0,1.0
51.42,12.0,1.0,1.0,1.0
51.43,32.0,1.0,1.0,1.0
51.44,27.0,1.0,1.0,1.0
51.45,34.9889,1.0,1.0,1.0
51.46,27.0111,1.0,1.0,1.0
51.47,19.0,1.0,1.0,1.0
51.48,28.0,1.0,1.0,1.0
51.49,24.4944,1.0,1.0,1.0
51.5,27.5056,1.0,1.0,1.0
51.51,33.0,1.0,1.0,1.0
51.52,25.0,1.0,1.0,1.0
51.53,20.4944,1.0,1.0,1.0
51.54,37.0,1.0,1.0,1.0
51.55,20.5056,1.0,1.0,1.0
51.56,18.4944,1.0,1.0,1.0
51.57,40.4944,1.0,1.0,1.0
51.58,17.5056,1.0,1.0,1.0
51.59,30.5056,1.0,1.0,1.0
51.6,39.0,1.0,1.0,1.0
51.61,39.0,1.0,1.0,1.0
51.62,25.0,1.0,1.0,1.0
51.63,25.0,1.0,1.0,1.0
51.64,24.9889,1.0,1.0,1.0
51.65,20.5056,1.0,1.0,1.0
51.66,28.5056,1.0,1.0,1.0
51.67,18.0,1.0,1.0,1.0
51.68,15.0,1.0,1.0,1.0
51.69,27.0,1.0,1.0,1.0
51.7,16.0,1.0,1.0,1.0
51.71,18.0,1.0,1.0,1.0
51.72,21.4944,1.0,1.0,1.0
51.73,36.5056,1.0,1.0,1.0
51.74,28.0,1.0,1.0,1.0
51.75,37.0,1.0,1.0,1.0
51.76,17.0,1.0,1.0,1.0
51.77,20.0,1.0,1.0,1.0
51.78,24.4944,1.0,1.0,1.0
51.79,32.5056,1.0,1.0,1.0
51.8,33.4944,1.0,1.0,1.0
51.81,23.0,1.0,1.0,1.0
51.82,28.5056,1.0,1.0,1.0
51.83,32.0,1.0,1.0,1.0
51.84,27.4944,1.0,1.0,1.0
51.85,25.4944,1.0,1.0,1.0
51.86,23.5056,1.0,1.0,1.0
51.87,21.5056,1.0,1.0,1.0
51.88,27.0,1.0,1.0,1.0
51.89,30.4944,1.0,1.0,1.0
51.9,22.4944,1.0,1.0,1.0
51.91,18.0111,1.0,1.0,1.0
51.92,15.0,1.0,1.0,1.0
51.93,21.0,1.0,1.0,1.0
51.94,26.4944,1.0,1.0,1.0
51.95,28.5056,1.0,1.0,1.0
51.96,27.0,1.0,1.0,1.0
51.97,27.0,1.0,1.0,1.0
51.98,19.9889,1.0,1.0,1.0
51.99,34.0,1.0,1.0,1.0
52.0,14.0111,1.0,1.0,1.0
52.01,31.0,1.0,1.0,1.0
52.02,45.4944,1.0,1.0,1.0
52.03,22.0,1.0,1.0,1.0
52.04,25.0,1.0,1.0,1.0
52.05,29.0,1.0,1.0,1.0
52.06,30.5056,1.0,1.0,1.0
52.07,27.0,1.0,1.0,1.0
52.08,19.4944,1.0,1.0,1.0
52.09,25.5056,1.0,1.0,1.0
52.1,41.9889,1.0,1.0,1.0
52.11,24.0111,1.0,1.0,1.0
52.12,22.4944,1.0,1.0,1.0
52.13,39.0,1.0,1.0,1.0
52.14,37.0,1.0,1.0,1.0
52.15,23.4833,1.0,1.0,1.0
52.16,28.0222,1.0,1.0,1.0
52.17,21.4944,1.0,1.0,1.0
52.18,36.0,1.0,1.0,1.0
52.19,29.5056,1.0,1.0,1.0
52.2,35.4944,1.0,1.0,1.0
52.21,34.0,1.0,1.0,1.0
52.22,30.5056,1.0,1.0,1.0
52.23,23.4944,1.0,1.0,1.0
52.24,24.0,1.0,1.0,1.0
52.25,22.5056,1.0,1.0,1.0
52.26,35.4944,1.0,1.0,1.0
52.27,39.0,1.0,1.0,1.0
52.28,39.5056,1.0,1.0,1.0
52.29,24.9889,1.0,1.0,1.0
52.3,46.0111,1.0,1.0,1.0
52.31,30.4833,1.0,1.0,1.0
52.32,27.5056,1.0,1.0,1.0
52.33,26.0111,1.0,1.0,1.0
52.34,26.0,1.0,1.0,1.0
52.35,29.4944,1.0,1.0,1.0
52.36,31.5056,1.0,1.0,1.0
52.37,22.4833,1.0,1.0,1.0
52.38,36.0111,1.0,1.0,1.0
52.39,24.0,1.0,1.0,1.0
52.4,20.0,1.0,1.0,1.0
52.41,25.5056,1.0,1.0,1.0
52.42,29.4944,1.0,1.0,1.0
52.43,21.5056,1.0,1.0,1.0
52.44,33.0,1.0,1.0,1.0
52.45,17.0,1.0,1.0,1.0
52.46,30.4944,1.0,1.0,1.0
52.47,27.5056,1.0,1.0,1.0
52.48,15.0,1.0,1.0,1.0
52.49,10.0,1.0,1.0,1.0
52.5,18.4944,1.0,1.0,1.0
52.51,32.5056,1.0,1.0,1.0
52.52,44.0,1.0,1.0,1.0
52.53,19.0,1.0,1.0,1.0
52.54,20.4944,1.0,1.0,1.0
52.55,27.5056,1.0,1.0,1.0
52.56,12.0,1.0,1.0,1.0
52.57,15.4944,1.0,1.0,1.0
52.58,33.5056,1.0,1.0,1.0
52.59,27.4944,1.0,1.0,1.0
52.6,30.5056,1.0,1.0,1.0
52.61,34.0,1.0,1.0,1.0
52.62,25.0,1.0,1.0,1.0
52.63,21.0,1.0,1.0,1.0
52.64,26.4944,1.0,1.0,1.0
52.65,32.0,1.0,1.0,1.0
52.66,17.5056,1.0,1.0,1.0
52.67,14.0,1.0,1.0,1.0
52.68,35.0,1.0,1.0,1.0
52.69,30.0,1.0,1.0,1.0
52.7,36.9889,1.0,1.0,1.0
52.71,38.0111,1.0,1.0,1.0
52.72,20.4944,1.0,1.0,1.0
52.73,27.5056,1.0,1.0,1.0
52.74,25.0,1.0,1.0,1.0
52.75,18.4944,1.0,1.0,1.0
52.76,28.5056,1.0,1.0,1.0
52.77,23.4944,1.0,1.0,1.0
52.78,25.5056,1.0,1.0,1.0
52.79,25.0,1.0,1.0,1.0
52.8,15.0,1.0,1.0,1.0
52.81,32.4944,1.0,1.0,1.0
52.82,12.5056,1.0,1.0,1.0
52.83,37.0,1.0,1.0,1.0
52.84,21.0,1.0,1.0,1.0
52.85,19.0,1.0,1.0,1.0
52.86,32.0,1.0,1.0,1.0
52.87,28.0,1.0,1.0,1.0
52.88,21.0,1.0,1.0,1.0
52.89,29.4944,1.0,1.0,1.0
52.9,16.5056,1.0,1.0,1.0
52.91,35.9889,1.0,1.0,1.0
52.92,28.5056,1.0,1.0,1.0
52.93,33.0,1.0,1.0,1.0
52.94,20.5056,1.0,1.0,1.0
52.95,26.0,1.0,1.0,1.0
52.96,29.4944,1.0,1.0,1.0
52.97,8.0,1.0,1.0,1.0
52.98,22.5056,1.0,1.0,1.0
52.99,33.0,1.0,1.0,1.0
53.0,32.9889,1.0,1.0,1.0
53.01,17.5056,1.0,1.0,1.0
53.02,24.5056,1.0,1.0,1.0
53.03,26.0,1.0,1.0,1.0
53.04,16.0,1.0,1.0,1.0
53.05,24.4944,1.0,1.0,1.0
53.06,3.0,1.0,1.0,1.0
53.07,26.5056,1.0,1.0,1.0
53.08,21.4944,1.0,1.0,1.0
53.09,16.0,1.0,1.0,1.0
53.1,36.0,1.0,1.0,1.0
53.11,24.5056,1.0,1.0,1.0
53.12,30.0,1.0,1.0,1.0
53.13,24.0,1.0,1.0,1.0
53.14,12.0,1.0,1.0,1.0
53.15,21.0,1.0,1.0,1.0
53.16,23.0,1.0,1.0,1.0
53.17,29.0,1.0,1.0,1.0
53.18,23.0,1.0,1.0,1.0
53.19,24.4944,1.0,1.0,1.0
53.2,29.5056,1.0,1.0,1.0
53.21,26.0,1.0,1.0,1.0
53.22,16.0,1.0,1.0,1.0
53.23,30.4944,1.0,1.0,1.0
53.24,27.5056,1.0,1.0,1.0
53.25,40.0,1.0,1.0,1.0
53.26,31.0,1.0,1.0,1.0
53.27,24.4944,1.0,1.0,1.0
53.28,13.5056,1.0,1.0,1.0
53.29,26.4944,1.0,1.0,1.0
53.3,20.0,1.0,1.0,1.0
53.31,33.0,1.0,1.0,1.0
53.32,15.5056,1.0,1.0,1.0
53.33,18.9889,1.0,1.0,1.0
53.34,24.0111,1.0,1.0,1.0
53.35,33.0,1.0,1.0,1.0
53.36,16.0,1.0,1.0,1.0
53.37,32.4944,1.0,1.0,1.0
53.38,18.5056,1.0,1.0,1.0
53.39,16.0,1.0,1.0,1.0
53.4,25.0,1.0,1.0,1.0
53.41,28.0,1.0,1.0,1.0
53.42,24.9889,1.0,1.0,1.0
53.43,17.0111,1.0,1.0,1.0
53.44,18.0,1.0,1.0,1.0
53.45,26.0,1.0,1.0,1.0
53.46,15.9889,1.0,1.0,1.0
53.47,39.0111,1.0,1.0,1.0
53.48,17.9889,1.0,1.0,1.0
53.49,28.5056,1.0,1.0,1.0
53.5,10.5056,1.0,1.0,1.0
53.51,36.0,1.0,1.0,1.0
53.52,27.9889,1.0,1.0,1.0
53.53,34.0111,1.0,1.0,1.0
53.54,16.0,1.0,1.0,1.0
53.55,24.4944,1.0,1.0,1.0
53.56,30.5056,1.0,1.0,1.0
53.57,18.0,1.0,1.0,1.0
53.58,22.0,1.0,1.0,1.0
53.59,23.4944,1.0,1.0,1.0
53.6,17.0,1.0,1.0,1.0
53.61,34.5056,1.0,1.0,1.0
53.62,10.4944,1.0,1.0,1.0
53.63,19.5056,1.0,1.0,1.0
53.64,42.0,1.0,1.0,1.0
53.65,13.0,1.0,1.0,1.0
53.66,25.0,1.0,1.0,1.0
53.67,34.4944,1.0,1.0,1.0
53.68,29.4944,1.0,1.0,1.0
53.69,24.0111,1.0,1.0,1.0
53.7,24.0,1.0,1.0,1.0
53.71,25.4944,1.0,1.0,1.0
53.72,20.4944,1.0,1.0,1.0
53.73,13.0111,1.0,1.0,1.0
53.74,18.0,1.0,1.0,1.0
53.75,19.0,1.0,1.0,1.0
53.76,15.0,1.0,1.0,1.0
53.77,23.0,1.0,1.0,1.0
53.78,31.0,1.0,1.0,1.0
53.79,24.4944,1.0,1.0,1.0
53.8,25.5056,1.0,1.0,1.0
53.81,12.0,1.0,1.0,1.0
53.82,38.4944,1.0,1.0,1.0
53.83,32.4944,1.0,1.0,1.0
53.84,32.5056,1.0,1.0,1.0
53.85,31.5056,1.0,1.0,1.0
53.86,17.0,1.0,1.0,1.0
53.87,21.0,1.0,1.0,1.0
53.88,16.0,1.0,1.0,1.0
53.89,32.4944,1.0,1.0,1.0
53.9,44.5056,1.0,1.0,1.0
53.91,37.0,1.0,1.0,1.0
53.92,19.4944,1.0,1.0,1.0
53.93,15.4944,1.0,1.0,1.0
53.94,10.0111,1.0,1.0,1.0
53.95,8.4944,1.0,1.0,1.0
53.96,26.0,1.0,1.0,1.0
53.97,23.5056,1.0,1.0,1.0
53.98,13.0,1.0,1.0,1.0
53.99,18.4944,1.0,1.0,1.0
54.0,28.5056,1.0,1.0,1.0