File: XRD:XRR/LCO/22123_LCOT/22123_LCOT_XRD_002.csv
#twotheta, yobs, ycal, bkg, diff
42.0,18.0,1.0,1.0,1.0
42.01,17.0,1.0,1.0,1.0
42.02,14.0,1.0,1.0,1.0
42.03,8.0,1.0,1.0,1.0
42.04,5.0,1.0,1.0,1.0
42.05,9.0,1.0,1.0,1.0
42.06,5.4944,1.0,1.0,1.0
42.07,16.5056,1.0,1.0,1.0
42.08,13.9889,1.0,1.0,1.0
42.09,10.0111,1.0,1.0,1.0
42.1,17.0,1.0,1.0,1.0
42.11,13.0,1.0,1.0,1.0
42.12,9.0,1.0,1.0,1.0
42.13,8.0,1.0,1.0,1.0
42.14,15.0,1.0,1.0,1.0
42.15,14.0,1.0,1.0,1.0
42.16,17.4944,1.0,1.0,1.0
42.17,20.5056,1.0,1.0,1.0
42.18,17.0,1.0,1.0,1.0
42.19,5.4944,1.0,1.0,1.0
42.2,15.5056,1.0,1.0,1.0
42.21,10.0,1.0,1.0,1.0
42.22,12.0,1.0,1.0,1.0
42.23,14.0,1.0,1.0,1.0
42.24,31.9889,1.0,1.0,1.0
42.25,18.0111,1.0,1.0,1.0
42.26,9.0,1.0,1.0,1.0
42.27,20.0,1.0,1.0,1.0
42.28,10.0,1.0,1.0,1.0
42.29,11.4944,1.0,1.0,1.0
42.3,6.5056,1.0,1.0,1.0
42.31,5.0,1.0,1.0,1.0
42.32,8.0,1.0,1.0,1.0
42.33,8.0,1.0,1.0,1.0
42.34,8.0,1.0,1.0,1.0
42.35,12.0,1.0,1.0,1.0
42.36,7.0,1.0,1.0,1.0
42.37,22.4944,1.0,1.0,1.0
42.38,16.5056,1.0,1.0,1.0
42.39,18.4944,1.0,1.0,1.0
42.4,8.5056,1.0,1.0,1.0
42.41,23.0,1.0,1.0,1.0
42.42,23.4944,1.0,1.0,1.0
42.43,8.0,1.0,1.0,1.0
42.44,21.5056,1.0,1.0,1.0
42.45,8.0,1.0,1.0,1.0
42.46,10.0,1.0,1.0,1.0
42.47,16.9889,1.0,1.0,1.0
42.48,10.0111,1.0,1.0,1.0
42.49,14.0,1.0,1.0,1.0
42.5,10.0,1.0,1.0,1.0
42.51,17.0,1.0,1.0,1.0
42.52,12.0,1.0,1.0,1.0
42.53,13.0,1.0,1.0,1.0
42.54,15.0,1.0,1.0,1.0
42.55,16.4944,1.0,1.0,1.0
42.56,15.5056,1.0,1.0,1.0
42.57,11.0,1.0,1.0,1.0
42.58,10.0,1.0,1.0,1.0
42.59,22.0,1.0,1.0,1.0
42.6,14.4944,1.0,1.0,1.0
42.61,16.5056,1.0,1.0,1.0
42.62,19.4944,1.0,1.0,1.0
42.63,13.0,1.0,1.0,1.0
42.64,18.5056,1.0,1.0,1.0
42.65,10.0,1.0,1.0,1.0
42.66,22.0,1.0,1.0,1.0
42.67,26.4833,1.0,1.0,1.0
42.68,21.0111,1.0,1.0,1.0
42.69,13.5056,1.0,1.0,1.0
42.7,18.4944,1.0,1.0,1.0
42.71,22.5056,1.0,1.0,1.0
42.72,10.0,1.0,1.0,1.0
42.73,13.0,1.0,1.0,1.0
42.74,12.0,1.0,1.0,1.0
42.75,11.0,1.0,1.0,1.0
42.76,11.0,1.0,1.0,1.0
42.77,25.4944,1.0,1.0,1.0
42.78,24.0,1.0,1.0,1.0
42.79,5.5056,1.0,1.0,1.0
42.8,18.0,1.0,1.0,1.0
42.81,10.0,1.0,1.0,1.0
42.82,14.0,1.0,1.0,1.0
42.83,17.4944,1.0,1.0,1.0
42.84,28.5056,1.0,1.0,1.0
42.85,23.0,1.0,1.0,1.0
42.86,22.4944,1.0,1.0,1.0
42.87,9.0,1.0,1.0,1.0
42.88,24.5056,1.0,1.0,1.0
42.89,23.0,1.0,1.0,1.0
42.9,18.0,1.0,1.0,1.0
42.91,14.0,1.0,1.0,1.0
42.92,18.0,1.0,1.0,1.0
42.93,18.4944,1.0,1.0,1.0
42.94,24.5056,1.0,1.0,1.0
42.95,21.0,1.0,1.0,1.0
42.96,17.0,1.0,1.0,1.0
42.97,26.0,1.0,1.0,1.0
42.98,14.0,1.0,1.0,1.0
42.99,17.4944,1.0,1.0,1.0
43.0,18.5056,1.0,1.0,1.0
43.01,9.4944,1.0,1.0,1.0
43.02,14.0,1.0,1.0,1.0
43.03,18.5056,1.0,1.0,1.0
43.04,29.0,1.0,1.0,1.0
43.05,28.0,1.0,1.0,1.0
43.06,18.0,1.0,1.0,1.0
43.07,8.0,1.0,1.0,1.0
43.08,28.0,1.0,1.0,1.0
43.09,32.4944,1.0,1.0,1.0
43.1,21.5056,1.0,1.0,1.0
43.11,21.4944,1.0,1.0,1.0
43.12,16.5056,1.0,1.0,1.0
43.13,29.0,1.0,1.0,1.0
43.14,25.0,1.0,1.0,1.0
43.15,24.0,1.0,1.0,1.0
43.16,17.0,1.0,1.0,1.0
43.17,24.4944,1.0,1.0,1.0
43.18,24.5056,1.0,1.0,1.0
43.19,22.0,1.0,1.0,1.0
43.2,24.0,1.0,1.0,1.0
43.21,11.4944,1.0,1.0,1.0
43.22,3.5056,1.0,1.0,1.0
43.23,27.0,1.0,1.0,1.0
43.24,12.0,1.0,1.0,1.0
43.25,13.0,1.0,1.0,1.0
43.26,22.0,1.0,1.0,1.0
43.27,24.0,1.0,1.0,1.0
43.28,16.0,1.0,1.0,1.0
43.29,16.4944,1.0,1.0,1.0
43.3,22.5056,1.0,1.0,1.0
43.31,20.0,1.0,1.0,1.0
43.32,22.0,1.0,1.0,1.0
43.33,26.0,1.0,1.0,1.0
43.34,29.4944,1.0,1.0,1.0
43.35,24.5056,1.0,1.0,1.0
43.36,28.0,1.0,1.0,1.0
43.37,18.0,1.0,1.0,1.0
43.38,29.0,1.0,1.0,1.0
43.39,34.0,1.0,1.0,1.0
43.4,19.0,1.0,1.0,1.0
43.41,13.0,1.0,1.0,1.0
43.42,17.0,1.0,1.0,1.0
43.43,12.4944,1.0,1.0,1.0
43.44,15.5056,1.0,1.0,1.0
43.45,15.0,1.0,1.0,1.0
43.46,17.0,1.0,1.0,1.0
43.47,13.0,1.0,1.0,1.0
43.48,19.0,1.0,1.0,1.0
43.49,22.0,1.0,1.0,1.0
43.5,22.9889,1.0,1.0,1.0
43.51,32.5056,1.0,1.0,1.0
43.52,40.5056,1.0,1.0,1.0
43.53,19.9889,1.0,1.0,1.0
43.54,31.0111,1.0,1.0,1.0
43.55,21.4944,1.0,1.0,1.0
43.56,24.5056,1.0,1.0,1.0
43.57,36.0,1.0,1.0,1.0
43.58,28.0,1.0,1.0,1.0
43.59,27.0,1.0,1.0,1.0
43.6,25.4944,1.0,1.0,1.0
43.61,30.5056,1.0,1.0,1.0
43.62,42.0,1.0,1.0,1.0
43.63,24.0,1.0,1.0,1.0
43.64,22.0,1.0,1.0,1.0
43.65,27.4944,1.0,1.0,1.0
43.66,30.0,1.0,1.0,1.0
43.67,19.5056,1.0,1.0,1.0
43.68,20.0,1.0,1.0,1.0
43.69,36.0,1.0,1.0,1.0
43.7,18.4944,1.0,1.0,1.0
43.71,29.4944,1.0,1.0,1.0
43.72,30.5056,1.0,1.0,1.0
43.73,22.0,1.0,1.0,1.0
43.74,25.0,1.0,1.0,1.0
43.75,30.4944,1.0,1.0,1.0
43.76,31.5056,1.0,1.0,1.0
43.77,22.5056,1.0,1.0,1.0
43.78,48.4944,1.0,1.0,1.0
43.79,42.5056,1.0,1.0,1.0
43.8,25.4944,1.0,1.0,1.0
43.81,28.5056,1.0,1.0,1.0
43.82,29.4944,1.0,1.0,1.0
43.83,39.5056,1.0,1.0,1.0
43.84,46.4944,1.0,1.0,1.0
43.85,23.0,1.0,1.0,1.0
43.86,35.4944,1.0,1.0,1.0
43.87,32.5056,1.0,1.0,1.0
43.88,25.0,1.0,1.0,1.0
43.89,20.4944,1.0,1.0,1.0
43.9,24.5056,1.0,1.0,1.0
43.91,35.5056,1.0,1.0,1.0
43.92,22.0,1.0,1.0,1.0
43.93,22.4944,1.0,1.0,1.0
43.94,20.5056,1.0,1.0,1.0
43.95,28.0,1.0,1.0,1.0
43.96,22.0,1.0,1.0,1.0
43.97,42.4944,1.0,1.0,1.0
43.98,36.5056,1.0,1.0,1.0
43.99,37.4944,1.0,1.0,1.0
44.0,37.9889,1.0,1.0,1.0
44.01,45.0111,1.0,1.0,1.0
44.02,50.5056,1.0,1.0,1.0
44.03,23.0,1.0,1.0,1.0
44.04,52.0,1.0,1.0,1.0
44.05,40.9778,1.0,1.0,1.0
44.06,46.0222,1.0,1.0,1.0
44.07,53.0,1.0,1.0,1.0
44.08,42.4944,1.0,1.0,1.0
44.09,36.0,1.0,1.0,1.0
44.1,31.4944,1.0,1.0,1.0
44.11,20.0111,1.0,1.0,1.0
44.12,35.9889,1.0,1.0,1.0
44.13,30.0111,1.0,1.0,1.0
44.14,37.9889,1.0,1.0,1.0
44.15,31.0,1.0,1.0,1.0
44.16,22.0111,1.0,1.0,1.0
44.17,38.0,1.0,1.0,1.0
44.18,50.0,1.0,1.0,1.0
44.19,36.0,1.0,1.0,1.0
44.2,29.9889,1.0,1.0,1.0
44.21,36.0111,1.0,1.0,1.0
44.22,43.4944,1.0,1.0,1.0
44.23,48.4944,1.0,1.0,1.0
44.24,42.5056,1.0,1.0,1.0
44.25,57.4944,1.0,1.0,1.0
44.26,62.0111,1.0,1.0,1.0
44.27,63.9889,1.0,1.0,1.0
44.28,54.0111,1.0,1.0,1.0
44.29,62.9889,1.0,1.0,1.0
44.3,58.5056,1.0,1.0,1.0
44.31,61.0,1.0,1.0,1.0
44.32,56.0,1.0,1.0,1.0
44.33,32.4944,1.0,1.0,1.0
44.34,51.0111,1.0,1.0,1.0
44.35,40.9889,1.0,1.0,1.0
44.36,37.5056,1.0,1.0,1.0
44.37,17.5056,1.0,1.0,1.0
44.38,20.4944,1.0,1.0,1.0
44.39,37.0,1.0,1.0,1.0
44.4,26.9889,1.0,1.0,1.0
44.41,40.5167,1.0,1.0,1.0
44.42,42.9889,1.0,1.0,1.0
44.43,29.0,1.0,1.0,1.0
44.44,45.0111,1.0,1.0,1.0
44.45,61.4944,1.0,1.0,1.0
44.46,73.0,1.0,1.0,1.0
44.47,79.5056,1.0,1.0,1.0
44.48,63.9889,1.0,1.0,1.0
44.49,71.0,1.0,1.0,1.0
44.5,79.0111,1.0,1.0,1.0
44.51,75.4944,1.0,1.0,1.0
44.52,81.0,1.0,1.0,1.0
44.53,62.0,1.0,1.0,1.0
44.54,50.5056,1.0,1.0,1.0
44.55,68.0,1.0,1.0,1.0
44.56,52.4833,1.0,1.0,1.0
44.57,51.5167,1.0,1.0,1.0
44.58,39.4944,1.0,1.0,1.0
44.59,22.5056,1.0,1.0,1.0
44.6,26.9889,1.0,1.0,1.0
44.61,30.0111,1.0,1.0,1.0
44.62,35.0,1.0,1.0,1.0
44.63,57.0,1.0,1.0,1.0
44.64,39.0,1.0,1.0,1.0
44.65,52.0,1.0,1.0,1.0
44.66,58.4944,1.0,1.0,1.0
44.67,78.0,1.0,1.0,1.0
44.68,61.4944,1.0,1.0,1.0
44.69,82.0,1.0,1.0,1.0
44.7,93.4944,1.0,1.0,1.0
44.71,88.5167,1.0,1.0,1.0
44.72,100.4944,1.0,1.0,1.0
44.73,92.4944,1.0,1.0,1.0
44.74,100.0111,1.0,1.0,1.0
44.75,89.4944,1.0,1.0,1.0
44.76,104.9889,1.0,1.0,1.0
44.77,69.0,1.0,1.0,1.0
44.78,51.5056,1.0,1.0,1.0
44.79,56.9889,1.0,1.0,1.0
44.8,67.5167,1.0,1.0,1.0
44.81,60.0,1.0,1.0,1.0
44.82,56.4944,1.0,1.0,1.0
44.83,36.0111,1.0,1.0,1.0
44.84,28.0,1.0,1.0,1.0
44.85,54.9778,1.0,1.0,1.0
44.86,53.0222,1.0,1.0,1.0
44.87,69.4944,1.0,1.0,1.0
44.88,79.5056,1.0,1.0,1.0
44.89,51.4944,1.0,1.0,1.0
44.9,81.5056,1.0,1.0,1.0
44.91,96.9778,1.0,1.0,1.0
44.92,107.0111,1.0,1.0,1.0
44.93,130.0,1.0,1.0,1.0
44.94,147.4944,1.0,1.0,1.0
44.95,135.4944,1.0,1.0,1.0
44.96,138.5056,1.0,1.0,1.0
44.97,150.4944,1.0,1.0,1.0
44.98,119.0222,1.0,1.0,1.0
44.99,106.4944,1.0,1.0,1.0
45.0,104.9889,1.0,1.0,1.0
45.01,92.0111,1.0,1.0,1.0
45.02,98.4944,1.0,1.0,1.0
45.03,76.0,1.0,1.0,1.0
45.04,73.0111,1.0,1.0,1.0
45.05,43.0,1.0,1.0,1.0
45.06,51.0,1.0,1.0,1.0
45.07,50.4944,1.0,1.0,1.0
45.08,45.4944,1.0,1.0,1.0
45.09,57.0,1.0,1.0,1.0
45.1,75.0,1.0,1.0,1.0
45.11,93.9889,1.0,1.0,1.0
45.12,106.0111,1.0,1.0,1.0
45.13,114.5056,1.0,1.0,1.0
45.14,155.4944,1.0,1.0,1.0
45.15,153.4944,1.0,1.0,1.0
45.16,181.5056,1.0,1.0,1.0
45.17,226.5056,1.0,1.0,1.0
45.18,195.9778,1.0,1.0,1.0
45.19,177.5056,1.0,1.0,1.0
45.2,190.4944,1.0,1.0,1.0
45.21,195.0111,1.0,1.0,1.0
45.22,163.4944,1.0,1.0,1.0
45.23,137.4944,1.0,1.0,1.0
45.24,101.5167,1.0,1.0,1.0
45.25,91.5056,1.0,1.0,1.0
45.26,77.9889,1.0,1.0,1.0
45.27,79.0111,1.0,1.0,1.0
45.28,82.4833,1.0,1.0,1.0
45.29,65.0222,1.0,1.0,1.0
45.3,73.9778,1.0,1.0,1.0
45.31,73.0111,1.0,1.0,1.0
45.32,80.0111,1.0,1.0,1.0
45.33,79.4833,1.0,1.0,1.0
45.34,108.0,1.0,1.0,1.0
45.35,148.5056,1.0,1.0,1.0
45.36,164.4611,1.0,1.0,1.0
45.37,244.5167,1.0,1.0,1.0
45.38,257.4944,1.0,1.0,1.0
45.39,251.0,1.0,1.0,1.0
45.4,325.0111,1.0,1.0,1.0
45.41,300.4944,1.0,1.0,1.0
45.42,278.0,1.0,1.0,1.0
45.43,290.5278,1.0,1.0,1.0
45.44,267.4833,1.0,1.0,1.0
45.45,232.5167,1.0,1.0,1.0
45.46,231.4833,1.0,1.0,1.0
45.47,177.9889,1.0,1.0,1.0
45.48,151.0222,1.0,1.0,1.0
45.49,116.0111,1.0,1.0,1.0
45.5,108.9889,1.0,1.0,1.0
45.51,91.5056,1.0,1.0,1.0
45.52,87.5056,1.0,1.0,1.0
45.53,80.4944,1.0,1.0,1.0
45.54,102.0,1.0,1.0,1.0
45.55,115.5056,1.0,1.0,1.0
45.56,139.9778,1.0,1.0,1.0
45.57,164.5167,1.0,1.0,1.0
45.58,226.9778,1.0,1.0,1.0
45.59,279.0,1.0,1.0,1.0
45.6,313.9556,1.0,1.0,1.0
45.61,321.0,1.0,1.0,1.0
45.62,423.5611,1.0,1.0,1.0
45.63,421.4833,1.0,1.0,1.0
45.64,425.0,1.0,1.0,1.0
45.65,485.9889,1.0,1.0,1.0
45.66,410.0,1.0,1.0,1.0
45.67,446.9889,1.0,1.0,1.0
45.68,363.5389,1.0,1.0,1.0
45.69,381.9445,1.0,1.0,1.0
45.7,311.0333,1.0,1.0,1.0
45.71,250.5056,1.0,1.0,1.0
45.72,189.0222,1.0,1.0,1.0
45.73,130.5056,1.0,1.0,1.0
45.74,131.4833,1.0,1.0,1.0
45.75,129.0,1.0,1.0,1.0
45.76,114.5167,1.0,1.0,1.0
45.77,95.4833,1.0,1.0,1.0
45.78,164.5167,1.0,1.0,1.0
45.79,190.9445,1.0,1.0,1.0
45.8,246.5278,1.0,1.0,1.0
45.81,324.9889,1.0,1.0,1.0
45.82,432.5056,1.0,1.0,1.0
45.83,465.4944,1.0,1.0,1.0
45.84,582.9667,1.0,1.0,1.0
45.85,675.4833,1.0,1.0,1.0
45.86,806.5056,1.0,1.0,1.0
45.87,792.4611,1.0,1.0,1.0
45.88,814.4944,1.0,1.0,1.0
45.89,784.0667,1.0,1.0,1.0
45.9,832.9667,1.0,1.0,1.0
45.91,734.5389,1.0,1.0,1.0
45.92,685.9778,1.0,1.0,1.0
45.93,571.0222,1.0,1.0,1.0
45.94,567.0,1.0,1.0,1.0
45.95,403.5056,1.0,1.0,1.0
45.96,324.0333,1.0,1.0,1.0
45.97,253.0,1.0,1.0,1.0
45.98,202.9889,1.0,1.0,1.0
45.99,177.5167,1.0,1.0,1.0
46.0,210.4833,1.0,1.0,1.0
46.01,233.5056,1.0,1.0,1.0
46.02,311.9667,1.0,1.0,1.0
46.03,453.0,1.0,1.0,1.0
46.04,562.4944,1.0,1.0,1.0
46.05,733.9667,1.0,1.0,1.0
46.06,968.9889,1.0,1.0,1.0
46.07,1182.94,1.0,1.0,1.0
46.08,1345.97,1.0,1.0,1.0
46.09,1621.47,1.0,1.0,1.0
46.1,1735.56,1.0,1.0,1.0
46.11,1804.45,1.0,1.0,1.0
46.12,1879.0,1.0,1.0,1.0
46.13,1888.02,1.0,1.0,1.0
46.14,1886.41,1.0,1.0,1.0
46.15,1864.62,1.0,1.0,1.0
46.16,1714.59,1.0,1.0,1.0
46.17,1491.42,1.0,1.0,1.0
46.18,1292.49,1.0,1.0,1.0
46.19,1108.03,1.0,1.0,1.0
46.2,936.5278,1.0,1.0,1.0
46.21,897.0444,1.0,1.0,1.0
46.22,756.45,1.0,1.0,1.0
46.23,815.9889,1.0,1.0,1.0
46.24,1040.98,1.0,1.0,1.0
46.25,1387.43,1.0,1.0,1.0
46.26,1852.49,1.0,1.0,1.0
46.27,2620.88,1.0,1.0,1.0
46.28,3521.38,1.0,1.0,1.0
46.29,4490.99,1.0,1.0,1.0
46.3,6285.66,1.0,1.0,1.0
46.31,8290.34,1.0,1.0,1.0
46.32,10753.6,1.0,1.0,1.0
46.33,14827.7,1.0,1.0,1.0
46.34,19231.7,1.0,1.0,1.0
46.35,26061.5,1.0,1.0,1.0
46.36,35267.8,1.0,1.0,1.0
46.37,47535.8,1.0,1.0,1.0
46.38,66740.1,1.0,1.0,1.0
46.39,99405.7,1.0,1.0,1.0
46.4,164124,1.0,1.0,1.0
46.41,279085.125,1.0,1.0,1.0
46.42,479376,1.0,1.0,1.0
46.43,784824.875,1.0,1.0,1.0
46.44,1275508.625,1.0,1.0,1.0
46.45,2125547.25,1.0,1.0,1.0
46.46,3639195.5,1.0,1.0,1.0
46.47,6699374.0,1.0,1.0,1.0
46.48,17550426.0,1.0,1.0,1.0
46.49,35285444.0,1.0,1.0,1.0
46.5,22982656.0,1.0,1.0,1.0
46.51,8427239.0,1.0,1.0,1.0
46.52,3772168.75,1.0,1.0,1.0
46.53,1927354.5,1.0,1.0,1.0
46.54,1078117.125,1.0,1.0,1.0
46.55,610449,1.0,1.0,1.0
46.56,338374.375,1.0,1.0,1.0
46.57,180768,1.0,1.0,1.0
46.58,99642,1.0,1.0,1.0
46.59,63341.3,1.0,1.0,1.0
46.6,48431.7,1.0,1.0,1.0
46.61,42539.1,1.0,1.0,1.0
46.62,40764.9,1.0,1.0,1.0
46.63,43089.3,1.0,1.0,1.0
46.64,47657.1,1.0,1.0,1.0
46.65,53976.9,1.0,1.0,1.0
46.66,62060.4,1.0,1.0,1.0
46.67,70551.4,1.0,1.0,1.0
46.68,80411.9,1.0,1.0,1.0
46.69,90499.4,1.0,1.0,1.0
46.7,101005,1.0,1.0,1.0
46.71,111396,1.0,1.0,1.0
46.72,121680,1.0,1.0,1.0
46.73,131536,1.0,1.0,1.0
46.74,140784,1.0,1.0,1.0
46.75,149677,1.0,1.0,1.0
46.76,156716,1.0,1.0,1.0
46.77,162375,1.0,1.0,1.0
46.78,166134,1.0,1.0,1.0
46.79,169040,1.0,1.0,1.0
46.8,170819,1.0,1.0,1.0
46.81,169519,1.0,1.0,1.0
46.82,166466,1.0,1.0,1.0
46.83,163194,1.0,1.0,1.0
46.84,157385,1.0,1.0,1.0
46.85,149875,1.0,1.0,1.0
46.86,141754,1.0,1.0,1.0
46.87,132099,1.0,1.0,1.0
46.88,122964,1.0,1.0,1.0
46.89,111947,1.0,1.0,1.0
46.9,101071,1.0,1.0,1.0
46.91,89488.8,1.0,1.0,1.0
46.92,78669,1.0,1.0,1.0
46.93,68619.7,1.0,1.0,1.0
46.94,58426.2,1.0,1.0,1.0
46.95,49038.668,1.0,1.0,1.0
46.96,40983.3,1.0,1.0,1.0
46.97,32680.2,1.0,1.0,1.0
46.98,25575.1,1.0,1.0,1.0
46.99,19973,1.0,1.0,1.0
47.0,14563,1.0,1.0,1.0
47.01,10695.4,1.0,1.0,1.0
47.02,7526.89,1.0,1.0,1.0
47.03,5311.24,1.0,1.0,1.0
47.04,3698.04,1.0,1.0,1.0
47.05,2697.98,1.0,1.0,1.0
47.06,2275.65,1.0,1.0,1.0
47.07,2239.92,1.0,1.0,1.0
47.08,2517.0,1.0,1.0,1.0
47.09,2970.53,1.0,1.0,1.0
47.1,3581.88,1.0,1.0,1.0
47.11,4061.31,1.0,1.0,1.0
47.12,4603.38,1.0,1.0,1.0
47.13,4969.16,1.0,1.0,1.0
47.14,5233.47,1.0,1.0,1.0
47.15,5392.46,1.0,1.0,1.0
47.16,5174.98,1.0,1.0,1.0
47.17,5030.58,1.0,1.0,1.0
47.18,4665.99,1.0,1.0,1.0
47.19,4288.58,1.0,1.0,1.0
47.2,3712.65,1.0,1.0,1.0
47.21,3199.01,1.0,1.0,1.0
47.22,2637.65,1.0,1.0,1.0
47.23,2042.02,1.0,1.0,1.0
47.24,1585.47,1.0,1.0,1.0
47.25,1175.07,1.0,1.0,1.0
47.26,846.55,1.0,1.0,1.0
47.27,662.4833,1.0,1.0,1.0
47.28,541.0333,1.0,1.0,1.0
47.29,508.5167,1.0,1.0,1.0
47.3,589.9778,1.0,1.0,1.0
47.31,731.4611,1.0,1.0,1.0
47.32,897.5056,1.0,1.0,1.0
47.33,1041.98,1.0,1.0,1.0
47.34,1325.48,1.0,1.0,1.0
47.35,1514.41,1.0,1.0,1.0
47.36,1596.98,1.0,1.0,1.0
47.37,1770.04,1.0,1.0,1.0
47.38,1936.97,1.0,1.0,1.0
47.39,1889.55,1.0,1.0,1.0
47.4,1814.45,1.0,1.0,1.0
47.41,1806.52,1.0,1.0,1.0
47.42,1689.54,1.0,1.0,1.0
47.43,1535.49,1.0,1.0,1.0
47.44,1392.07,1.0,1.0,1.0
47.45,1130.02,1.0,1.0,1.0
47.46,890.5167,1.0,1.0,1.0
47.47,672.0333,1.0,1.0,1.0
47.48,608.4833,1.0,1.0,1.0
47.49,412.0111,1.0,1.0,1.0
47.5,327.5278,1.0,1.0,1.0
47.51,267.9778,1.0,1.0,1.0
47.52,200.0222,1.0,1.0,1.0
47.53,222.5056,1.0,1.0,1.0
47.54,283.9889,1.0,1.0,1.0
47.55,331.4722,1.0,1.0,1.0
47.56,473.4944,1.0,1.0,1.0
47.57,586.0222,1.0,1.0,1.0
47.58,632.9889,1.0,1.0,1.0
47.59,786.4611,1.0,1.0,1.0
47.6,820.9889,1.0,1.0,1.0
47.61,943.5056,1.0,1.0,1.0
47.62,931.9889,1.0,1.0,1.0
47.63,921.4833,1.0,1.0,1.0
47.64,954.5167,1.0,1.0,1.0
47.65,879.5167,1.0,1.0,1.0
47.66,817.0111,1.0,1.0,1.0
47.67,722.4944,1.0,1.0,1.0
47.68,652.5278,1.0,1.0,1.0
47.69,539.0111,1.0,1.0,1.0
47.7,440.0111,1.0,1.0,1.0
47.71,370.4833,1.0,1.0,1.0
47.72,287.0,1.0,1.0,1.0
47.73,204.5278,1.0,1.0,1.0
47.74,158.0,1.0,1.0,1.0
47.75,142.5056,1.0,1.0,1.0
47.76,149.4944,1.0,1.0,1.0
47.77,140.0111,1.0,1.0,1.0
47.78,191.9667,1.0,1.0,1.0
47.79,225.0333,1.0,1.0,1.0
47.8,301.9778,1.0,1.0,1.0
47.81,333.9889,1.0,1.0,1.0
47.82,395.9889,1.0,1.0,1.0
47.83,409.0,1.0,1.0,1.0
47.84,492.5056,1.0,1.0,1.0
47.85,489.5056,1.0,1.0,1.0
47.86,529.4944,1.0,1.0,1.0
47.87,558.4833,1.0,1.0,1.0
47.88,487.0333,1.0,1.0,1.0
47.89,485.9778,1.0,1.0,1.0
47.9,429.4833,1.0,1.0,1.0
47.91,370.5389,1.0,1.0,1.0
47.92,334.0,1.0,1.0,1.0
47.93,299.4944,1.0,1.0,1.0
47.94,199.0111,1.0,1.0,1.0
47.95,191.5167,1.0,1.0,1.0
47.96,189.0,1.0,1.0,1.0
47.97,106.5056,1.0,1.0,1.0
47.98,110.9889,1.0,1.0,1.0
47.99,74.0111,1.0,1.0,1.0
48.0,86.4833,1.0,1.0,1.0
48.01,116.4944,1.0,1.0,1.0
48.02,129.5056,1.0,1.0,1.0
48.03,165.4944,1.0,1.0,1.0
48.04,186.0,1.0,1.0,1.0
48.05,241.0,1.0,1.0,1.0
48.06,235.5056,1.0,1.0,1.0
48.07,256.9889,1.0,1.0,1.0
48.08,339.0111,1.0,1.0,1.0
48.09,275.9889,1.0,1.0,1.0
48.1,304.9889,1.0,1.0,1.0
48.11,300.0,1.0,1.0,1.0
48.12,289.0222,1.0,1.0,1.0
48.13,268.9889,1.0,1.0,1.0
48.14,294.0111,1.0,1.0,1.0
48.15,218.4833,1.0,1.0,1.0
48.16,199.0333,1.0,1.0,1.0
48.17,168.4833,1.0,1.0,1.0
48.18,134.5056,1.0,1.0,1.0
48.19,114.5056,1.0,1.0,1.0
48.2,91.5056,1.0,1.0,1.0
48.21,97.9889,1.0,1.0,1.0
48.22,48.5167,1.0,1.0,1.0
48.23,57.0,1.0,1.0,1.0
48.24,74.4944,1.0,1.0,1.0
48.25,92.4944,1.0,1.0,1.0
48.26,89.0111,1.0,1.0,1.0
48.27,109.9889,1.0,1.0,1.0
48.28,114.0111,1.0,1.0,1.0
48.29,117.4944,1.0,1.0,1.0
48.3,143.9778,1.0,1.0,1.0
48.31,146.5056,1.0,1.0,1.0
48.32,191.5056,1.0,1.0,1.0
48.33,181.5056,1.0,1.0,1.0
48.34,195.9889,1.0,1.0,1.0
48.35,182.0,1.0,1.0,1.0
48.36,177.5056,1.0,1.0,1.0
48.37,133.0111,1.0,1.0,1.0
48.38,127.5056,1.0,1.0,1.0
48.39,145.0,1.0,1.0,1.0
48.4,116.4833,1.0,1.0,1.0
48.41,220.5056,1.0,1.0,1.0
48.42,80.5056,1.0,1.0,1.0
48.43,55.4944,1.0,1.0,1.0
48.44,88.0111,1.0,1.0,1.0
48.45,47.9778,1.0,1.0,1.0
48.46,53.0222,1.0,1.0,1.0
48.47,66.0,1.0,1.0,1.0
48.48,41.0,1.0,1.0,1.0
48.49,45.9889,1.0,1.0,1.0
48.5,87.5056,1.0,1.0,1.0
48.51,72.9889,1.0,1.0,1.0
48.52,88.5056,1.0,1.0,1.0
48.53,109.4944,1.0,1.0,1.0
48.54,126.0,1.0,1.0,1.0
48.55,112.9889,1.0,1.0,1.0
48.56,104.0111,1.0,1.0,1.0
48.57,108.0111,1.0,1.0,1.0
48.58,128.9889,1.0,1.0,1.0
48.59,128.0,1.0,1.0,1.0
48.6,107.0111,1.0,1.0,1.0
48.61,102.4722,1.0,1.0,1.0
48.62,88.0222,1.0,1.0,1.0
48.63,78.0,1.0,1.0,1.0
48.64,86.5056,1.0,1.0,1.0
48.65,66.4833,1.0,1.0,1.0
48.66,52.0222,1.0,1.0,1.0
48.67,49.4944,1.0,1.0,1.0
48.68,41.5056,1.0,1.0,1.0
48.69,32.0,1.0,1.0,1.0
48.7,40.9889,1.0,1.0,1.0
48.71,39.5056,1.0,1.0,1.0
48.72,30.0,1.0,1.0,1.0
48.73,62.4944,1.0,1.0,1.0
48.74,62.0111,1.0,1.0,1.0
48.75,60.4944,1.0,1.0,1.0
48.76,59.4944,1.0,1.0,1.0
48.77,86.0,1.0,1.0,1.0
48.78,83.0,1.0,1.0,1.0
48.79,83.5056,1.0,1.0,1.0
48.8,78.0,1.0,1.0,1.0
48.81,83.4944,1.0,1.0,1.0
48.82,92.9889,1.0,1.0,1.0
48.83,67.5167,1.0,1.0,1.0
48.84,74.0,1.0,1.0,1.0
48.85,58.4944,1.0,1.0,1.0
48.86,61.5056,1.0,1.0,1.0
48.87,51.0,1.0,1.0,1.0
48.88,63.4944,1.0,1.0,1.0
48.89,24.0111,1.0,1.0,1.0
48.9,38.4944,1.0,1.0,1.0
48.91,22.5056,1.0,1.0,1.0
48.92,23.0,1.0,1.0,1.0
48.93,33.0,1.0,1.0,1.0
48.94,29.4944,1.0,1.0,1.0
48.95,48.5056,1.0,1.0,1.0
48.96,34.0,1.0,1.0,1.0
48.97,54.9889,1.0,1.0,1.0
48.98,42.4944,1.0,1.0,1.0
48.99,48.0111,1.0,1.0,1.0
49.0,45.4944,1.0,1.0,1.0
49.01,53.0111,1.0,1.0,1.0
49.02,62.0,1.0,1.0,1.0
49.03,66.9889,1.0,1.0,1.0
49.04,53.0111,1.0,1.0,1.0
49.05,37.4944,1.0,1.0,1.0
49.06,41.5056,1.0,1.0,1.0
49.07,34.4944,1.0,1.0,1.0
49.08,33.0,1.0,1.0,1.0
49.09,38.9889,1.0,1.0,1.0
49.1,35.5167,1.0,1.0,1.0
49.11,36.4944,1.0,1.0,1.0
49.12,31.5056,1.0,1.0,1.0
49.13,24.0,1.0,1.0,1.0
49.14,30.9889,1.0,1.0,1.0
49.15,35.5056,1.0,1.0,1.0
49.16,16.0,1.0,1.0,1.0
49.17,19.5056,1.0,1.0,1.0
49.18,33.0,1.0,1.0,1.0
49.19,24.4944,1.0,1.0,1.0
49.2,30.4944,1.0,1.0,1.0
49.21,41.0111,1.0,1.0,1.0
49.22,28.0,1.0,1.0,1.0
49.23,44.4944,1.0,1.0,1.0
49.24,42.5056,1.0,1.0,1.0
49.25,39.0,1.0,1.0,1.0
49.26,41.4944,1.0,1.0,1.0
49.27,28.5056,1.0,1.0,1.0
49.28,34.4944,1.0,1.0,1.0
49.29,35.0,1.0,1.0,1.0
49.3,35.4944,1.0,1.0,1.0
49.31,36.0,1.0,1.0,1.0
49.32,28.0111,1.0,1.0,1.0
49.33,20.0,1.0,1.0,1.0
49.34,27.4944,1.0,1.0,1.0
49.35,15.5056,1.0,1.0,1.0
49.36,11.4944,1.0,1.0,1.0
49.37,20.5056,1.0,1.0,1.0
49.38,28.0,1.0,1.0,1.0
49.39,20.9889,1.0,1.0,1.0
49.4,31.0111,1.0,1.0,1.0
49.41,19.0,1.0,1.0,1.0
49.42,25.4944,1.0,1.0,1.0
49.43,17.0,1.0,1.0,1.0
49.44,23.0,1.0,1.0,1.0
49.45,17.5056,1.0,1.0,1.0
49.46,11.0,1.0,1.0,1.0
49.47,32.0,1.0,1.0,1.0
49.48,13.0,1.0,1.0,1.0
49.49,26.4944,1.0,1.0,1.0
49.5,24.0,1.0,1.0,1.0
49.51,28.5056,1.0,1.0,1.0
49.52,25.0,1.0,1.0,1.0
49.53,30.0,1.0,1.0,1.0
49.54,26.4944,1.0,1.0,1.0
49.55,19.5056,1.0,1.0,1.0
49.56,28.0,1.0,1.0,1.0
49.57,23.4944,1.0,1.0,1.0
49.58,29.0,1.0,1.0,1.0
49.59,19.5056,1.0,1.0,1.0
49.6,23.0,1.0,1.0,1.0
49.61,27.4833,1.0,1.0,1.0
49.62,23.5167,1.0,1.0,1.0
49.63,21.9889,1.0,1.0,1.0
49.64,9.5056,1.0,1.0,1.0
49.65,24.0,1.0,1.0,1.0
49.66,12.4944,1.0,1.0,1.0
49.67,24.0,1.0,1.0,1.0
49.68,17.5056,1.0,1.0,1.0
49.69,20.5056,1.0,1.0,1.0
49.7,17.0,1.0,1.0,1.0
49.71,34.0,1.0,1.0,1.0
49.72,19.0,1.0,1.0,1.0
49.73,25.4944,1.0,1.0,1.0
49.74,32.0,1.0,1.0,1.0
49.75,8.5056,1.0,1.0,1.0
49.76,26.0,1.0,1.0,1.0
49.77,16.0,1.0,1.0,1.0
49.78,14.0,1.0,1.0,1.0
49.79,10.4944,1.0,1.0,1.0
49.8,16.5056,1.0,1.0,1.0
49.81,11.0,1.0,1.0,1.0
49.82,10.0,1.0,1.0,1.0
49.83,19.0,1.0,1.0,1.0
49.84,12.4944,1.0,1.0,1.0
49.85,12.5056,1.0,1.0,1.0
49.86,11.0,1.0,1.0,1.0
49.87,14.0,1.0,1.0,1.0
49.88,9.0,1.0,1.0,1.0
49.89,17.0,1.0,1.0,1.0
49.9,19.4944,1.0,1.0,1.0
49.91,15.5056,1.0,1.0,1.0
49.92,21.0,1.0,1.0,1.0
49.93,27.0,1.0,1.0,1.0
49.94,12.4944,1.0,1.0,1.0
49.95,21.5056,1.0,1.0,1.0
49.96,25.0,1.0,1.0,1.0
49.97,7.0,1.0,1.0,1.0
49.98,17.0,1.0,1.0,1.0
49.99,13.0,1.0,1.0,1.0
50.0,20.0,1.0,1.0,1.0
50.01,15.0,1.0,1.0,1.0
50.02,14.4944,1.0,1.0,1.0
50.03,12.4944,1.0,1.0,1.0
50.04,12.0111,1.0,1.0,1.0
50.05,10.0,1.0,1.0,1.0
50.06,8.0,1.0,1.0,1.0
50.07,6.0,1.0,1.0,1.0
50.08,19.4944,1.0,1.0,1.0
50.09,15.0,1.0,1.0,1.0
50.1,12.0,1.0,1.0,1.0
50.11,21.5056,1.0,1.0,1.0
50.12,6.0,1.0,1.0,1.0
50.13,13.0,1.0,1.0,1.0
50.14,13.0,1.0,1.0,1.0
50.15,16.9889,1.0,1.0,1.0
50.16,9.0,1.0,1.0,1.0
50.17,17.0111,1.0,1.0,1.0
50.18,15.0,1.0,1.0,1.0
50.19,18.0,1.0,1.0,1.0
50.2,20.0,1.0,1.0,1.0
50.21,8.0,1.0,1.0,1.0
50.22,8.0,1.0,1.0,1.0
50.23,7.4944,1.0,1.0,1.0
50.24,12.5056,1.0,1.0,1.0
50.25,8.4944,1.0,1.0,1.0
50.26,14.5056,1.0,1.0,1.0
50.27,10.0,1.0,1.0,1.0
50.28,5.0,1.0,1.0,1.0
50.29,10.0,1.0,1.0,1.0
50.3,12.4944,1.0,1.0,1.0
50.31,5.5056,1.0,1.0,1.0
50.32,18.0,1.0,1.0,1.0
50.33,10.0,1.0,1.0,1.0
50.34,15.0,1.0,1.0,1.0
50.35,3.4944,1.0,1.0,1.0
50.36,21.0,1.0,1.0,1.0
50.37,21.5056,1.0,1.0,1.0
50.38,12.0,1.0,1.0,1.0
50.39,10.0,1.0,1.0,1.0
50.4,16.0,1.0,1.0,1.0
50.41,5.4944,1.0,1.0,1.0
50.42,10.5056,1.0,1.0,1.0
50.43,8.0,1.0,1.0,1.0
50.44,13.9889,1.0,1.0,1.0
50.45,17.5056,1.0,1.0,1.0
50.46,9.5056,1.0,1.0,1.0
50.47,6.0,1.0,1.0,1.0
50.48,13.9889,1.0,1.0,1.0
50.49,13.5056,1.0,1.0,1.0
50.5,9.5056,1.0,1.0,1.0
50.51,14.0,1.0,1.0,1.0
50.52,14.0,1.0,1.0,1.0
50.53,6.0,1.0,1.0,1.0
50.54,5.0,1.0,1.0,1.0
50.55,3.0,1.0,1.0,1.0
50.56,7.4944,1.0,1.0,1.0
50.57,7.5056,1.0,1.0,1.0
50.58,5.0,1.0,1.0,1.0
50.59,6.0,1.0,1.0,1.0
50.6,15.0,1.0,1.0,1.0
50.61,15.0,1.0,1.0,1.0
50.62,7.0,1.0,1.0,1.0
50.63,12.0,1.0,1.0,1.0
50.64,6.0,1.0,1.0,1.0
50.65,7.0,1.0,1.0,1.0
50.66,12.0,1.0,1.0,1.0
50.67,12.0,1.0,1.0,1.0
50.68,11.0,1.0,1.0,1.0
50.69,9.0,1.0,1.0,1.0
50.7,8.0,1.0,1.0,1.0
50.71,14.0,1.0,1.0,1.0
50.72,7.0,1.0,1.0,1.0
50.73,9.9889,1.0,1.0,1.0
50.74,13.5056,1.0,1.0,1.0
50.75,11.5056,1.0,1.0,1.0
50.76,9.0,1.0,1.0,1.0
50.77,5.0,1.0,1.0,1.0
50.78,4.0,1.0,1.0,1.0
50.79,12.0,1.0,1.0,1.0
50.8,10.0,1.0,1.0,1.0
50.81,7.0,1.0,1.0,1.0
50.82,15.0,1.0,1.0,1.0
50.83,8.4944,1.0,1.0,1.0
50.84,1.5056,1.0,1.0,1.0
50.85,13.4944,1.0,1.0,1.0
50.86,5.5056,1.0,1.0,1.0
50.87,14.0,1.0,1.0,1.0
50.88,6.0,1.0,1.0,1.0
50.89,15.0,1.0,1.0,1.0
50.9,7.0,1.0,1.0,1.0
50.91,7.0,1.0,1.0,1.0
50.92,8.0,1.0,1.0,1.0
50.93,2.4944,1.0,1.0,1.0
50.94,6.5056,1.0,1.0,1.0
50.95,13.0,1.0,1.0,1.0
50.96,2.0,1.0,1.0,1.0
50.97,4.0,1.0,1.0,1.0
50.98,9.4944,1.0,1.0,1.0
50.99,1.5056,1.0,1.0,1.0
51.0,4.0,1.0,1.0,1.0
51.01,7.0,1.0,1.0,1.0
51.02,8.0,1.0,1.0,1.0
51.03,6.0,1.0,1.0,1.0
51.04,10.4944,1.0,1.0,1.0
51.05,8.5056,1.0,1.0,1.0
51.06,8.0,1.0,1.0,1.0
51.07,10.0,1.0,1.0,1.0
51.08,6.0,1.0,1.0,1.0
51.09,9.0,1.0,1.0,1.0
51.1,14.0,1.0,1.0,1.0
51.11,10.0,1.0,1.0,1.0
51.12,5.0,1.0,1.0,1.0
51.13,4.0,1.0,1.0,1.0
51.14,12.0,1.0,1.0,1.0
51.15,15.0,1.0,1.0,1.0
51.16,12.4944,1.0,1.0,1.0
51.17,6.5056,1.0,1.0,1.0
51.18,10.0,1.0,1.0,1.0
51.19,9.0,1.0,1.0,1.0
51.2,9.0,1.0,1.0,1.0
51.21,14.0,1.0,1.0,1.0
51.22,7.4944,1.0,1.0,1.0
51.23,10.5056,1.0,1.0,1.0
51.24,4.0,1.0,1.0,1.0
51.25,7.0,1.0,1.0,1.0
51.26,7.0,1.0,1.0,1.0
51.27,10.0,1.0,1.0,1.0
51.28,0.4944,1.0,1.0,1.0
51.29,11.5056,1.0,1.0,1.0
51.3,11.0,1.0,1.0,1.0
51.31,1.0,1.0,1.0,1.0
51.32,5.0,1.0,1.0,1.0
51.33,5.0,1.0,1.0,1.0
51.34,16.4944,1.0,1.0,1.0
51.35,7.5056,1.0,1.0,1.0
51.36,5.0,1.0,1.0,1.0
51.37,5.0,1.0,1.0,1.0
51.38,5.4944,1.0,1.0,1.0
51.39,8.5056,1.0,1.0,1.0
51.4,9.0,1.0,1.0,1.0
51.41,6.0,1.0,1.0,1.0
51.42,8.0,1.0,1.0,1.0
51.43,12.0,1.0,1.0,1.0
51.44,4.0,1.0,1.0,1.0
51.45,9.9889,1.0,1.0,1.0
51.46,7.0111,1.0,1.0,1.0
51.47,3.0,1.0,1.0,1.0
51.48,2.0,1.0,1.0,1.0
51.49,0.0,1.0,1.0,1.0
51.5,3.0,1.0,1.0,1.0
51.51,13.0,1.0,1.0,1.0
51.52,1.9889,1.0,1.0,1.0
51.53,13.0111,1.0,1.0,1.0
51.54,6.0,1.0,1.0,1.0
51.55,9.0,1.0,1.0,1.0
51.56,2.0,1.0,1.0,1.0
51.57,4.0,1.0,1.0,1.0
51.58,1.0,1.0,1.0,1.0
51.59,5.0,1.0,1.0,1.0
51.6,8.0,1.0,1.0,1.0
51.61,3.0,1.0,1.0,1.0
51.62,5.0,1.0,1.0,1.0
51.63,6.0,1.0,1.0,1.0
51.64,1.9889,1.0,1.0,1.0
51.65,5.0111,1.0,1.0,1.0
51.66,4.0,1.0,1.0,1.0
51.67,2.0,1.0,1.0,1.0
51.68,5.0,1.0,1.0,1.0
51.69,5.0,1.0,1.0,1.0
51.7,11.0,1.0,1.0,1.0
51.71,3.0,1.0,1.0,1.0
51.72,8.0,1.0,1.0,1.0
51.73,15.0,1.0,1.0,1.0
51.74,8.4944,1.0,1.0,1.0
51.75,4.5056,1.0,1.0,1.0
51.76,5.0,1.0,1.0,1.0
51.77,15.0,1.0,1.0,1.0
51.78,7.4944,1.0,1.0,1.0
51.79,6.0,1.0,1.0,1.0
51.8,2.5056,1.0,1.0,1.0
51.81,6.0,1.0,1.0,1.0
51.82,6.4944,1.0,1.0,1.0
51.83,0.5056,1.0,1.0,1.0
51.84,8.0,1.0,1.0,1.0
51.85,12.0,1.0,1.0,1.0
51.86,6.0,1.0,1.0,1.0
51.87,4.0,1.0,1.0,1.0
51.88,7.9889,1.0,1.0,1.0
51.89,12.0111,1.0,1.0,1.0
51.9,3.0,1.0,1.0,1.0
51.91,0.0,1.0,1.0,1.0
51.92,7.4944,1.0,1.0,1.0
51.93,10.5056,1.0,1.0,1.0
51.94,11.0,1.0,1.0,1.0
51.95,9.0,1.0,1.0,1.0
51.96,9.0,1.0,1.0,1.0
51.97,2.0,1.0,1.0,1.0
51.98,7.0,1.0,1.0,1.0
51.99,4.0,1.0,1.0,1.0
52.0,5.0,1.0,1.0,1.0