File: XRD:XRR/SCO/22133_SCOT/22133_SCOT_XRD_002.csv
#twotheta, yobs, ycal, bkg, diff
42.0,18.0,1.0,1.0,1.0
42.01,23.5056,1.0,1.0,1.0
42.02,18.0,1.0,1.0,1.0
42.03,15.0,1.0,1.0,1.0
42.04,9.0,1.0,1.0,1.0
42.05,9.9889,1.0,1.0,1.0
42.06,13.5056,1.0,1.0,1.0
42.07,22.0,1.0,1.0,1.0
42.08,23.0,1.0,1.0,1.0
42.09,18.5056,1.0,1.0,1.0
42.1,8.0,1.0,1.0,1.0
42.11,23.4944,1.0,1.0,1.0
42.12,13.0,1.0,1.0,1.0
42.13,10.0,1.0,1.0,1.0
42.14,7.5056,1.0,1.0,1.0
42.15,12.0,1.0,1.0,1.0
42.16,6.0,1.0,1.0,1.0
42.17,12.0,1.0,1.0,1.0
42.18,6.4944,1.0,1.0,1.0
42.19,12.0,1.0,1.0,1.0
42.2,24.0,1.0,1.0,1.0
42.21,13.0,1.0,1.0,1.0
42.22,17.5056,1.0,1.0,1.0
42.23,7.0,1.0,1.0,1.0
42.24,6.4944,1.0,1.0,1.0
42.25,11.5056,1.0,1.0,1.0
42.26,12.0,1.0,1.0,1.0
42.27,8.0,1.0,1.0,1.0
42.28,15.0,1.0,1.0,1.0
42.29,10.0,1.0,1.0,1.0
42.3,11.0,1.0,1.0,1.0
42.31,16.0,1.0,1.0,1.0
42.32,7.0,1.0,1.0,1.0
42.33,6.4944,1.0,1.0,1.0
42.34,7.5056,1.0,1.0,1.0
42.35,8.0,1.0,1.0,1.0
42.36,0.4944,1.0,1.0,1.0
42.37,11.5056,1.0,1.0,1.0
42.38,9.0,1.0,1.0,1.0
42.39,7.0,1.0,1.0,1.0
42.4,12.0,1.0,1.0,1.0
42.41,5.9889,1.0,1.0,1.0
42.42,4.0111,1.0,1.0,1.0
42.43,6.0,1.0,1.0,1.0
42.44,11.0,1.0,1.0,1.0
42.45,18.4944,1.0,1.0,1.0
42.46,6.5056,1.0,1.0,1.0
42.47,6.0,1.0,1.0,1.0
42.48,3.0,1.0,1.0,1.0
42.49,6.0,1.0,1.0,1.0
42.5,3.0,1.0,1.0,1.0
42.51,10.4944,1.0,1.0,1.0
42.52,8.5056,1.0,1.0,1.0
42.53,8.0,1.0,1.0,1.0
42.54,8.0,1.0,1.0,1.0
42.55,13.0,1.0,1.0,1.0
42.56,2.0,1.0,1.0,1.0
42.57,9.0,1.0,1.0,1.0
42.58,6.0,1.0,1.0,1.0
42.59,12.0,1.0,1.0,1.0
42.6,8.9889,1.0,1.0,1.0
42.61,4.5056,1.0,1.0,1.0
42.62,9.5056,1.0,1.0,1.0
42.63,18.0,1.0,1.0,1.0
42.64,7.0,1.0,1.0,1.0
42.65,7.0,1.0,1.0,1.0
42.66,8.0,1.0,1.0,1.0
42.67,7.0,1.0,1.0,1.0
42.68,20.0,1.0,1.0,1.0
42.69,5.0,1.0,1.0,1.0
42.7,18.4944,1.0,1.0,1.0
42.71,18.5056,1.0,1.0,1.0
42.72,7.4944,1.0,1.0,1.0
42.73,11.5056,1.0,1.0,1.0
42.74,16.0,1.0,1.0,1.0
42.75,13.0,1.0,1.0,1.0
42.76,8.0,1.0,1.0,1.0
42.77,13.0,1.0,1.0,1.0
42.78,10.0,1.0,1.0,1.0
42.79,17.0,1.0,1.0,1.0
42.8,9.0,1.0,1.0,1.0
42.81,8.4944,1.0,1.0,1.0
42.82,12.5056,1.0,1.0,1.0
42.83,21.0,1.0,1.0,1.0
42.84,13.9889,1.0,1.0,1.0
42.85,17.5056,1.0,1.0,1.0
42.86,21.5056,1.0,1.0,1.0
42.87,10.9889,1.0,1.0,1.0
42.88,17.0111,1.0,1.0,1.0
42.89,8.0,1.0,1.0,1.0
42.9,24.0,1.0,1.0,1.0
42.91,17.0,1.0,1.0,1.0
42.92,27.4944,1.0,1.0,1.0
42.93,11.5056,1.0,1.0,1.0
42.94,21.0,1.0,1.0,1.0
42.95,26.0,1.0,1.0,1.0
42.96,8.0,1.0,1.0,1.0
42.97,28.4944,1.0,1.0,1.0
42.98,27.4944,1.0,1.0,1.0
42.99,27.5056,1.0,1.0,1.0
43.0,19.5056,1.0,1.0,1.0
43.01,32.9889,1.0,1.0,1.0
43.02,21.0111,1.0,1.0,1.0
43.03,24.4944,1.0,1.0,1.0
43.04,24.4944,1.0,1.0,1.0
43.05,31.0111,1.0,1.0,1.0
43.06,18.0,1.0,1.0,1.0
43.07,33.0,1.0,1.0,1.0
43.08,24.0,1.0,1.0,1.0
43.09,21.4944,1.0,1.0,1.0
43.1,29.9889,1.0,1.0,1.0
43.11,30.5167,1.0,1.0,1.0
43.12,19.0,1.0,1.0,1.0
43.13,31.0,1.0,1.0,1.0
43.14,15.0,1.0,1.0,1.0
43.15,17.0,1.0,1.0,1.0
43.16,22.4944,1.0,1.0,1.0
43.17,13.5056,1.0,1.0,1.0
43.18,19.0,1.0,1.0,1.0
43.19,27.0,1.0,1.0,1.0
43.2,29.4944,1.0,1.0,1.0
43.21,40.5056,1.0,1.0,1.0
43.22,26.0,1.0,1.0,1.0
43.23,31.4944,1.0,1.0,1.0
43.24,15.5056,1.0,1.0,1.0
43.25,16.0,1.0,1.0,1.0
43.26,17.9889,1.0,1.0,1.0
43.27,21.5056,1.0,1.0,1.0
43.28,22.0,1.0,1.0,1.0
43.29,11.5056,1.0,1.0,1.0
43.3,11.4944,1.0,1.0,1.0
43.31,28.5056,1.0,1.0,1.0
43.32,21.0,1.0,1.0,1.0
43.33,17.0,1.0,1.0,1.0
43.34,11.0,1.0,1.0,1.0
43.35,14.0,1.0,1.0,1.0
43.36,18.0,1.0,1.0,1.0
43.37,16.0,1.0,1.0,1.0
43.38,15.0,1.0,1.0,1.0
43.39,12.0,1.0,1.0,1.0
43.4,17.0,1.0,1.0,1.0
43.41,24.0,1.0,1.0,1.0
43.42,26.4944,1.0,1.0,1.0
43.43,17.0,1.0,1.0,1.0
43.44,17.5056,1.0,1.0,1.0
43.45,21.0,1.0,1.0,1.0
43.46,9.0,1.0,1.0,1.0
43.47,5.0,1.0,1.0,1.0
43.48,19.0,1.0,1.0,1.0
43.49,8.0,1.0,1.0,1.0
43.5,17.0,1.0,1.0,1.0
43.51,23.0,1.0,1.0,1.0
43.52,5.0,1.0,1.0,1.0
43.53,11.0,1.0,1.0,1.0
43.54,10.0,1.0,1.0,1.0
43.55,11.0,1.0,1.0,1.0
43.56,16.0,1.0,1.0,1.0
43.57,13.0,1.0,1.0,1.0
43.58,13.0,1.0,1.0,1.0
43.59,20.9889,1.0,1.0,1.0
43.6,13.0111,1.0,1.0,1.0
43.61,14.0,1.0,1.0,1.0
43.62,10.0,1.0,1.0,1.0
43.63,24.0,1.0,1.0,1.0
43.64,6.0,1.0,1.0,1.0
43.65,14.0,1.0,1.0,1.0
43.66,29.0,1.0,1.0,1.0
43.67,15.0,1.0,1.0,1.0
43.68,14.0,1.0,1.0,1.0
43.69,16.0,1.0,1.0,1.0
43.7,13.0,1.0,1.0,1.0
43.71,17.0,1.0,1.0,1.0
43.72,17.0,1.0,1.0,1.0
43.73,16.0,1.0,1.0,1.0
43.74,15.0,1.0,1.0,1.0
43.75,16.0,1.0,1.0,1.0
43.76,16.0,1.0,1.0,1.0
43.77,18.0,1.0,1.0,1.0
43.78,9.0,1.0,1.0,1.0
43.79,14.9889,1.0,1.0,1.0
43.8,12.0111,1.0,1.0,1.0
43.81,22.0,1.0,1.0,1.0
43.82,23.4944,1.0,1.0,1.0
43.83,22.5056,1.0,1.0,1.0
43.84,21.0,1.0,1.0,1.0
43.85,32.0,1.0,1.0,1.0
43.86,12.0,1.0,1.0,1.0
43.87,16.0,1.0,1.0,1.0
43.88,22.0,1.0,1.0,1.0
43.89,21.4944,1.0,1.0,1.0
43.9,18.5056,1.0,1.0,1.0
43.91,29.4944,1.0,1.0,1.0
43.92,21.0,1.0,1.0,1.0
43.93,20.5056,1.0,1.0,1.0
43.94,27.0,1.0,1.0,1.0
43.95,22.4833,1.0,1.0,1.0
43.96,42.5167,1.0,1.0,1.0
43.97,40.0,1.0,1.0,1.0
43.98,32.0,1.0,1.0,1.0
43.99,46.4944,1.0,1.0,1.0
44.0,54.5056,1.0,1.0,1.0
44.01,36.4944,1.0,1.0,1.0
44.02,41.5056,1.0,1.0,1.0
44.03,40.4944,1.0,1.0,1.0
44.04,34.0,1.0,1.0,1.0
44.05,56.4944,1.0,1.0,1.0
44.06,66.0111,1.0,1.0,1.0
44.07,56.0,1.0,1.0,1.0
44.08,34.0,1.0,1.0,1.0
44.09,53.0,1.0,1.0,1.0
44.1,45.4944,1.0,1.0,1.0
44.11,37.0,1.0,1.0,1.0
44.12,45.4944,1.0,1.0,1.0
44.13,41.5056,1.0,1.0,1.0
44.14,39.0,1.0,1.0,1.0
44.15,34.9889,1.0,1.0,1.0
44.16,49.0111,1.0,1.0,1.0
44.17,42.0,1.0,1.0,1.0
44.18,27.5056,1.0,1.0,1.0
44.19,38.9889,1.0,1.0,1.0
44.2,47.5056,1.0,1.0,1.0
44.21,33.4944,1.0,1.0,1.0
44.22,37.0,1.0,1.0,1.0
44.23,44.4944,1.0,1.0,1.0
44.24,41.5167,1.0,1.0,1.0
44.25,29.0,1.0,1.0,1.0
44.26,48.0,1.0,1.0,1.0
44.27,38.4833,1.0,1.0,1.0
44.28,59.0111,1.0,1.0,1.0
44.29,30.5056,1.0,1.0,1.0
44.3,39.0,1.0,1.0,1.0
44.31,50.4944,1.0,1.0,1.0
44.32,29.5056,1.0,1.0,1.0
44.33,29.0,1.0,1.0,1.0
44.34,41.4944,1.0,1.0,1.0
44.35,32.4944,1.0,1.0,1.0
44.36,56.5056,1.0,1.0,1.0
44.37,40.5056,1.0,1.0,1.0
44.38,30.0,1.0,1.0,1.0
44.39,35.9889,1.0,1.0,1.0
44.4,25.0111,1.0,1.0,1.0
44.41,34.9889,1.0,1.0,1.0
44.42,36.0,1.0,1.0,1.0
44.43,34.0,1.0,1.0,1.0
44.44,35.5056,1.0,1.0,1.0
44.45,20.0,1.0,1.0,1.0
44.46,35.5056,1.0,1.0,1.0
44.47,36.0,1.0,1.0,1.0
44.48,29.4944,1.0,1.0,1.0
44.49,27.5056,1.0,1.0,1.0
44.5,19.0,1.0,1.0,1.0
44.51,37.0,1.0,1.0,1.0
44.52,41.4944,1.0,1.0,1.0
44.53,38.5056,1.0,1.0,1.0
44.54,32.4944,1.0,1.0,1.0
44.55,46.5056,1.0,1.0,1.0
44.56,18.0,1.0,1.0,1.0
44.57,27.0,1.0,1.0,1.0
44.58,12.9889,1.0,1.0,1.0
44.59,18.0,1.0,1.0,1.0
44.6,20.5056,1.0,1.0,1.0
44.61,36.0,1.0,1.0,1.0
44.62,22.5056,1.0,1.0,1.0
44.63,18.0,1.0,1.0,1.0
44.64,26.0,1.0,1.0,1.0
44.65,19.0,1.0,1.0,1.0
44.66,28.9889,1.0,1.0,1.0
44.67,21.0111,1.0,1.0,1.0
44.68,28.4944,1.0,1.0,1.0
44.69,43.0,1.0,1.0,1.0
44.7,34.0,1.0,1.0,1.0
44.71,25.5056,1.0,1.0,1.0
44.72,20.4944,1.0,1.0,1.0
44.73,34.0,1.0,1.0,1.0
44.74,30.0,1.0,1.0,1.0
44.75,41.0,1.0,1.0,1.0
44.76,38.0,1.0,1.0,1.0
44.77,42.5056,1.0,1.0,1.0
44.78,36.9889,1.0,1.0,1.0
44.79,35.5056,1.0,1.0,1.0
44.8,45.5056,1.0,1.0,1.0
44.81,49.4944,1.0,1.0,1.0
44.82,39.5056,1.0,1.0,1.0
44.83,38.4944,1.0,1.0,1.0
44.84,43.5056,1.0,1.0,1.0
44.85,25.0,1.0,1.0,1.0
44.86,38.0,1.0,1.0,1.0
44.87,39.0,1.0,1.0,1.0
44.88,37.4944,1.0,1.0,1.0
44.89,43.5056,1.0,1.0,1.0
44.9,42.4944,1.0,1.0,1.0
44.91,63.4833,1.0,1.0,1.0
44.92,59.0222,1.0,1.0,1.0
44.93,48.0,1.0,1.0,1.0
44.94,47.4944,1.0,1.0,1.0
44.95,63.5056,1.0,1.0,1.0
44.96,54.0,1.0,1.0,1.0
44.97,50.0,1.0,1.0,1.0
44.98,61.4944,1.0,1.0,1.0
44.99,64.4944,1.0,1.0,1.0
45.0,79.4944,1.0,1.0,1.0
45.01,76.5056,1.0,1.0,1.0
45.02,68.0,1.0,1.0,1.0
45.03,65.0111,1.0,1.0,1.0
45.04,73.0,1.0,1.0,1.0
45.05,90.9889,1.0,1.0,1.0
45.06,44.4944,1.0,1.0,1.0
45.07,80.0111,1.0,1.0,1.0
45.08,92.0,1.0,1.0,1.0
45.09,87.0,1.0,1.0,1.0
45.1,83.5056,1.0,1.0,1.0
45.11,112.4944,1.0,1.0,1.0
45.12,77.0,1.0,1.0,1.0
45.13,81.4833,1.0,1.0,1.0
45.14,85.5167,1.0,1.0,1.0
45.15,77.0,1.0,1.0,1.0
45.16,81.4944,1.0,1.0,1.0
45.17,79.0111,1.0,1.0,1.0
45.18,87.0,1.0,1.0,1.0
45.19,102.0,1.0,1.0,1.0
45.2,67.0,1.0,1.0,1.0
45.21,84.4944,1.0,1.0,1.0
45.22,97.9778,1.0,1.0,1.0
45.23,101.0222,1.0,1.0,1.0
45.24,102.4944,1.0,1.0,1.0
45.25,65.5056,1.0,1.0,1.0
45.26,85.0,1.0,1.0,1.0
45.27,65.5056,1.0,1.0,1.0
45.28,99.4944,1.0,1.0,1.0
45.29,94.5056,1.0,1.0,1.0
45.3,90.9889,1.0,1.0,1.0
45.31,76.5056,1.0,1.0,1.0
45.32,101.5056,1.0,1.0,1.0
45.33,96.0,1.0,1.0,1.0
45.34,64.9889,1.0,1.0,1.0
45.35,82.0111,1.0,1.0,1.0
45.36,88.0,1.0,1.0,1.0
45.37,108.4833,1.0,1.0,1.0
45.38,100.5167,1.0,1.0,1.0
45.39,69.9889,1.0,1.0,1.0
45.4,77.5056,1.0,1.0,1.0
45.41,73.0,1.0,1.0,1.0
45.42,61.0,1.0,1.0,1.0
45.43,67.0,1.0,1.0,1.0
45.44,73.9778,1.0,1.0,1.0
45.45,72.0222,1.0,1.0,1.0
45.46,67.5056,1.0,1.0,1.0
45.47,76.4944,1.0,1.0,1.0
45.48,88.5056,1.0,1.0,1.0
45.49,64.9889,1.0,1.0,1.0
45.5,87.5056,1.0,1.0,1.0
45.51,64.4944,1.0,1.0,1.0
45.52,73.5056,1.0,1.0,1.0
45.53,68.5056,1.0,1.0,1.0
45.54,66.9889,1.0,1.0,1.0
45.55,79.0,1.0,1.0,1.0
45.56,71.5056,1.0,1.0,1.0
45.57,62.0,1.0,1.0,1.0
45.58,72.5056,1.0,1.0,1.0
45.59,63.9889,1.0,1.0,1.0
45.6,79.0111,1.0,1.0,1.0
45.61,76.0,1.0,1.0,1.0
45.62,74.9889,1.0,1.0,1.0
45.63,96.4944,1.0,1.0,1.0
45.64,101.5167,1.0,1.0,1.0
45.65,72.4944,1.0,1.0,1.0
45.66,84.9889,1.0,1.0,1.0
45.67,93.5056,1.0,1.0,1.0
45.68,105.0111,1.0,1.0,1.0
45.69,94.9889,1.0,1.0,1.0
45.7,112.0,1.0,1.0,1.0
45.71,113.4944,1.0,1.0,1.0
45.72,97.5167,1.0,1.0,1.0
45.73,125.4833,1.0,1.0,1.0
45.74,142.5056,1.0,1.0,1.0
45.75,161.5056,1.0,1.0,1.0
45.76,122.9889,1.0,1.0,1.0
45.77,152.9778,1.0,1.0,1.0
45.78,148.0333,1.0,1.0,1.0
45.79,146.9778,1.0,1.0,1.0
45.8,188.0111,1.0,1.0,1.0
45.81,183.9889,1.0,1.0,1.0
45.82,213.4944,1.0,1.0,1.0
45.83,194.5056,1.0,1.0,1.0
45.84,226.0,1.0,1.0,1.0
45.85,248.0,1.0,1.0,1.0
45.86,231.4944,1.0,1.0,1.0
45.87,282.0,1.0,1.0,1.0
45.88,281.9889,1.0,1.0,1.0
45.89,274.0222,1.0,1.0,1.0
45.9,311.4944,1.0,1.0,1.0
45.91,347.4944,1.0,1.0,1.0
45.92,392.4944,1.0,1.0,1.0
45.93,352.0111,1.0,1.0,1.0
45.94,438.4944,1.0,1.0,1.0
45.95,401.5167,1.0,1.0,1.0
45.96,458.9778,1.0,1.0,1.0
45.97,457.9889,1.0,1.0,1.0
45.98,506.4722,1.0,1.0,1.0
45.99,516.4944,1.0,1.0,1.0
46.0,643.0222,1.0,1.0,1.0
46.01,620.5389,1.0,1.0,1.0
46.02,633.4056,1.0,1.0,1.0
46.03,643.5278,1.0,1.0,1.0
46.04,687.0,1.0,1.0,1.0
46.05,767.5278,1.0,1.0,1.0
46.06,834.9667,1.0,1.0,1.0
46.07,823.5278,1.0,1.0,1.0
46.08,896.9667,1.0,1.0,1.0
46.09,944.4833,1.0,1.0,1.0
46.1,1030.01,1.0,1.0,1.0
46.11,1042.51,1.0,1.0,1.0
46.12,1071.99,1.0,1.0,1.0
46.13,1176.0,1.0,1.0,1.0
46.14,1242.97,1.0,1.0,1.0
46.15,1347.53,1.0,1.0,1.0
46.16,1396.46,1.0,1.0,1.0
46.17,1481.98,1.0,1.0,1.0
46.18,1589.01,1.0,1.0,1.0
46.19,1736.53,1.0,1.0,1.0
46.2,1767.51,1.0,1.0,1.0
46.21,1857.89,1.0,1.0,1.0
46.22,2016.0,1.0,1.0,1.0
46.23,2104.53,1.0,1.0,1.0
46.24,2218.96,1.0,1.0,1.0
46.25,2475.43,1.0,1.0,1.0
46.26,2502.53,1.0,1.0,1.0
46.27,2819.49,1.0,1.0,1.0
46.28,2948.46,1.0,1.0,1.0
46.29,3122.51,1.0,1.0,1.0
46.3,3448.43,1.0,1.0,1.0
46.31,3587.52,1.0,1.0,1.0
46.32,3896.94,1.0,1.0,1.0
46.33,4400.47,1.0,1.0,1.0
46.34,4846.41,1.0,1.0,1.0
46.35,5402.09,1.0,1.0,1.0
46.36,6347.228,1.0,1.0,1.0
46.37,7512.39,1.0,1.0,1.0
46.38,9717.52,1.0,1.0,1.0
46.39,13880.9,1.0,1.0,1.0
46.4,27730.2,1.0,1.0,1.0
46.41,78298.2,1.0,1.0,1.0
46.42,122111,1.0,1.0,1.0
46.43,144514,1.0,1.0,1.0
46.44,167212,1.0,1.0,1.0
46.45,200606,1.0,1.0,1.0
46.46,242412,1.0,1.0,1.0
46.47,292041.875,1.0,1.0,1.0
46.48,360646,1.0,1.0,1.0
46.49,453302,1.0,1.0,1.0
46.5,503498,1.0,1.0,1.0
46.51,427805,1.0,1.0,1.0
46.52,467043,1.0,1.0,1.0
46.53,604214.125,1.0,1.0,1.0
46.54,910602,1.0,1.0,1.0
46.55,2027212.625,1.0,1.0,1.0
46.56,7297164.5,1.0,1.0,1.0
46.57,16376873.0,1.0,1.0,1.0
46.58,8313608.5,1.0,1.0,1.0
46.59,713681,1.0,1.0,1.0
46.6,166994,1.0,1.0,1.0
46.61,74995.7,1.0,1.0,1.0
46.62,41315.4,1.0,1.0,1.0
46.63,24942.7,1.0,1.0,1.0
46.64,16415.7,1.0,1.0,1.0
46.65,11409.3,1.0,1.0,1.0
46.66,8348.41,1.0,1.0,1.0
46.67,6304.14,1.0,1.0,1.0
46.68,4872.14,1.0,1.0,1.0
46.69,3773.08,1.0,1.0,1.0
46.7,2968.04,1.0,1.0,1.0
46.71,2491.13,1.0,1.0,1.0
46.72,2043.47,1.0,1.0,1.0
46.73,1715.12,1.0,1.0,1.0
46.74,1417.99,1.0,1.0,1.0
46.75,1208.49,1.0,1.0,1.0
46.76,995.5167,1.0,1.0,1.0
46.77,816.5833,1.0,1.0,1.0
46.78,713.9778,1.0,1.0,1.0
46.79,605.0,1.0,1.0,1.0
46.8,518.0444,1.0,1.0,1.0
46.81,467.5056,1.0,1.0,1.0
46.82,445.9889,1.0,1.0,1.0
46.83,371.5278,1.0,1.0,1.0
46.84,305.9889,1.0,1.0,1.0
46.85,286.4833,1.0,1.0,1.0
46.86,310.0,1.0,1.0,1.0
46.87,233.4722,1.0,1.0,1.0
46.88,260.0222,1.0,1.0,1.0
46.89,266.0222,1.0,1.0,1.0
46.9,236.4722,1.0,1.0,1.0
46.91,217.5167,1.0,1.0,1.0
46.92,221.5056,1.0,1.0,1.0
46.93,207.5056,1.0,1.0,1.0
46.94,187.4944,1.0,1.0,1.0
46.95,165.4944,1.0,1.0,1.0
46.96,215.5167,1.0,1.0,1.0
46.97,166.4722,1.0,1.0,1.0
46.98,164.5278,1.0,1.0,1.0
46.99,183.9889,1.0,1.0,1.0
47.0,175.9889,1.0,1.0,1.0
47.01,182.5167,1.0,1.0,1.0
47.02,182.0,1.0,1.0,1.0
47.03,169.0111,1.0,1.0,1.0
47.04,169.9889,1.0,1.0,1.0
47.05,197.4944,1.0,1.0,1.0
47.06,149.0222,1.0,1.0,1.0
47.07,141.4833,1.0,1.0,1.0
47.08,152.0,1.0,1.0,1.0
47.09,122.5056,1.0,1.0,1.0
47.1,147.4944,1.0,1.0,1.0
47.11,140.0111,1.0,1.0,1.0
47.12,136.4944,1.0,1.0,1.0
47.13,149.9889,1.0,1.0,1.0
47.14,157.5167,1.0,1.0,1.0
47.15,133.0,1.0,1.0,1.0
47.16,131.0,1.0,1.0,1.0
47.17,163.9889,1.0,1.0,1.0
47.18,156.0,1.0,1.0,1.0
47.19,93.5167,1.0,1.0,1.0
47.2,130.9667,1.0,1.0,1.0
47.21,123.5167,1.0,1.0,1.0
47.22,142.9889,1.0,1.0,1.0
47.23,117.5278,1.0,1.0,1.0
47.24,130.4944,1.0,1.0,1.0
47.25,119.4833,1.0,1.0,1.0
47.26,110.5167,1.0,1.0,1.0
47.27,101.0,1.0,1.0,1.0
47.28,99.4833,1.0,1.0,1.0
47.29,129.5167,1.0,1.0,1.0
47.3,115.4944,1.0,1.0,1.0
47.31,95.0,1.0,1.0,1.0
47.32,113.0,1.0,1.0,1.0
47.33,120.5056,1.0,1.0,1.0
47.34,88.0,1.0,1.0,1.0
47.35,122.4944,1.0,1.0,1.0
47.36,93.5056,1.0,1.0,1.0
47.37,109.0,1.0,1.0,1.0
47.38,76.4944,1.0,1.0,1.0
47.39,91.0111,1.0,1.0,1.0
47.4,71.4944,1.0,1.0,1.0
47.41,92.0,1.0,1.0,1.0
47.42,74.4944,1.0,1.0,1.0
47.43,76.0111,1.0,1.0,1.0
47.44,54.0,1.0,1.0,1.0
47.45,64.9889,1.0,1.0,1.0
47.46,117.5056,1.0,1.0,1.0
47.47,85.0,1.0,1.0,1.0
47.48,78.4833,1.0,1.0,1.0
47.49,99.0111,1.0,1.0,1.0
47.5,66.0111,1.0,1.0,1.0
47.51,71.9889,1.0,1.0,1.0
47.52,62.0111,1.0,1.0,1.0
47.53,47.0,1.0,1.0,1.0
47.54,50.9889,1.0,1.0,1.0
47.55,69.5056,1.0,1.0,1.0
47.56,61.4944,1.0,1.0,1.0
47.57,65.0,1.0,1.0,1.0
47.58,68.4944,1.0,1.0,1.0
47.59,71.5056,1.0,1.0,1.0
47.6,58.0111,1.0,1.0,1.0
47.61,65.4944,1.0,1.0,1.0
47.62,66.4944,1.0,1.0,1.0
47.63,69.5056,1.0,1.0,1.0
47.64,73.0,1.0,1.0,1.0
47.65,71.5056,1.0,1.0,1.0
47.66,84.4944,1.0,1.0,1.0
47.67,64.5056,1.0,1.0,1.0
47.68,61.0,1.0,1.0,1.0
47.69,63.4944,1.0,1.0,1.0
47.7,51.5056,1.0,1.0,1.0
47.71,75.4833,1.0,1.0,1.0
47.72,66.0111,1.0,1.0,1.0
47.73,58.5056,1.0,1.0,1.0
47.74,75.0,1.0,1.0,1.0
47.75,49.4944,1.0,1.0,1.0
47.76,84.5056,1.0,1.0,1.0
47.77,58.0,1.0,1.0,1.0
47.78,85.0,1.0,1.0,1.0
47.79,90.4944,1.0,1.0,1.0
47.8,93.4833,1.0,1.0,1.0
47.81,76.5167,1.0,1.0,1.0
47.82,70.4944,1.0,1.0,1.0
47.83,74.5056,1.0,1.0,1.0
47.84,78.0,1.0,1.0,1.0
47.85,69.4944,1.0,1.0,1.0
47.86,103.5056,1.0,1.0,1.0
47.87,76.5056,1.0,1.0,1.0
47.88,80.9889,1.0,1.0,1.0
47.89,98.0,1.0,1.0,1.0
47.9,105.4833,1.0,1.0,1.0
47.91,75.0222,1.0,1.0,1.0
47.92,87.0,1.0,1.0,1.0
47.93,68.0,1.0,1.0,1.0
47.94,93.0,1.0,1.0,1.0
47.95,118.9889,1.0,1.0,1.0
47.96,103.5167,1.0,1.0,1.0
47.97,87.9889,1.0,1.0,1.0
47.98,71.9889,1.0,1.0,1.0
47.99,104.0222,1.0,1.0,1.0
48.0,94.9778,1.0,1.0,1.0
48.01,100.5056,1.0,1.0,1.0
48.02,106.5167,1.0,1.0,1.0
48.03,104.9889,1.0,1.0,1.0
48.04,94.5056,1.0,1.0,1.0
48.05,116.9889,1.0,1.0,1.0
48.06,89.0111,1.0,1.0,1.0
48.07,88.0,1.0,1.0,1.0
48.08,87.9889,1.0,1.0,1.0
48.09,79.5056,1.0,1.0,1.0
48.1,96.0,1.0,1.0,1.0
48.11,70.0111,1.0,1.0,1.0
48.12,93.9889,1.0,1.0,1.0
48.13,106.0,1.0,1.0,1.0
48.14,100.0111,1.0,1.0,1.0
48.15,88.0,1.0,1.0,1.0
48.16,117.4944,1.0,1.0,1.0
48.17,69.9889,1.0,1.0,1.0
48.18,110.0,1.0,1.0,1.0
48.19,89.5056,1.0,1.0,1.0
48.2,86.5056,1.0,1.0,1.0
48.21,83.4944,1.0,1.0,1.0
48.22,95.0,1.0,1.0,1.0
48.23,78.0,1.0,1.0,1.0
48.24,90.0,1.0,1.0,1.0
48.25,71.5056,1.0,1.0,1.0
48.26,85.4944,1.0,1.0,1.0
48.27,71.5056,1.0,1.0,1.0
48.28,81.0,1.0,1.0,1.0
48.29,58.0,1.0,1.0,1.0
48.3,69.4944,1.0,1.0,1.0
48.31,74.4944,1.0,1.0,1.0
48.32,88.5056,1.0,1.0,1.0
48.33,79.0111,1.0,1.0,1.0
48.34,78.0,1.0,1.0,1.0
48.35,58.9889,1.0,1.0,1.0
48.36,54.0111,1.0,1.0,1.0
48.37,58.4944,1.0,1.0,1.0
48.38,50.5056,1.0,1.0,1.0
48.39,56.0,1.0,1.0,1.0
48.4,64.9889,1.0,1.0,1.0
48.41,54.4944,1.0,1.0,1.0
48.42,62.5056,1.0,1.0,1.0
48.43,55.0,1.0,1.0,1.0
48.44,45.5056,1.0,1.0,1.0
48.45,58.0,1.0,1.0,1.0
48.46,62.9889,1.0,1.0,1.0
48.47,54.5056,1.0,1.0,1.0
48.48,39.0111,1.0,1.0,1.0
48.49,41.0,1.0,1.0,1.0
48.5,33.0,1.0,1.0,1.0
48.51,40.0,1.0,1.0,1.0
48.52,48.4944,1.0,1.0,1.0
48.53,33.0,1.0,1.0,1.0
48.54,37.5056,1.0,1.0,1.0
48.55,41.4944,1.0,1.0,1.0
48.56,53.5056,1.0,1.0,1.0
48.57,30.4944,1.0,1.0,1.0
48.58,14.0,1.0,1.0,1.0
48.59,15.0,1.0,1.0,1.0
48.6,36.5056,1.0,1.0,1.0
48.61,32.9889,1.0,1.0,1.0
48.62,29.5056,1.0,1.0,1.0
48.63,20.5056,1.0,1.0,1.0
48.64,25.0,1.0,1.0,1.0
48.65,27.0,1.0,1.0,1.0
48.66,20.0,1.0,1.0,1.0
48.67,17.0,1.0,1.0,1.0
48.68,17.0,1.0,1.0,1.0
48.69,21.0,1.0,1.0,1.0
48.7,12.4944,1.0,1.0,1.0
48.71,22.0,1.0,1.0,1.0
48.72,18.5056,1.0,1.0,1.0
48.73,16.4944,1.0,1.0,1.0
48.74,18.5056,1.0,1.0,1.0
48.75,29.0,1.0,1.0,1.0
48.76,13.0,1.0,1.0,1.0
48.77,21.0,1.0,1.0,1.0
48.78,19.4944,1.0,1.0,1.0
48.79,8.0,1.0,1.0,1.0
48.8,13.5056,1.0,1.0,1.0
48.81,16.0,1.0,1.0,1.0
48.82,12.0,1.0,1.0,1.0
48.83,15.0,1.0,1.0,1.0
48.84,7.0,1.0,1.0,1.0
48.85,16.0,1.0,1.0,1.0
48.86,13.4944,1.0,1.0,1.0
48.87,17.5056,1.0,1.0,1.0
48.88,8.0,1.0,1.0,1.0
48.89,20.9889,1.0,1.0,1.0
48.9,9.0,1.0,1.0,1.0
48.91,17.0111,1.0,1.0,1.0
48.92,4.4944,1.0,1.0,1.0
48.93,14.0,1.0,1.0,1.0
48.94,11.5056,1.0,1.0,1.0
48.95,12.0,1.0,1.0,1.0
48.96,15.0,1.0,1.0,1.0
48.97,10.0,1.0,1.0,1.0
48.98,17.0,1.0,1.0,1.0
48.99,3.0,1.0,1.0,1.0
49.0,20.4944,1.0,1.0,1.0
49.01,16.0,1.0,1.0,1.0
49.02,10.5056,1.0,1.0,1.0
49.03,16.0,1.0,1.0,1.0
49.04,10.4944,1.0,1.0,1.0
49.05,8.0,1.0,1.0,1.0
49.06,14.5056,1.0,1.0,1.0
49.07,5.0,1.0,1.0,1.0
49.08,10.4944,1.0,1.0,1.0
49.09,25.5056,1.0,1.0,1.0
49.1,17.0,1.0,1.0,1.0
49.11,16.4944,1.0,1.0,1.0
49.12,10.5056,1.0,1.0,1.0
49.13,19.0,1.0,1.0,1.0
49.14,21.4944,1.0,1.0,1.0
49.15,23.5056,1.0,1.0,1.0
49.16,22.0,1.0,1.0,1.0
49.17,9.9889,1.0,1.0,1.0
49.18,16.0111,1.0,1.0,1.0
49.19,20.0,1.0,1.0,1.0
49.2,11.4944,1.0,1.0,1.0
49.21,15.5056,1.0,1.0,1.0
49.22,25.9889,1.0,1.0,1.0
49.23,19.0111,1.0,1.0,1.0
49.24,12.9889,1.0,1.0,1.0
49.25,29.0111,1.0,1.0,1.0
49.26,2.0,1.0,1.0,1.0
49.27,24.0,1.0,1.0,1.0
49.28,11.0,1.0,1.0,1.0
49.29,15.4944,1.0,1.0,1.0
49.3,22.5056,1.0,1.0,1.0
49.31,12.0,1.0,1.0,1.0
49.32,8.0,1.0,1.0,1.0
49.33,10.0,1.0,1.0,1.0
49.34,13.0,1.0,1.0,1.0
49.35,20.4944,1.0,1.0,1.0
49.36,14.5056,1.0,1.0,1.0
49.37,13.0,1.0,1.0,1.0
49.38,27.4944,1.0,1.0,1.0
49.39,25.0,1.0,1.0,1.0
49.4,14.0,1.0,1.0,1.0
49.41,11.5056,1.0,1.0,1.0
49.42,19.0,1.0,1.0,1.0
49.43,11.9889,1.0,1.0,1.0
49.44,7.0111,1.0,1.0,1.0
49.45,4.0,1.0,1.0,1.0
49.46,9.0,1.0,1.0,1.0
49.47,5.0,1.0,1.0,1.0
49.48,13.0,1.0,1.0,1.0
49.49,10.0,1.0,1.0,1.0
49.5,9.0,1.0,1.0,1.0
49.51,13.0,1.0,1.0,1.0
49.52,15.0,1.0,1.0,1.0
49.53,10.4944,1.0,1.0,1.0
49.54,6.5056,1.0,1.0,1.0
49.55,4.0,1.0,1.0,1.0
49.56,12.0,1.0,1.0,1.0
49.57,15.0,1.0,1.0,1.0
49.58,11.4944,1.0,1.0,1.0
49.59,11.5056,1.0,1.0,1.0
49.6,6.0,1.0,1.0,1.0
49.61,7.0,1.0,1.0,1.0
49.62,19.4944,1.0,1.0,1.0
49.63,13.5056,1.0,1.0,1.0
49.64,15.0,1.0,1.0,1.0
49.65,12.0,1.0,1.0,1.0
49.66,3.0,1.0,1.0,1.0
49.67,12.0,1.0,1.0,1.0
49.68,4.0,1.0,1.0,1.0
49.69,16.0,1.0,1.0,1.0
49.7,6.0,1.0,1.0,1.0
49.71,3.0,1.0,1.0,1.0
49.72,7.0,1.0,1.0,1.0
49.73,31.4611,1.0,1.0,1.0
49.74,21.0333,1.0,1.0,1.0
49.75,13.5056,1.0,1.0,1.0
49.76,9.0,1.0,1.0,1.0
49.77,4.0,1.0,1.0,1.0
49.78,2.0,1.0,1.0,1.0
49.79,13.0,1.0,1.0,1.0
49.8,5.0,1.0,1.0,1.0
49.81,8.0,1.0,1.0,1.0
49.82,10.0,1.0,1.0,1.0
49.83,11.0,1.0,1.0,1.0
49.84,5.0,1.0,1.0,1.0
49.85,4.0,1.0,1.0,1.0
49.86,7.0,1.0,1.0,1.0
49.87,8.4944,1.0,1.0,1.0
49.88,3.5056,1.0,1.0,1.0
49.89,0.0,1.0,1.0,1.0
49.9,3.0,1.0,1.0,1.0
49.91,12.0,1.0,1.0,1.0
49.92,4.0,1.0,1.0,1.0
49.93,2.0,1.0,1.0,1.0
49.94,9.0,1.0,1.0,1.0
49.95,5.0,1.0,1.0,1.0
49.96,4.0,1.0,1.0,1.0
49.97,7.0,1.0,1.0,1.0
49.98,9.0,1.0,1.0,1.0
49.99,3.0,1.0,1.0,1.0
50.0,2.0,1.0,1.0,1.0
50.01,13.0,1.0,1.0,1.0
50.02,11.0,1.0,1.0,1.0
50.03,9.4944,1.0,1.0,1.0
50.04,7.5056,1.0,1.0,1.0
50.05,11.0,1.0,1.0,1.0
50.06,2.0,1.0,1.0,1.0
50.07,9.0,1.0,1.0,1.0
50.08,6.0,1.0,1.0,1.0
50.09,8.0,1.0,1.0,1.0
50.1,8.0,1.0,1.0,1.0
50.11,9.0,1.0,1.0,1.0
50.12,0.0,1.0,1.0,1.0
50.13,4.0,1.0,1.0,1.0
50.14,5.0,1.0,1.0,1.0
50.15,10.0,1.0,1.0,1.0
50.16,11.0,1.0,1.0,1.0
50.17,19.0,1.0,1.0,1.0
50.18,2.0,1.0,1.0,1.0
50.19,7.0,1.0,1.0,1.0
50.2,12.0,1.0,1.0,1.0
50.21,11.0,1.0,1.0,1.0
50.22,3.0,1.0,1.0,1.0
50.23,3.0,1.0,1.0,1.0
50.24,7.0,1.0,1.0,1.0
50.25,11.4944,1.0,1.0,1.0
50.26,8.5056,1.0,1.0,1.0
50.27,2.0,1.0,1.0,1.0
50.28,2.4944,1.0,1.0,1.0
50.29,10.5056,1.0,1.0,1.0
50.3,12.0,1.0,1.0,1.0
50.31,4.0,1.0,1.0,1.0
50.32,6.0,1.0,1.0,1.0
50.33,4.4944,1.0,1.0,1.0
50.34,3.5056,1.0,1.0,1.0
50.35,10.0,1.0,1.0,1.0
50.36,16.0,1.0,1.0,1.0
50.37,4.0,1.0,1.0,1.0
50.38,5.4944,1.0,1.0,1.0
50.39,9.5056,1.0,1.0,1.0
50.4,7.0,1.0,1.0,1.0
50.41,10.0,1.0,1.0,1.0
50.42,7.0,1.0,1.0,1.0
50.43,8.0,1.0,1.0,1.0
50.44,7.0,1.0,1.0,1.0
50.45,15.0,1.0,1.0,1.0
50.46,10.0,1.0,1.0,1.0
50.47,4.0,1.0,1.0,1.0
50.48,7.0,1.0,1.0,1.0
50.49,4.0,1.0,1.0,1.0
50.5,14.0,1.0,1.0,1.0
50.51,6.0,1.0,1.0,1.0
50.52,5.0,1.0,1.0,1.0
50.53,4.0,1.0,1.0,1.0
50.54,5.0,1.0,1.0,1.0
50.55,10.0,1.0,1.0,1.0
50.56,4.0,1.0,1.0,1.0
50.57,5.0,1.0,1.0,1.0
50.58,6.0,1.0,1.0,1.0
50.59,4.4944,1.0,1.0,1.0
50.6,5.5056,1.0,1.0,1.0
50.61,18.0,1.0,1.0,1.0
50.62,2.0,1.0,1.0,1.0
50.63,8.0,1.0,1.0,1.0
50.64,7.0,1.0,1.0,1.0
50.65,8.0,1.0,1.0,1.0
50.66,2.0,1.0,1.0,1.0
50.67,4.0,1.0,1.0,1.0
50.68,2.4944,1.0,1.0,1.0
50.69,6.5056,1.0,1.0,1.0
50.7,1.0,1.0,1.0,1.0
50.71,10.0,1.0,1.0,1.0
50.72,10.0,1.0,1.0,1.0
50.73,5.0,1.0,1.0,1.0
50.74,2.0,1.0,1.0,1.0
50.75,4.0,1.0,1.0,1.0
50.76,8.0,1.0,1.0,1.0
50.77,7.0,1.0,1.0,1.0
50.78,7.0,1.0,1.0,1.0
50.79,12.0,1.0,1.0,1.0
50.8,0.0,1.0,1.0,1.0
50.81,6.0,1.0,1.0,1.0
50.82,2.0,1.0,1.0,1.0
50.83,10.0,1.0,1.0,1.0
50.84,0.0,1.0,1.0,1.0
50.85,3.0,1.0,1.0,1.0
50.86,2.0,1.0,1.0,1.0
50.87,11.0,1.0,1.0,1.0
50.88,7.0,1.0,1.0,1.0
50.89,0.0,1.0,1.0,1.0
50.9,0.0,1.0,1.0,1.0
50.91,4.0,1.0,1.0,1.0
50.92,4.4944,1.0,1.0,1.0
50.93,6.5056,1.0,1.0,1.0
50.94,2.4944,1.0,1.0,1.0
50.95,7.5056,1.0,1.0,1.0
50.96,5.4944,1.0,1.0,1.0
50.97,7.5056,1.0,1.0,1.0
50.98,5.0,1.0,1.0,1.0
50.99,7.4944,1.0,1.0,1.0
51.0,12.5056,1.0,1.0,1.0
51.01,11.0,1.0,1.0,1.0
51.02,5.0,1.0,1.0,1.0
51.03,5.0,1.0,1.0,1.0
51.04,9.0,1.0,1.0,1.0
51.05,9.0,1.0,1.0,1.0
51.06,4.9889,1.0,1.0,1.0
51.07,10.0111,1.0,1.0,1.0
51.08,8.0,1.0,1.0,1.0
51.09,4.0,1.0,1.0,1.0
51.1,3.0,1.0,1.0,1.0
51.11,2.0,1.0,1.0,1.0
51.12,2.0,1.0,1.0,1.0
51.13,16.0,1.0,1.0,1.0
51.14,9.0,1.0,1.0,1.0
51.15,11.0,1.0,1.0,1.0
51.16,7.0,1.0,1.0,1.0
51.17,2.0,1.0,1.0,1.0
51.18,5.0,1.0,1.0,1.0
51.19,4.0,1.0,1.0,1.0
51.2,9.0,1.0,1.0,1.0
51.21,11.0,1.0,1.0,1.0
51.22,0.0,1.0,1.0,1.0
51.23,10.0,1.0,1.0,1.0
51.24,11.0,1.0,1.0,1.0
51.25,2.0,1.0,1.0,1.0
51.26,7.0,1.0,1.0,1.0
51.27,12.0,1.0,1.0,1.0
51.28,5.0,1.0,1.0,1.0
51.29,7.0,1.0,1.0,1.0
51.3,4.0,1.0,1.0,1.0
51.31,12.0,1.0,1.0,1.0
51.32,4.0,1.0,1.0,1.0
51.33,10.0,1.0,1.0,1.0
51.34,6.0,1.0,1.0,1.0
51.35,0.0,1.0,1.0,1.0
51.36,3.0,1.0,1.0,1.0
51.37,13.0,1.0,1.0,1.0
51.38,9.0,1.0,1.0,1.0
51.39,7.0,1.0,1.0,1.0
51.4,4.0,1.0,1.0,1.0
51.41,9.0,1.0,1.0,1.0
51.42,6.0,1.0,1.0,1.0
51.43,6.4944,1.0,1.0,1.0
51.44,9.5056,1.0,1.0,1.0
51.45,6.0,1.0,1.0,1.0
51.46,1.4944,1.0,1.0,1.0
51.47,2.5056,1.0,1.0,1.0
51.48,9.0,1.0,1.0,1.0
51.49,6.4944,1.0,1.0,1.0
51.5,0.5056,1.0,1.0,1.0
51.51,0.0,1.0,1.0,1.0
51.52,12.0,1.0,1.0,1.0
51.53,2.0,1.0,1.0,1.0
51.54,0.0,1.0,1.0,1.0
51.55,9.0,1.0,1.0,1.0
51.56,2.0,1.0,1.0,1.0
51.57,5.4944,1.0,1.0,1.0
51.58,7.5056,1.0,1.0,1.0
51.59,3.0,1.0,1.0,1.0
51.6,0.0,1.0,1.0,1.0
51.61,2.0,1.0,1.0,1.0
51.62,7.0,1.0,1.0,1.0
51.63,11.4944,1.0,1.0,1.0
51.64,12.5056,1.0,1.0,1.0
51.65,8.4944,1.0,1.0,1.0
51.66,6.5056,1.0,1.0,1.0
51.67,0.0,1.0,1.0,1.0
51.68,7.0,1.0,1.0,1.0
51.69,10.0,1.0,1.0,1.0
51.7,5.0,1.0,1.0,1.0
51.71,6.0,1.0,1.0,1.0
51.72,5.0,1.0,1.0,1.0
51.73,0.0,1.0,1.0,1.0
51.74,2.0,1.0,1.0,1.0
51.75,4.0,1.0,1.0,1.0
51.76,0.0,1.0,1.0,1.0
51.77,7.0,1.0,1.0,1.0
51.78,2.0,1.0,1.0,1.0
51.79,6.0,1.0,1.0,1.0
51.8,0.4944,1.0,1.0,1.0
51.81,11.0,1.0,1.0,1.0
51.82,8.5056,1.0,1.0,1.0
51.83,6.0,1.0,1.0,1.0
51.84,2.0,1.0,1.0,1.0
51.85,10.0,1.0,1.0,1.0
51.86,8.0,1.0,1.0,1.0
51.87,0.0,1.0,1.0,1.0
51.88,3.0,1.0,1.0,1.0
51.89,6.0,1.0,1.0,1.0
51.9,0.0,1.0,1.0,1.0
51.91,7.0,1.0,1.0,1.0
51.92,5.0,1.0,1.0,1.0
51.93,5.4944,1.0,1.0,1.0
51.94,11.5056,1.0,1.0,1.0
51.95,14.4944,1.0,1.0,1.0
51.96,4.5056,1.0,1.0,1.0
51.97,2.0,1.0,1.0,1.0
51.98,2.4944,1.0,1.0,1.0
51.99,2.5056,1.0,1.0,1.0
52.0,4.0,1.0,1.0,1.0