File: XRD:XRR/STO/22049_STOL/22049_STOL_XRD.csv
#twotheta, yobs, ycal, bkg, diff
37.0,31.9778,1.0,1.0,1.0
37.01,26.5167,1.0,1.0,1.0
37.02,29.9889,1.0,1.0,1.0
37.03,32.5167,1.0,1.0,1.0
37.04,24.4833,1.0,1.0,1.0
37.05,34.5167,1.0,1.0,1.0
37.06,16.4944,1.0,1.0,1.0
37.07,36.5056,1.0,1.0,1.0
37.08,23.4944,1.0,1.0,1.0
37.09,19.5056,1.0,1.0,1.0
37.1,37.9889,1.0,1.0,1.0
37.11,21.5056,1.0,1.0,1.0
37.12,16.5056,1.0,1.0,1.0
37.13,16.0,1.0,1.0,1.0
37.14,25.0,1.0,1.0,1.0
37.15,33.0,1.0,1.0,1.0
37.16,31.4944,1.0,1.0,1.0
37.17,33.5056,1.0,1.0,1.0
37.18,20.0,1.0,1.0,1.0
37.19,28.0,1.0,1.0,1.0
37.2,32.0,1.0,1.0,1.0
37.21,43.0,1.0,1.0,1.0
37.22,21.0,1.0,1.0,1.0
37.23,36.9889,1.0,1.0,1.0
37.24,40.5056,1.0,1.0,1.0
37.25,29.0,1.0,1.0,1.0
37.26,36.5056,1.0,1.0,1.0
37.27,25.4944,1.0,1.0,1.0
37.28,28.5056,1.0,1.0,1.0
37.29,39.4944,1.0,1.0,1.0
37.3,19.5056,1.0,1.0,1.0
37.31,26.0,1.0,1.0,1.0
37.32,17.0,1.0,1.0,1.0
37.33,14.0,1.0,1.0,1.0
37.34,31.0,1.0,1.0,1.0
37.35,21.0,1.0,1.0,1.0
37.36,16.0,1.0,1.0,1.0
37.37,29.0,1.0,1.0,1.0
37.38,27.0,1.0,1.0,1.0
37.39,24.0,1.0,1.0,1.0
37.4,31.4944,1.0,1.0,1.0
37.41,30.5056,1.0,1.0,1.0
37.42,46.4944,1.0,1.0,1.0
37.43,42.5056,1.0,1.0,1.0
37.44,28.0,1.0,1.0,1.0
37.45,26.4944,1.0,1.0,1.0
37.46,22.0,1.0,1.0,1.0
37.47,38.5056,1.0,1.0,1.0
37.48,30.0,1.0,1.0,1.0
37.49,38.0,1.0,1.0,1.0
37.5,34.0,1.0,1.0,1.0
37.51,31.4944,1.0,1.0,1.0
37.52,33.5056,1.0,1.0,1.0
37.53,29.4944,1.0,1.0,1.0
37.54,37.0,1.0,1.0,1.0
37.55,28.5056,1.0,1.0,1.0
37.56,30.0,1.0,1.0,1.0
37.57,33.0,1.0,1.0,1.0
37.58,36.4944,1.0,1.0,1.0
37.59,33.4944,1.0,1.0,1.0
37.6,25.5056,1.0,1.0,1.0
37.61,18.5056,1.0,1.0,1.0
37.62,33.0,1.0,1.0,1.0
37.63,29.0,1.0,1.0,1.0
37.64,27.0,1.0,1.0,1.0
37.65,24.4944,1.0,1.0,1.0
37.66,36.0,1.0,1.0,1.0
37.67,21.4944,1.0,1.0,1.0
37.68,28.0111,1.0,1.0,1.0
37.69,27.0,1.0,1.0,1.0
37.7,37.4944,1.0,1.0,1.0
37.71,41.5056,1.0,1.0,1.0
37.72,37.0,1.0,1.0,1.0
37.73,26.0,1.0,1.0,1.0
37.74,23.0,1.0,1.0,1.0
37.75,36.0,1.0,1.0,1.0
37.76,20.4944,1.0,1.0,1.0
37.77,32.4944,1.0,1.0,1.0
37.78,29.5056,1.0,1.0,1.0
37.79,21.5056,1.0,1.0,1.0
37.8,25.9889,1.0,1.0,1.0
37.81,29.0111,1.0,1.0,1.0
37.82,49.0,1.0,1.0,1.0
37.83,30.4944,1.0,1.0,1.0
37.84,30.4944,1.0,1.0,1.0
37.85,27.0,1.0,1.0,1.0
37.86,29.0111,1.0,1.0,1.0
37.87,25.4944,1.0,1.0,1.0
37.88,30.5056,1.0,1.0,1.0
37.89,39.0,1.0,1.0,1.0
37.9,20.0,1.0,1.0,1.0
37.91,20.0,1.0,1.0,1.0
37.92,24.0,1.0,1.0,1.0
37.93,40.4944,1.0,1.0,1.0
37.94,55.4944,1.0,1.0,1.0
37.95,35.0111,1.0,1.0,1.0
37.96,38.4944,1.0,1.0,1.0
37.97,31.5056,1.0,1.0,1.0
37.98,21.0,1.0,1.0,1.0
37.99,21.4944,1.0,1.0,1.0
38.0,43.0,1.0,1.0,1.0
38.01,18.5056,1.0,1.0,1.0
38.02,24.0,1.0,1.0,1.0
38.03,22.4944,1.0,1.0,1.0
38.04,17.5056,1.0,1.0,1.0
38.05,24.0,1.0,1.0,1.0
38.06,39.0,1.0,1.0,1.0
38.07,30.4944,1.0,1.0,1.0
38.08,21.0,1.0,1.0,1.0
38.09,37.5056,1.0,1.0,1.0
38.1,37.4944,1.0,1.0,1.0
38.11,24.5056,1.0,1.0,1.0
38.12,35.0,1.0,1.0,1.0
38.13,23.0,1.0,1.0,1.0
38.14,42.4944,1.0,1.0,1.0
38.15,40.5056,1.0,1.0,1.0
38.16,33.0,1.0,1.0,1.0
38.17,19.0,1.0,1.0,1.0
38.18,31.0,1.0,1.0,1.0
38.19,33.0,1.0,1.0,1.0
38.2,15.0,1.0,1.0,1.0
38.21,30.4944,1.0,1.0,1.0
38.22,38.0,1.0,1.0,1.0
38.23,25.5056,1.0,1.0,1.0
38.24,31.0,1.0,1.0,1.0
38.25,23.0,1.0,1.0,1.0
38.26,25.0,1.0,1.0,1.0
38.27,16.0,1.0,1.0,1.0
38.28,49.0,1.0,1.0,1.0
38.29,29.0,1.0,1.0,1.0
38.3,21.0,1.0,1.0,1.0
38.31,32.9889,1.0,1.0,1.0
38.32,32.0111,1.0,1.0,1.0
38.33,30.0,1.0,1.0,1.0
38.34,67.0,1.0,1.0,1.0
38.35,24.4944,1.0,1.0,1.0
38.36,30.4944,1.0,1.0,1.0
38.37,29.0111,1.0,1.0,1.0
38.38,7.4944,1.0,1.0,1.0
38.39,38.0,1.0,1.0,1.0
38.4,22.0,1.0,1.0,1.0
38.41,17.0,1.0,1.0,1.0
38.42,14.5056,1.0,1.0,1.0
38.43,44.0,1.0,1.0,1.0
38.44,20.9889,1.0,1.0,1.0
38.45,31.0,1.0,1.0,1.0
38.46,32.5056,1.0,1.0,1.0
38.47,22.0,1.0,1.0,1.0
38.48,31.0,1.0,1.0,1.0
38.49,29.5056,1.0,1.0,1.0
38.5,18.4944,1.0,1.0,1.0
38.51,33.5056,1.0,1.0,1.0
38.52,27.0,1.0,1.0,1.0
38.53,40.0,1.0,1.0,1.0
38.54,27.4944,1.0,1.0,1.0
38.55,28.5056,1.0,1.0,1.0
38.56,36.4944,1.0,1.0,1.0
38.57,19.5056,1.0,1.0,1.0
38.58,38.0,1.0,1.0,1.0
38.59,41.0,1.0,1.0,1.0
38.6,28.4944,1.0,1.0,1.0
38.61,13.5056,1.0,1.0,1.0
38.62,34.4833,1.0,1.0,1.0
38.63,41.0111,1.0,1.0,1.0
38.64,21.0,1.0,1.0,1.0
38.65,32.5056,1.0,1.0,1.0
38.66,33.0,1.0,1.0,1.0
38.67,28.0,1.0,1.0,1.0
38.68,7.4944,1.0,1.0,1.0
38.69,33.5056,1.0,1.0,1.0
38.7,41.4944,1.0,1.0,1.0
38.71,31.5056,1.0,1.0,1.0
38.72,43.0,1.0,1.0,1.0
38.73,31.0,1.0,1.0,1.0
38.74,25.0,1.0,1.0,1.0
38.75,21.0,1.0,1.0,1.0
38.76,27.0,1.0,1.0,1.0
38.77,37.0,1.0,1.0,1.0
38.78,30.4944,1.0,1.0,1.0
38.79,31.0,1.0,1.0,1.0
38.8,33.0,1.0,1.0,1.0
38.81,33.0,1.0,1.0,1.0
38.82,40.5056,1.0,1.0,1.0
38.83,37.0,1.0,1.0,1.0
38.84,25.0,1.0,1.0,1.0
38.85,28.9889,1.0,1.0,1.0
38.86,57.5056,1.0,1.0,1.0
38.87,27.0,1.0,1.0,1.0
38.88,33.5056,1.0,1.0,1.0
38.89,42.0,1.0,1.0,1.0
38.9,25.9889,1.0,1.0,1.0
38.91,25.0111,1.0,1.0,1.0
38.92,15.9889,1.0,1.0,1.0
38.93,30.0,1.0,1.0,1.0
38.94,36.0111,1.0,1.0,1.0
38.95,35.4833,1.0,1.0,1.0
38.96,42.0111,1.0,1.0,1.0
38.97,26.4944,1.0,1.0,1.0
38.98,24.0111,1.0,1.0,1.0
38.99,27.0,1.0,1.0,1.0
39.0,21.0,1.0,1.0,1.0
39.01,33.0,1.0,1.0,1.0
39.02,18.0,1.0,1.0,1.0
39.03,63.0,1.0,1.0,1.0
39.04,20.0,1.0,1.0,1.0
39.05,19.4944,1.0,1.0,1.0
39.06,34.5056,1.0,1.0,1.0
39.07,20.0,1.0,1.0,1.0
39.08,27.9889,1.0,1.0,1.0
39.09,21.0111,1.0,1.0,1.0
39.1,20.4944,1.0,1.0,1.0
39.11,40.5056,1.0,1.0,1.0
39.12,24.9889,1.0,1.0,1.0
39.13,38.0,1.0,1.0,1.0
39.14,25.0,1.0,1.0,1.0
39.15,30.0111,1.0,1.0,1.0
39.16,22.0,1.0,1.0,1.0
39.17,40.4944,1.0,1.0,1.0
39.18,32.4944,1.0,1.0,1.0
39.19,21.0111,1.0,1.0,1.0
39.2,27.0,1.0,1.0,1.0
39.21,34.0,1.0,1.0,1.0
39.22,22.0,1.0,1.0,1.0
39.23,26.4944,1.0,1.0,1.0
39.24,25.4944,1.0,1.0,1.0
39.25,37.0111,1.0,1.0,1.0
39.26,29.0,1.0,1.0,1.0
39.27,29.4944,1.0,1.0,1.0
39.28,23.5056,1.0,1.0,1.0
39.29,39.9889,1.0,1.0,1.0
39.3,26.0111,1.0,1.0,1.0
39.31,22.9889,1.0,1.0,1.0
39.32,41.4833,1.0,1.0,1.0
39.33,33.5278,1.0,1.0,1.0
39.34,32.0,1.0,1.0,1.0
39.35,19.0,1.0,1.0,1.0
39.36,23.4944,1.0,1.0,1.0
39.37,42.5056,1.0,1.0,1.0
39.38,33.0,1.0,1.0,1.0
39.39,76.4944,1.0,1.0,1.0
39.4,24.0,1.0,1.0,1.0
39.41,23.5056,1.0,1.0,1.0
39.42,30.0,1.0,1.0,1.0
39.43,31.9889,1.0,1.0,1.0
39.44,25.0111,1.0,1.0,1.0
39.45,32.0,1.0,1.0,1.0
39.46,44.0,1.0,1.0,1.0
39.47,30.0,1.0,1.0,1.0
39.48,40.0,1.0,1.0,1.0
39.49,25.0,1.0,1.0,1.0
39.5,33.0,1.0,1.0,1.0
39.51,33.4944,1.0,1.0,1.0
39.52,35.0,1.0,1.0,1.0
39.53,36.0,1.0,1.0,1.0
39.54,34.9889,1.0,1.0,1.0
39.55,26.0111,1.0,1.0,1.0
39.56,31.5056,1.0,1.0,1.0
39.57,26.0,1.0,1.0,1.0
39.58,27.0,1.0,1.0,1.0
39.59,44.0,1.0,1.0,1.0
39.6,29.0,1.0,1.0,1.0
39.61,27.9889,1.0,1.0,1.0
39.62,29.5056,1.0,1.0,1.0
39.63,33.5056,1.0,1.0,1.0
39.64,25.0,1.0,1.0,1.0
39.65,31.0,1.0,1.0,1.0
39.66,20.0,1.0,1.0,1.0
39.67,28.9889,1.0,1.0,1.0
39.68,39.0,1.0,1.0,1.0
39.69,27.0111,1.0,1.0,1.0
39.7,35.0,1.0,1.0,1.0
39.71,24.0,1.0,1.0,1.0
39.72,29.0,1.0,1.0,1.0
39.73,28.4944,1.0,1.0,1.0
39.74,28.0,1.0,1.0,1.0
39.75,18.5056,1.0,1.0,1.0
39.76,42.0,1.0,1.0,1.0
39.77,31.0,1.0,1.0,1.0
39.78,26.9889,1.0,1.0,1.0
39.79,34.5056,1.0,1.0,1.0
39.8,86.4944,1.0,1.0,1.0
39.81,36.0111,1.0,1.0,1.0
39.82,29.4944,1.0,1.0,1.0
39.83,41.0,1.0,1.0,1.0
39.84,31.5056,1.0,1.0,1.0
39.85,28.0,1.0,1.0,1.0
39.86,42.0,1.0,1.0,1.0
39.87,23.4833,1.0,1.0,1.0
39.88,44.0111,1.0,1.0,1.0
39.89,23.5056,1.0,1.0,1.0
39.9,23.0,1.0,1.0,1.0
39.91,24.4944,1.0,1.0,1.0
39.92,25.0,1.0,1.0,1.0
39.93,30.5056,1.0,1.0,1.0
39.94,25.0,1.0,1.0,1.0
39.95,30.0,1.0,1.0,1.0
39.96,25.4944,1.0,1.0,1.0
39.97,29.4833,1.0,1.0,1.0
39.98,53.0111,1.0,1.0,1.0
39.99,23.0111,1.0,1.0,1.0
40.0,37.0,1.0,1.0,1.0
40.01,36.9889,1.0,1.0,1.0
40.02,37.4944,1.0,1.0,1.0
40.03,37.0111,1.0,1.0,1.0
40.04,22.4944,1.0,1.0,1.0
40.05,33.0111,1.0,1.0,1.0
40.06,26.0,1.0,1.0,1.0
40.07,26.0,1.0,1.0,1.0
40.08,30.4944,1.0,1.0,1.0
40.09,27.5056,1.0,1.0,1.0
40.1,22.0,1.0,1.0,1.0
40.11,29.4833,1.0,1.0,1.0
40.12,25.0,1.0,1.0,1.0
40.13,20.5167,1.0,1.0,1.0
40.14,27.4944,1.0,1.0,1.0
40.15,44.5056,1.0,1.0,1.0
40.16,23.4944,1.0,1.0,1.0
40.17,44.4944,1.0,1.0,1.0
40.18,35.0111,1.0,1.0,1.0
40.19,26.0,1.0,1.0,1.0
40.2,23.0,1.0,1.0,1.0
40.21,23.0,1.0,1.0,1.0
40.22,27.4944,1.0,1.0,1.0
40.23,24.5056,1.0,1.0,1.0
40.24,27.0,1.0,1.0,1.0
40.25,37.0,1.0,1.0,1.0
40.26,19.0,1.0,1.0,1.0
40.27,11.0,1.0,1.0,1.0
40.28,22.0,1.0,1.0,1.0
40.29,38.0,1.0,1.0,1.0
40.3,19.0,1.0,1.0,1.0
40.31,23.0,1.0,1.0,1.0
40.32,15.0,1.0,1.0,1.0
40.33,29.0,1.0,1.0,1.0
40.34,27.0,1.0,1.0,1.0
40.35,28.0,1.0,1.0,1.0
40.36,12.9889,1.0,1.0,1.0
40.37,22.5056,1.0,1.0,1.0
40.38,20.4944,1.0,1.0,1.0
40.39,46.0111,1.0,1.0,1.0
40.4,21.0,1.0,1.0,1.0
40.41,30.0,1.0,1.0,1.0
40.42,32.4833,1.0,1.0,1.0
40.43,43.5167,1.0,1.0,1.0
40.44,21.9889,1.0,1.0,1.0
40.45,28.5056,1.0,1.0,1.0
40.46,35.5056,1.0,1.0,1.0
40.47,32.0,1.0,1.0,1.0
40.48,30.9889,1.0,1.0,1.0
40.49,22.5056,1.0,1.0,1.0
40.5,28.4944,1.0,1.0,1.0
40.51,15.0111,1.0,1.0,1.0
40.52,23.0,1.0,1.0,1.0
40.53,29.0,1.0,1.0,1.0
40.54,25.9889,1.0,1.0,1.0
40.55,36.5056,1.0,1.0,1.0
40.56,30.0,1.0,1.0,1.0
40.57,30.5056,1.0,1.0,1.0
40.58,21.0,1.0,1.0,1.0
40.59,37.4944,1.0,1.0,1.0
40.6,30.5056,1.0,1.0,1.0
40.61,21.0,1.0,1.0,1.0
40.62,36.0,1.0,1.0,1.0
40.63,23.0,1.0,1.0,1.0
40.64,17.0,1.0,1.0,1.0
40.65,31.9889,1.0,1.0,1.0
40.66,27.5056,1.0,1.0,1.0
40.67,35.5056,1.0,1.0,1.0
40.68,31.9889,1.0,1.0,1.0
40.69,17.0111,1.0,1.0,1.0
40.7,37.0,1.0,1.0,1.0
40.71,29.0,1.0,1.0,1.0
40.72,39.0,1.0,1.0,1.0
40.73,15.9889,1.0,1.0,1.0
40.74,42.5056,1.0,1.0,1.0
40.75,15.0,1.0,1.0,1.0
40.76,38.0,1.0,1.0,1.0
40.77,26.5056,1.0,1.0,1.0
40.78,30.9889,1.0,1.0,1.0
40.79,35.0111,1.0,1.0,1.0
40.8,33.0,1.0,1.0,1.0
40.81,22.0,1.0,1.0,1.0
40.82,27.4944,1.0,1.0,1.0
40.83,25.0,1.0,1.0,1.0
40.84,35.5056,1.0,1.0,1.0
40.85,36.0,1.0,1.0,1.0
40.86,28.0,1.0,1.0,1.0
40.87,31.9889,1.0,1.0,1.0
40.88,26.5056,1.0,1.0,1.0
40.89,52.0,1.0,1.0,1.0
40.9,35.5056,1.0,1.0,1.0
40.91,34.4944,1.0,1.0,1.0
40.92,24.4944,1.0,1.0,1.0
40.93,27.0111,1.0,1.0,1.0
40.94,41.0,1.0,1.0,1.0
40.95,28.0,1.0,1.0,1.0
40.96,24.4944,1.0,1.0,1.0
40.97,23.0,1.0,1.0,1.0
40.98,42.5056,1.0,1.0,1.0
40.99,42.0,1.0,1.0,1.0
41.0,29.0,1.0,1.0,1.0
41.01,29.4944,1.0,1.0,1.0
41.02,37.5056,1.0,1.0,1.0
41.03,43.0,1.0,1.0,1.0
41.04,31.0,1.0,1.0,1.0
41.05,39.0,1.0,1.0,1.0
41.06,41.0,1.0,1.0,1.0
41.07,44.4944,1.0,1.0,1.0
41.08,22.5056,1.0,1.0,1.0
41.09,49.0,1.0,1.0,1.0
41.1,31.0,1.0,1.0,1.0
41.11,31.4944,1.0,1.0,1.0
41.12,23.5056,1.0,1.0,1.0
41.13,43.9889,1.0,1.0,1.0
41.14,25.0111,1.0,1.0,1.0
41.15,38.0,1.0,1.0,1.0
41.16,27.0,1.0,1.0,1.0
41.17,41.4944,1.0,1.0,1.0
41.18,30.5056,1.0,1.0,1.0
41.19,31.0,1.0,1.0,1.0
41.2,39.0,1.0,1.0,1.0
41.21,38.4833,1.0,1.0,1.0
41.22,20.0111,1.0,1.0,1.0
41.23,41.0,1.0,1.0,1.0
41.24,34.9889,1.0,1.0,1.0
41.25,44.5056,1.0,1.0,1.0
41.26,24.5056,1.0,1.0,1.0
41.27,42.5056,1.0,1.0,1.0
41.28,29.0,1.0,1.0,1.0
41.29,26.4833,1.0,1.0,1.0
41.3,30.5167,1.0,1.0,1.0
41.31,40.0,1.0,1.0,1.0
41.32,54.4833,1.0,1.0,1.0
41.33,35.5167,1.0,1.0,1.0
41.34,41.0,1.0,1.0,1.0
41.35,44.4944,1.0,1.0,1.0
41.36,19.5056,1.0,1.0,1.0
41.37,41.0,1.0,1.0,1.0
41.38,38.9889,1.0,1.0,1.0
41.39,46.0,1.0,1.0,1.0
41.4,43.5056,1.0,1.0,1.0
41.41,38.5056,1.0,1.0,1.0
41.42,34.4944,1.0,1.0,1.0
41.43,29.5056,1.0,1.0,1.0
41.44,50.4944,1.0,1.0,1.0
41.45,33.0,1.0,1.0,1.0
41.46,32.0,1.0,1.0,1.0
41.47,52.5056,1.0,1.0,1.0
41.48,41.0,1.0,1.0,1.0
41.49,25.0,1.0,1.0,1.0
41.5,32.9889,1.0,1.0,1.0
41.51,48.5056,1.0,1.0,1.0
41.52,50.5056,1.0,1.0,1.0
41.53,48.0,1.0,1.0,1.0
41.54,30.0,1.0,1.0,1.0
41.55,45.4944,1.0,1.0,1.0
41.56,37.0,1.0,1.0,1.0
41.57,48.5056,1.0,1.0,1.0
41.58,48.0,1.0,1.0,1.0
41.59,47.4944,1.0,1.0,1.0
41.6,68.0,1.0,1.0,1.0
41.61,39.0,1.0,1.0,1.0
41.62,34.0,1.0,1.0,1.0
41.63,50.0,1.0,1.0,1.0
41.64,58.4944,1.0,1.0,1.0
41.65,36.0111,1.0,1.0,1.0
41.66,46.9889,1.0,1.0,1.0
41.67,55.0,1.0,1.0,1.0
41.68,54.0111,1.0,1.0,1.0
41.69,25.4944,1.0,1.0,1.0
41.7,49.4944,1.0,1.0,1.0
41.71,33.0111,1.0,1.0,1.0
41.72,36.9889,1.0,1.0,1.0
41.73,46.0111,1.0,1.0,1.0
41.74,52.0,1.0,1.0,1.0
41.75,36.4944,1.0,1.0,1.0
41.76,31.5056,1.0,1.0,1.0
41.77,27.4944,1.0,1.0,1.0
41.78,41.0,1.0,1.0,1.0
41.79,52.0,1.0,1.0,1.0
41.8,68.0,1.0,1.0,1.0
41.81,35.4944,1.0,1.0,1.0
41.82,61.0111,1.0,1.0,1.0
41.83,48.0,1.0,1.0,1.0
41.84,50.4944,1.0,1.0,1.0
41.85,67.0,1.0,1.0,1.0
41.86,52.5056,1.0,1.0,1.0
41.87,34.4944,1.0,1.0,1.0
41.88,60.0,1.0,1.0,1.0
41.89,51.0,1.0,1.0,1.0
41.9,48.5056,1.0,1.0,1.0
41.91,47.0,1.0,1.0,1.0
41.92,45.9889,1.0,1.0,1.0
41.93,57.0,1.0,1.0,1.0
41.94,55.0111,1.0,1.0,1.0
41.95,44.0,1.0,1.0,1.0
41.96,34.9889,1.0,1.0,1.0
41.97,55.5056,1.0,1.0,1.0
41.98,41.5056,1.0,1.0,1.0
41.99,51.4944,1.0,1.0,1.0
42.0,41.0,1.0,1.0,1.0
42.01,54.4944,1.0,1.0,1.0
42.02,32.5056,1.0,1.0,1.0
42.03,71.0,1.0,1.0,1.0
42.04,39.5056,1.0,1.0,1.0
42.05,38.0,1.0,1.0,1.0
42.06,24.9889,1.0,1.0,1.0
42.07,33.4944,1.0,1.0,1.0
42.08,33.5167,1.0,1.0,1.0
42.09,31.4944,1.0,1.0,1.0
42.1,31.0,1.0,1.0,1.0
42.11,46.5056,1.0,1.0,1.0
42.12,38.9889,1.0,1.0,1.0
42.13,48.5056,1.0,1.0,1.0
42.14,37.0,1.0,1.0,1.0
42.15,32.5056,1.0,1.0,1.0
42.16,73.0,1.0,1.0,1.0
42.17,46.0,1.0,1.0,1.0
42.18,36.0,1.0,1.0,1.0
42.19,39.4944,1.0,1.0,1.0
42.2,68.0,1.0,1.0,1.0
42.21,30.0,1.0,1.0,1.0
42.22,49.4944,1.0,1.0,1.0
42.23,45.5056,1.0,1.0,1.0
42.24,38.4944,1.0,1.0,1.0
42.25,28.0111,1.0,1.0,1.0
42.26,46.4944,1.0,1.0,1.0
42.27,57.5056,1.0,1.0,1.0
42.28,38.4944,1.0,1.0,1.0
42.29,44.5056,1.0,1.0,1.0
42.3,34.9889,1.0,1.0,1.0
42.31,24.0111,1.0,1.0,1.0
42.32,36.9889,1.0,1.0,1.0
42.33,40.5056,1.0,1.0,1.0
42.34,37.4944,1.0,1.0,1.0
42.35,32.0111,1.0,1.0,1.0
42.36,40.0,1.0,1.0,1.0
42.37,29.4944,1.0,1.0,1.0
42.38,36.5056,1.0,1.0,1.0
42.39,52.9889,1.0,1.0,1.0
42.4,38.5056,1.0,1.0,1.0
42.41,41.4944,1.0,1.0,1.0
42.42,47.0111,1.0,1.0,1.0
42.43,53.4944,1.0,1.0,1.0
42.44,31.5056,1.0,1.0,1.0
42.45,28.4944,1.0,1.0,1.0
42.46,26.5056,1.0,1.0,1.0
42.47,28.0,1.0,1.0,1.0
42.48,23.4944,1.0,1.0,1.0
42.49,48.4944,1.0,1.0,1.0
42.5,48.0111,1.0,1.0,1.0
42.51,39.0,1.0,1.0,1.0
42.52,41.4944,1.0,1.0,1.0
42.53,33.5056,1.0,1.0,1.0
42.54,25.4944,1.0,1.0,1.0
42.55,49.9889,1.0,1.0,1.0
42.56,125.5167,1.0,1.0,1.0
42.57,29.0,1.0,1.0,1.0
42.58,36.4944,1.0,1.0,1.0
42.59,37.0,1.0,1.0,1.0
42.6,37.5056,1.0,1.0,1.0
42.61,41.4944,1.0,1.0,1.0
42.62,40.5056,1.0,1.0,1.0
42.63,26.0,1.0,1.0,1.0
42.64,37.0,1.0,1.0,1.0
42.65,49.4944,1.0,1.0,1.0
42.66,14.5056,1.0,1.0,1.0
42.67,26.9889,1.0,1.0,1.0
42.68,37.0111,1.0,1.0,1.0
42.69,24.4944,1.0,1.0,1.0
42.7,20.0,1.0,1.0,1.0
42.71,33.4944,1.0,1.0,1.0
42.72,16.0111,1.0,1.0,1.0
42.73,34.9889,1.0,1.0,1.0
42.74,34.0111,1.0,1.0,1.0
42.75,36.0,1.0,1.0,1.0
42.76,28.0,1.0,1.0,1.0
42.77,25.0,1.0,1.0,1.0
42.78,34.0,1.0,1.0,1.0
42.79,46.4944,1.0,1.0,1.0
42.8,41.5056,1.0,1.0,1.0
42.81,42.9889,1.0,1.0,1.0
42.82,43.0111,1.0,1.0,1.0
42.83,45.0,1.0,1.0,1.0
42.84,33.0,1.0,1.0,1.0
42.85,18.0,1.0,1.0,1.0
42.86,37.0,1.0,1.0,1.0
42.87,34.0,1.0,1.0,1.0
42.88,37.0,1.0,1.0,1.0
42.89,41.0,1.0,1.0,1.0
42.9,43.0,1.0,1.0,1.0
42.91,38.0,1.0,1.0,1.0
42.92,26.4944,1.0,1.0,1.0
42.93,39.5056,1.0,1.0,1.0
42.94,30.0,1.0,1.0,1.0
42.95,48.9889,1.0,1.0,1.0
42.96,79.0111,1.0,1.0,1.0
42.97,41.4944,1.0,1.0,1.0
42.98,37.4944,1.0,1.0,1.0
42.99,41.0111,1.0,1.0,1.0
43.0,46.4833,1.0,1.0,1.0
43.01,31.5167,1.0,1.0,1.0
43.02,42.9889,1.0,1.0,1.0
43.03,31.0111,1.0,1.0,1.0
43.04,27.9889,1.0,1.0,1.0
43.05,58.0111,1.0,1.0,1.0
43.06,46.0,1.0,1.0,1.0
43.07,49.9889,1.0,1.0,1.0
43.08,44.0111,1.0,1.0,1.0
43.09,26.0,1.0,1.0,1.0
43.1,35.9889,1.0,1.0,1.0
43.11,51.0111,1.0,1.0,1.0
43.12,38.0,1.0,1.0,1.0
43.13,45.4944,1.0,1.0,1.0
43.14,61.5056,1.0,1.0,1.0
43.15,49.9889,1.0,1.0,1.0
43.16,39.0111,1.0,1.0,1.0
43.17,59.4944,1.0,1.0,1.0
43.18,63.0,1.0,1.0,1.0
43.19,74.5056,1.0,1.0,1.0
43.2,53.0,1.0,1.0,1.0
43.21,68.4944,1.0,1.0,1.0
43.22,54.5056,1.0,1.0,1.0
43.23,72.0,1.0,1.0,1.0
43.24,54.0,1.0,1.0,1.0
43.25,62.0,1.0,1.0,1.0
43.26,65.0,1.0,1.0,1.0
43.27,54.0,1.0,1.0,1.0
43.28,65.0,1.0,1.0,1.0
43.29,55.9889,1.0,1.0,1.0
43.3,50.0111,1.0,1.0,1.0
43.31,68.9889,1.0,1.0,1.0
43.32,78.0111,1.0,1.0,1.0
43.33,78.9889,1.0,1.0,1.0
43.34,88.0111,1.0,1.0,1.0
43.35,65.9889,1.0,1.0,1.0
43.36,86.5056,1.0,1.0,1.0
43.37,79.9889,1.0,1.0,1.0
43.38,95.0,1.0,1.0,1.0
43.39,75.0111,1.0,1.0,1.0
43.4,118.5056,1.0,1.0,1.0
43.41,106.4944,1.0,1.0,1.0
43.42,68.4944,1.0,1.0,1.0
43.43,64.0,1.0,1.0,1.0
43.44,100.0,1.0,1.0,1.0
43.45,86.0,1.0,1.0,1.0
43.46,108.5056,1.0,1.0,1.0
43.47,108.5056,1.0,1.0,1.0
43.48,94.9778,1.0,1.0,1.0
43.49,121.0,1.0,1.0,1.0
43.5,101.5167,1.0,1.0,1.0
43.51,72.4833,1.0,1.0,1.0
43.52,100.0111,1.0,1.0,1.0
43.53,106.4944,1.0,1.0,1.0
43.54,131.0,1.0,1.0,1.0
43.55,144.5056,1.0,1.0,1.0
43.56,105.4833,1.0,1.0,1.0
43.57,141.5167,1.0,1.0,1.0
43.58,159.9778,1.0,1.0,1.0
43.59,121.0111,1.0,1.0,1.0
43.6,116.5167,1.0,1.0,1.0
43.61,137.5056,1.0,1.0,1.0
43.62,125.4833,1.0,1.0,1.0
43.63,142.5167,1.0,1.0,1.0
43.64,131.9778,1.0,1.0,1.0
43.65,140.5056,1.0,1.0,1.0
43.66,141.0111,1.0,1.0,1.0
43.67,151.9889,1.0,1.0,1.0
43.68,151.0,1.0,1.0,1.0
43.69,167.4944,1.0,1.0,1.0
43.7,158.0111,1.0,1.0,1.0
43.71,175.0,1.0,1.0,1.0
43.72,190.9889,1.0,1.0,1.0
43.73,198.0,1.0,1.0,1.0
43.74,157.4944,1.0,1.0,1.0
43.75,185.0,1.0,1.0,1.0
43.76,160.0222,1.0,1.0,1.0
43.77,156.9889,1.0,1.0,1.0
43.78,192.9889,1.0,1.0,1.0
43.79,221.0,1.0,1.0,1.0
43.8,178.9889,1.0,1.0,1.0
43.81,203.5167,1.0,1.0,1.0
43.82,205.0,1.0,1.0,1.0
43.83,204.4833,1.0,1.0,1.0
43.84,229.5056,1.0,1.0,1.0
43.85,219.5056,1.0,1.0,1.0
43.86,205.5056,1.0,1.0,1.0
43.87,222.4944,1.0,1.0,1.0
43.88,264.5056,1.0,1.0,1.0
43.89,276.0,1.0,1.0,1.0
43.9,206.4944,1.0,1.0,1.0
43.91,240.0111,1.0,1.0,1.0
43.92,265.4833,1.0,1.0,1.0
43.93,267.0,1.0,1.0,1.0
43.94,251.0111,1.0,1.0,1.0
43.95,256.0,1.0,1.0,1.0
43.96,242.5056,1.0,1.0,1.0
43.97,265.9667,1.0,1.0,1.0
43.98,263.0222,1.0,1.0,1.0
43.99,257.0111,1.0,1.0,1.0
44.0,278.4611,1.0,1.0,1.0
44.01,298.0222,1.0,1.0,1.0
44.02,317.5056,1.0,1.0,1.0
44.03,276.4944,1.0,1.0,1.0
44.04,302.4833,1.0,1.0,1.0
44.05,318.0222,1.0,1.0,1.0
44.06,324.0111,1.0,1.0,1.0
44.07,317.5056,1.0,1.0,1.0
44.08,311.4944,1.0,1.0,1.0
44.09,346.4944,1.0,1.0,1.0
44.1,297.9778,1.0,1.0,1.0
44.11,308.5278,1.0,1.0,1.0
44.12,321.0,1.0,1.0,1.0
44.13,324.9667,1.0,1.0,1.0
44.14,357.0333,1.0,1.0,1.0
44.15,338.4611,1.0,1.0,1.0
44.16,378.9889,1.0,1.0,1.0
44.17,379.0,1.0,1.0,1.0
44.18,409.0333,1.0,1.0,1.0
44.19,370.0,1.0,1.0,1.0
44.2,390.4944,1.0,1.0,1.0
44.21,416.4722,1.0,1.0,1.0
44.22,417.55,1.0,1.0,1.0
44.23,398.4833,1.0,1.0,1.0
44.24,394.0111,1.0,1.0,1.0
44.25,434.45,1.0,1.0,1.0
44.26,398.5389,1.0,1.0,1.0
44.27,391.9667,1.0,1.0,1.0
44.28,396.0111,1.0,1.0,1.0
44.29,444.0222,1.0,1.0,1.0
44.3,420.9778,1.0,1.0,1.0
44.31,441.5167,1.0,1.0,1.0
44.32,474.4833,1.0,1.0,1.0
44.33,395.0444,1.0,1.0,1.0
44.34,427.4833,1.0,1.0,1.0
44.35,445.9778,1.0,1.0,1.0
44.36,473.5278,1.0,1.0,1.0
44.37,439.45,1.0,1.0,1.0
44.38,458.5278,1.0,1.0,1.0
44.39,495.9778,1.0,1.0,1.0
44.4,530.0,1.0,1.0,1.0
44.41,460.0111,1.0,1.0,1.0
44.42,525.4944,1.0,1.0,1.0
44.43,466.5056,1.0,1.0,1.0
44.44,513.0222,1.0,1.0,1.0
44.45,528.9445,1.0,1.0,1.0
44.46,514.0333,1.0,1.0,1.0
44.47,483.5056,1.0,1.0,1.0
44.48,532.9778,1.0,1.0,1.0
44.49,610.5056,1.0,1.0,1.0
44.5,563.0111,1.0,1.0,1.0
44.51,571.0333,1.0,1.0,1.0
44.52,520.9778,1.0,1.0,1.0
44.53,568.4833,1.0,1.0,1.0
44.54,579.0111,1.0,1.0,1.0
44.55,624.9778,1.0,1.0,1.0
44.56,620.4833,1.0,1.0,1.0
44.57,580.5056,1.0,1.0,1.0
44.58,558.5167,1.0,1.0,1.0
44.59,595.5167,1.0,1.0,1.0
44.6,598.5056,1.0,1.0,1.0
44.61,588.9333,1.0,1.0,1.0
44.62,601.0667,1.0,1.0,1.0
44.63,597.9778,1.0,1.0,1.0
44.64,655.9778,1.0,1.0,1.0
44.65,609.5278,1.0,1.0,1.0
44.66,608.0,1.0,1.0,1.0
44.67,658.5167,1.0,1.0,1.0
44.68,659.4611,1.0,1.0,1.0
44.69,677.0111,1.0,1.0,1.0
44.7,627.5167,1.0,1.0,1.0
44.71,687.9889,1.0,1.0,1.0
44.72,709.0,1.0,1.0,1.0
44.73,718.4944,1.0,1.0,1.0
44.74,684.0444,1.0,1.0,1.0
44.75,690.4833,1.0,1.0,1.0
44.76,691.4611,1.0,1.0,1.0
44.77,679.9889,1.0,1.0,1.0
44.78,684.0,1.0,1.0,1.0
44.79,752.0111,1.0,1.0,1.0
44.8,757.5056,1.0,1.0,1.0
44.81,722.9667,1.0,1.0,1.0
44.82,706.5389,1.0,1.0,1.0
44.83,705.9778,1.0,1.0,1.0
44.84,688.0,1.0,1.0,1.0
44.85,743.55,1.0,1.0,1.0
44.86,769.9667,1.0,1.0,1.0
44.87,721.0,1.0,1.0,1.0
44.88,765.4833,1.0,1.0,1.0
44.89,770.4944,1.0,1.0,1.0
44.9,788.5056,1.0,1.0,1.0
44.91,779.5389,1.0,1.0,1.0
44.92,805.9667,1.0,1.0,1.0
44.93,788.5278,1.0,1.0,1.0
44.94,795.4722,1.0,1.0,1.0
44.95,793.4944,1.0,1.0,1.0
44.96,762.5167,1.0,1.0,1.0
44.97,800.4611,1.0,1.0,1.0
44.98,816.5056,1.0,1.0,1.0
44.99,836.5056,1.0,1.0,1.0
45.0,835.4833,1.0,1.0,1.0
45.01,809.5056,1.0,1.0,1.0
45.02,829.55,1.0,1.0,1.0
45.03,852.9889,1.0,1.0,1.0
45.04,831.4722,1.0,1.0,1.0
45.05,822.9889,1.0,1.0,1.0
45.06,829.5167,1.0,1.0,1.0
45.07,858.5278,1.0,1.0,1.0
45.08,858.9778,1.0,1.0,1.0
45.09,890.5167,1.0,1.0,1.0
45.1,853.4833,1.0,1.0,1.0
45.11,846.9667,1.0,1.0,1.0
45.12,885.0333,1.0,1.0,1.0
45.13,869.0111,1.0,1.0,1.0
45.14,884.4833,1.0,1.0,1.0
45.15,914.0111,1.0,1.0,1.0
45.16,942.4944,1.0,1.0,1.0
45.17,871.9445,1.0,1.0,1.0
45.18,914.5056,1.0,1.0,1.0
45.19,851.5833,1.0,1.0,1.0
45.2,928.9,1.0,1.0,1.0
45.21,897.5944,1.0,1.0,1.0
45.22,878.9889,1.0,1.0,1.0
45.23,895.4833,1.0,1.0,1.0
45.24,865.4944,1.0,1.0,1.0
45.25,902.9778,1.0,1.0,1.0
45.26,930.5611,1.0,1.0,1.0
45.27,841.4833,1.0,1.0,1.0
45.28,895.9889,1.0,1.0,1.0
45.29,944.9667,1.0,1.0,1.0
45.3,916.5278,1.0,1.0,1.0
45.31,913.4611,1.0,1.0,1.0
45.32,972.0111,1.0,1.0,1.0
45.33,993.9889,1.0,1.0,1.0
45.34,968.9778,1.0,1.0,1.0
45.35,924.5722,1.0,1.0,1.0
45.36,899.0111,1.0,1.0,1.0
45.37,968.9778,1.0,1.0,1.0
45.38,933.9445,1.0,1.0,1.0
45.39,927.55,1.0,1.0,1.0
45.4,948.5167,1.0,1.0,1.0
45.41,907.4389,1.0,1.0,1.0
45.42,928.4833,1.0,1.0,1.0
45.43,981.0667,1.0,1.0,1.0
45.44,935.9667,1.0,1.0,1.0
45.45,915.0444,1.0,1.0,1.0
45.46,968.9445,1.0,1.0,1.0
45.47,962.0444,1.0,1.0,1.0
45.48,1009.49,1.0,1.0,1.0
45.49,940.4722,1.0,1.0,1.0
45.5,933.4944,1.0,1.0,1.0
45.51,940.5167,1.0,1.0,1.0
45.52,950.5167,1.0,1.0,1.0
45.53,912.4722,1.0,1.0,1.0
45.54,935.5278,1.0,1.0,1.0
45.55,1004.97,1.0,1.0,1.0
45.56,957.5278,1.0,1.0,1.0
45.57,952.9778,1.0,1.0,1.0
45.58,994.9778,1.0,1.0,1.0
45.59,950.55,1.0,1.0,1.0
45.6,922.0,1.0,1.0,1.0
45.61,921.4944,1.0,1.0,1.0
45.62,931.0333,1.0,1.0,1.0
45.63,954.45,1.0,1.0,1.0
45.64,1001.04,1.0,1.0,1.0
45.65,956.9556,1.0,1.0,1.0
45.66,969.0222,1.0,1.0,1.0
45.67,927.5167,1.0,1.0,1.0
45.68,988.9778,1.0,1.0,1.0
45.69,957.5056,1.0,1.0,1.0
45.7,979.4722,1.0,1.0,1.0
45.71,960.5056,1.0,1.0,1.0
45.72,1004.03,1.0,1.0,1.0
45.73,915.4611,1.0,1.0,1.0
45.74,968.4944,1.0,1.0,1.0
45.75,919.0111,1.0,1.0,1.0
45.76,1005.55,1.0,1.0,1.0
45.77,892.4833,1.0,1.0,1.0
45.78,957.5389,1.0,1.0,1.0
45.79,958.4611,1.0,1.0,1.0
45.8,966.9778,1.0,1.0,1.0
45.81,960.5056,1.0,1.0,1.0
45.82,916.9667,1.0,1.0,1.0
45.83,940.9778,1.0,1.0,1.0
45.84,1040.55,1.0,1.0,1.0
45.85,980.5278,1.0,1.0,1.0
45.86,1072.48,1.0,1.0,1.0
45.87,953.9778,1.0,1.0,1.0
45.88,936.9889,1.0,1.0,1.0
45.89,949.0555,1.0,1.0,1.0
45.9,888.4611,1.0,1.0,1.0
45.91,896.0555,1.0,1.0,1.0
45.92,918.9778,1.0,1.0,1.0
45.93,934.9778,1.0,1.0,1.0
45.94,906.9778,1.0,1.0,1.0
45.95,972.55,1.0,1.0,1.0
45.96,916.4833,1.0,1.0,1.0
45.97,929.0222,1.0,1.0,1.0
45.98,919.9556,1.0,1.0,1.0
45.99,872.5278,1.0,1.0,1.0
46.0,930.4722,1.0,1.0,1.0
46.01,876.5278,1.0,1.0,1.0
46.02,866.9778,1.0,1.0,1.0
46.03,910.0,1.0,1.0,1.0
46.04,837.0222,1.0,1.0,1.0
46.05,882.0,1.0,1.0,1.0
46.06,894.0,1.0,1.0,1.0
46.07,910.4389,1.0,1.0,1.0
46.08,890.0555,1.0,1.0,1.0
46.09,889.4833,1.0,1.0,1.0
46.1,892.4944,1.0,1.0,1.0
46.11,878.0333,1.0,1.0,1.0
46.12,827.5167,1.0,1.0,1.0
46.13,853.4389,1.0,1.0,1.0
46.14,885.0222,1.0,1.0,1.0
46.15,823.0222,1.0,1.0,1.0
46.16,869.9667,1.0,1.0,1.0
46.17,853.0111,1.0,1.0,1.0
46.18,895.5278,1.0,1.0,1.0
46.19,835.4722,1.0,1.0,1.0
46.2,810.5278,1.0,1.0,1.0
46.21,849.9445,1.0,1.0,1.0
46.22,845.0444,1.0,1.0,1.0
46.23,829.0222,1.0,1.0,1.0
46.24,811.5278,1.0,1.0,1.0
46.25,850.9445,1.0,1.0,1.0
46.26,929.4722,1.0,1.0,1.0
46.27,816.5389,1.0,1.0,1.0
46.28,823.9889,1.0,1.0,1.0
46.29,854.9445,1.0,1.0,1.0
46.3,874.0667,1.0,1.0,1.0
46.31,833.4944,1.0,1.0,1.0
46.32,842.4944,1.0,1.0,1.0
46.33,789.5389,1.0,1.0,1.0
46.34,829.9333,1.0,1.0,1.0
46.35,780.0333,1.0,1.0,1.0
46.36,791.0222,1.0,1.0,1.0
46.37,801.4722,1.0,1.0,1.0
46.38,805.0,1.0,1.0,1.0
46.39,877.9445,1.0,1.0,1.0
46.4,803.5611,1.0,1.0,1.0
46.41,782.5611,1.0,1.0,1.0
46.42,784.9333,1.0,1.0,1.0
46.43,782.5056,1.0,1.0,1.0
46.44,848.0,1.0,1.0,1.0
46.45,750.5167,1.0,1.0,1.0
46.46,801.0333,1.0,1.0,1.0
46.47,702.9778,1.0,1.0,1.0
46.48,745.5167,1.0,1.0,1.0
46.49,732.9333,1.0,1.0,1.0
46.5,780.0333,1.0,1.0,1.0
46.51,780.0,1.0,1.0,1.0
46.52,754.0111,1.0,1.0,1.0
46.53,729.4722,1.0,1.0,1.0
46.54,769.4833,1.0,1.0,1.0
46.55,720.9667,1.0,1.0,1.0
46.56,734.5722,1.0,1.0,1.0
46.57,749.4944,1.0,1.0,1.0
46.58,676.4944,1.0,1.0,1.0
46.59,707.9889,1.0,1.0,1.0
46.6,725.0111,1.0,1.0,1.0
46.61,713.0,1.0,1.0,1.0
46.62,712.0333,1.0,1.0,1.0
46.63,686.5278,1.0,1.0,1.0
46.64,682.9222,1.0,1.0,1.0
46.65,714.0222,1.0,1.0,1.0
46.66,712.55,1.0,1.0,1.0
46.67,688.9889,1.0,1.0,1.0
46.68,667.4833,1.0,1.0,1.0
46.69,714.9556,1.0,1.0,1.0
46.7,694.0444,1.0,1.0,1.0
46.71,711.9667,1.0,1.0,1.0
46.72,660.5056,1.0,1.0,1.0
46.73,719.5056,1.0,1.0,1.0
46.74,651.4944,1.0,1.0,1.0
46.75,669.5056,1.0,1.0,1.0
46.76,611.5167,1.0,1.0,1.0
46.77,678.4833,1.0,1.0,1.0
46.78,656.0222,1.0,1.0,1.0
46.79,674.5056,1.0,1.0,1.0
46.8,651.4833,1.0,1.0,1.0
46.81,694.9667,1.0,1.0,1.0
46.82,676.4944,1.0,1.0,1.0
46.83,654.9889,1.0,1.0,1.0
46.84,672.5389,1.0,1.0,1.0
46.85,656.0,1.0,1.0,1.0
46.86,659.4944,1.0,1.0,1.0
46.87,672.4833,1.0,1.0,1.0
46.88,635.0333,1.0,1.0,1.0
46.89,685.4611,1.0,1.0,1.0
46.9,651.9556,1.0,1.0,1.0
46.91,632.1111,1.0,1.0,1.0
46.92,691.9778,1.0,1.0,1.0
46.93,679.9889,1.0,1.0,1.0
46.94,684.5167,1.0,1.0,1.0
46.95,653.4611,1.0,1.0,1.0
46.96,693.5056,1.0,1.0,1.0
46.97,678.5056,1.0,1.0,1.0
46.98,666.0,1.0,1.0,1.0
46.99,647.9889,1.0,1.0,1.0
47.0,648.0,1.0,1.0,1.0
47.01,681.9778,1.0,1.0,1.0
47.02,674.5389,1.0,1.0,1.0
47.03,683.0333,1.0,1.0,1.0
47.04,647.4944,1.0,1.0,1.0
47.05,662.4833,1.0,1.0,1.0
47.06,663.5167,1.0,1.0,1.0
47.07,764.4944,1.0,1.0,1.0
47.08,693.4611,1.0,1.0,1.0
47.09,676.5056,1.0,1.0,1.0
47.1,694.0333,1.0,1.0,1.0
47.11,728.9556,1.0,1.0,1.0
47.12,644.5056,1.0,1.0,1.0
47.13,762.0111,1.0,1.0,1.0
47.14,754.5167,1.0,1.0,1.0
47.15,711.9778,1.0,1.0,1.0
47.16,771.5056,1.0,1.0,1.0
47.17,742.0,1.0,1.0,1.0
47.18,730.0222,1.0,1.0,1.0
47.19,783.4611,1.0,1.0,1.0
47.2,742.0555,1.0,1.0,1.0
47.21,823.9667,1.0,1.0,1.0
47.22,781.4944,1.0,1.0,1.0
47.23,870.4944,1.0,1.0,1.0
47.24,862.9778,1.0,1.0,1.0
47.25,882.0222,1.0,1.0,1.0
47.26,857.9889,1.0,1.0,1.0
47.27,792.5167,1.0,1.0,1.0
47.28,874.4722,1.0,1.0,1.0
47.29,950.5167,1.0,1.0,1.0
47.3,876.9889,1.0,1.0,1.0
47.31,949.5389,1.0,1.0,1.0
47.32,939.45,1.0,1.0,1.0
47.33,1057.53,1.0,1.0,1.0
47.34,985.9778,1.0,1.0,1.0
47.35,1012.51,1.0,1.0,1.0
47.36,1002.51,1.0,1.0,1.0
47.37,1090.51,1.0,1.0,1.0
47.38,1128.42,1.0,1.0,1.0
47.39,1147.56,1.0,1.0,1.0
47.4,1116.97,1.0,1.0,1.0
47.41,1219.52,1.0,1.0,1.0
47.42,1158.53,1.0,1.0,1.0
47.43,1247.48,1.0,1.0,1.0
47.44,1180.48,1.0,1.0,1.0
47.45,1401.51,1.0,1.0,1.0
47.46,1317.02,1.0,1.0,1.0
47.47,1410.98,1.0,1.0,1.0
47.48,1498.47,1.0,1.0,1.0
47.49,1461.48,1.0,1.0,1.0
47.5,1468.53,1.0,1.0,1.0
47.51,1658.03,1.0,1.0,1.0
47.52,1644.43,1.0,1.0,1.0
47.53,1763.98,1.0,1.0,1.0
47.54,1759.99,1.0,1.0,1.0
47.55,1820.04,1.0,1.0,1.0
47.56,2026.98,1.0,1.0,1.0
47.57,2094.48,1.0,1.0,1.0
47.58,2133.48,1.0,1.0,1.0
47.59,2271.48,1.0,1.0,1.0
47.6,2431.46,1.0,1.0,1.0
47.61,2540.96,1.0,1.0,1.0
47.62,2757.04,1.0,1.0,1.0
47.63,2936.01,1.0,1.0,1.0
47.64,3011.88,1.0,1.0,1.0
47.65,3116.06,1.0,1.0,1.0
47.66,3450.52,1.0,1.0,1.0
47.67,3593.88,1.0,1.0,1.0
47.68,3725.02,1.0,1.0,1.0
47.69,4264.45,1.0,1.0,1.0
47.7,4611.91,1.0,1.0,1.0
47.71,5033.52,1.0,1.0,1.0
47.72,5439.88,1.0,1.0,1.0
47.73,5956.43,1.0,1.0,1.0
47.74,6541.42,1.0,1.0,1.0
47.75,7245.88,1.0,1.0,1.0
47.76,8068.57,1.0,1.0,1.0
47.77,9153.37,1.0,1.0,1.0
47.78,10315.7,1.0,1.0,1.0
47.79,12006.8,1.0,1.0,1.0
47.8,14240.7,1.0,1.0,1.0
47.81,17051.9,1.0,1.0,1.0
47.82,20732.8,1.0,1.0,1.0
47.83,26298.1,1.0,1.0,1.0
47.84,33073,1.0,1.0,1.0
47.85,43116.7,1.0,1.0,1.0
47.86,65415.4,1.0,1.0,1.0
47.87,139569.0,1.0,1.0,1.0
47.88,298734,1.0,1.0,1.0
47.89,844711,1.0,1.0,1.0
47.9,2034674.5,1.0,1.0,1.0
47.91,3743508.5,1.0,1.0,1.0
47.92,5373709.0,1.0,1.0,1.0
47.93,6829580.0,1.0,1.0,1.0
47.94,8248006.0,1.0,1.0,1.0
47.95,8885400.0,1.0,1.0,1.0
47.96,9905118.0,1.0,1.0,1.0
47.97,11347834.0,1.0,1.0,1.0
47.98,9666198.0,1.0,1.0,1.0
47.99,7090309.0,1.0,1.0,1.0
48.0,4899475.0,1.0,1.0,1.0
48.01,3612016.75,1.0,1.0,1.0
48.02,2851242.5,1.0,1.0,1.0
48.03,2479733.5,1.0,1.0,1.0
48.04,2077809.625,1.0,1.0,1.0
48.05,1521129.125,1.0,1.0,1.0
48.06,903869.375,1.0,1.0,1.0
48.07,415111,1.0,1.0,1.0
48.08,171895,1.0,1.0,1.0
48.09,75491.3,1.0,1.0,1.0
48.1,39968,1.0,1.0,1.0
48.11,26967.9,1.0,1.0,1.0
48.12,20971,1.0,1.0,1.0
48.13,16340.4,1.0,1.0,1.0
48.14,13660.7,1.0,1.0,1.0
48.15,11498.333,1.0,1.0,1.0
48.16,9577.74,1.0,1.0,1.0
48.17,8365.11,1.0,1.0,1.0
48.18,7104.64,1.0,1.0,1.0
48.19,6311.08,1.0,1.0,1.0
48.2,5547.52,1.0,1.0,1.0
48.21,4977.561,1.0,1.0,1.0
48.22,4536.01,1.0,1.0,1.0
48.23,4115.03,1.0,1.0,1.0
48.24,3624.61,1.0,1.0,1.0
48.25,3263.51,1.0,1.0,1.0
48.26,2926.13,1.0,1.0,1.0
48.27,2799.47,1.0,1.0,1.0
48.28,2464.03,1.0,1.0,1.0
48.29,2291.06,1.0,1.0,1.0
48.3,2241.99,1.0,1.0,1.0
48.31,2025.99,1.0,1.0,1.0
48.32,1769.51,1.0,1.0,1.0
48.33,1700.52,1.0,1.0,1.0
48.34,1612.49,1.0,1.0,1.0
48.35,1569.52,1.0,1.0,1.0
48.36,1370.49,1.0,1.0,1.0
48.37,1244.04,1.0,1.0,1.0
48.38,1162.99,1.0,1.0,1.0
48.39,1094.01,1.0,1.0,1.0
48.4,1043.48,1.0,1.0,1.0
48.41,982.0333,1.0,1.0,1.0
48.42,954.5278,1.0,1.0,1.0
48.43,862.0111,1.0,1.0,1.0
48.44,842.0222,1.0,1.0,1.0
48.45,777.4611,1.0,1.0,1.0
48.46,751.0222,1.0,1.0,1.0
48.47,701.4944,1.0,1.0,1.0
48.48,646.0222,1.0,1.0,1.0
48.49,642.9556,1.0,1.0,1.0
48.5,627.5611,1.0,1.0,1.0
48.51,575.9778,1.0,1.0,1.0
48.52,554.4944,1.0,1.0,1.0
48.53,532.5056,1.0,1.0,1.0
48.54,522.0222,1.0,1.0,1.0
48.55,516.5056,1.0,1.0,1.0
48.56,431.5167,1.0,1.0,1.0
48.57,409.4722,1.0,1.0,1.0
48.58,429.0333,1.0,1.0,1.0
48.59,403.4611,1.0,1.0,1.0
48.6,410.5278,1.0,1.0,1.0
48.61,395.9778,1.0,1.0,1.0
48.62,350.0111,1.0,1.0,1.0
48.63,356.0,1.0,1.0,1.0
48.64,319.0111,1.0,1.0,1.0
48.65,338.0111,1.0,1.0,1.0
48.66,336.0,1.0,1.0,1.0
48.67,323.9445,1.0,1.0,1.0
48.68,297.5278,1.0,1.0,1.0
48.69,294.0222,1.0,1.0,1.0
48.7,313.4944,1.0,1.0,1.0
48.71,264.5278,1.0,1.0,1.0
48.72,226.4944,1.0,1.0,1.0
48.73,233.4833,1.0,1.0,1.0
48.74,264.9889,1.0,1.0,1.0
48.75,238.5167,1.0,1.0,1.0
48.76,228.9889,1.0,1.0,1.0
48.77,228.4833,1.0,1.0,1.0
48.78,225.5056,1.0,1.0,1.0
48.79,236.5056,1.0,1.0,1.0
48.8,202.0333,1.0,1.0,1.0
48.81,185.9889,1.0,1.0,1.0
48.82,192.9778,1.0,1.0,1.0
48.83,205.9889,1.0,1.0,1.0
48.84,182.0222,1.0,1.0,1.0
48.85,154.5056,1.0,1.0,1.0
48.86,188.0,1.0,1.0,1.0
48.87,181.4833,1.0,1.0,1.0
48.88,154.5056,1.0,1.0,1.0
48.89,166.5167,1.0,1.0,1.0
48.9,185.4944,1.0,1.0,1.0
48.91,156.5056,1.0,1.0,1.0
48.92,150.5056,1.0,1.0,1.0
48.93,155.4611,1.0,1.0,1.0
48.94,167.0333,1.0,1.0,1.0
48.95,131.9889,1.0,1.0,1.0
48.96,138.5056,1.0,1.0,1.0
48.97,161.4944,1.0,1.0,1.0
48.98,117.5167,1.0,1.0,1.0
48.99,130.0,1.0,1.0,1.0
49.0,145.9889,1.0,1.0,1.0
49.01,128.5056,1.0,1.0,1.0
49.02,123.4833,1.0,1.0,1.0
49.03,123.0111,1.0,1.0,1.0
49.04,116.0,1.0,1.0,1.0
49.05,137.5056,1.0,1.0,1.0
49.06,119.0,1.0,1.0,1.0
49.07,118.9889,1.0,1.0,1.0
49.08,120.5167,1.0,1.0,1.0
49.09,146.9889,1.0,1.0,1.0
49.1,110.0111,1.0,1.0,1.0
49.11,128.4944,1.0,1.0,1.0
49.12,118.5056,1.0,1.0,1.0
49.13,93.4944,1.0,1.0,1.0
49.14,108.4944,1.0,1.0,1.0
49.15,105.0,1.0,1.0,1.0
49.16,107.4944,1.0,1.0,1.0
49.17,105.0,1.0,1.0,1.0
49.18,84.0111,1.0,1.0,1.0
49.19,111.4833,1.0,1.0,1.0
49.2,80.0111,1.0,1.0,1.0
49.21,91.5056,1.0,1.0,1.0
49.22,90.4944,1.0,1.0,1.0
49.23,95.5056,1.0,1.0,1.0
49.24,78.5056,1.0,1.0,1.0
49.25,91.0,1.0,1.0,1.0
49.26,94.0,1.0,1.0,1.0
49.27,61.0,1.0,1.0,1.0
49.28,93.5056,1.0,1.0,1.0
49.29,92.4944,1.0,1.0,1.0
49.3,102.5056,1.0,1.0,1.0
49.31,82.9889,1.0,1.0,1.0
49.32,79.5056,1.0,1.0,1.0
49.33,78.9889,1.0,1.0,1.0
49.34,80.5056,1.0,1.0,1.0
49.35,91.5056,1.0,1.0,1.0
49.36,97.4944,1.0,1.0,1.0
49.37,82.9889,1.0,1.0,1.0
49.38,95.0222,1.0,1.0,1.0
49.39,76.4833,1.0,1.0,1.0
49.4,68.5056,1.0,1.0,1.0
49.41,62.0111,1.0,1.0,1.0
49.42,72.4944,1.0,1.0,1.0
49.43,79.4833,1.0,1.0,1.0
49.44,76.5056,1.0,1.0,1.0
49.45,97.0,1.0,1.0,1.0
49.46,84.0111,1.0,1.0,1.0
49.47,51.0,1.0,1.0,1.0
49.48,85.5056,1.0,1.0,1.0
49.49,60.4944,1.0,1.0,1.0
49.5,58.0,1.0,1.0,1.0
49.51,89.0,1.0,1.0,1.0
49.52,94.5056,1.0,1.0,1.0
49.53,67.4944,1.0,1.0,1.0
49.54,85.0,1.0,1.0,1.0
49.55,92.4944,1.0,1.0,1.0
49.56,95.0111,1.0,1.0,1.0
49.57,74.0,1.0,1.0,1.0
49.58,77.0,1.0,1.0,1.0
49.59,69.0,1.0,1.0,1.0
49.6,83.4833,1.0,1.0,1.0
49.61,77.0,1.0,1.0,1.0
49.62,67.4944,1.0,1.0,1.0
49.63,74.0222,1.0,1.0,1.0
49.64,78.4944,1.0,1.0,1.0
49.65,88.5056,1.0,1.0,1.0
49.66,75.9889,1.0,1.0,1.0
49.67,58.0111,1.0,1.0,1.0
49.68,60.0,1.0,1.0,1.0
49.69,68.9889,1.0,1.0,1.0
49.7,59.5056,1.0,1.0,1.0
49.71,76.0,1.0,1.0,1.0
49.72,50.5056,1.0,1.0,1.0
49.73,87.4944,1.0,1.0,1.0
49.74,70.0,1.0,1.0,1.0
49.75,75.5056,1.0,1.0,1.0
49.76,64.9889,1.0,1.0,1.0
49.77,83.5056,1.0,1.0,1.0
49.78,41.5056,1.0,1.0,1.0
49.79,71.9889,1.0,1.0,1.0
49.8,70.0111,1.0,1.0,1.0
49.81,48.4944,1.0,1.0,1.0
49.82,69.4944,1.0,1.0,1.0
49.83,57.0,1.0,1.0,1.0
49.84,61.0,1.0,1.0,1.0
49.85,60.0111,1.0,1.0,1.0
49.86,49.0,1.0,1.0,1.0
49.87,44.0,1.0,1.0,1.0
49.88,73.4944,1.0,1.0,1.0
49.89,53.5056,1.0,1.0,1.0
49.9,53.9889,1.0,1.0,1.0
49.91,65.4944,1.0,1.0,1.0
49.92,33.5167,1.0,1.0,1.0
49.93,59.9889,1.0,1.0,1.0
49.94,46.5056,1.0,1.0,1.0
49.95,50.5056,1.0,1.0,1.0
49.96,50.9889,1.0,1.0,1.0
49.97,46.4944,1.0,1.0,1.0
49.98,47.0111,1.0,1.0,1.0
49.99,54.5056,1.0,1.0,1.0
50.0,69.4944,1.0,1.0,1.0