File: XRD:XRR/SCO/22076_SCOT_XRD.csv
#twotheta, yobs, ycal, bkg, diff
42.0,18.5056,1.0,1.0,1.0
42.01,13.0,1.0,1.0,1.0
42.02,22.4944,1.0,1.0,1.0
42.03,32.5056,1.0,1.0,1.0
42.04,30.4944,1.0,1.0,1.0
42.05,23.5056,1.0,1.0,1.0
42.06,13.0,1.0,1.0,1.0
42.07,15.0,1.0,1.0,1.0
42.08,32.0,1.0,1.0,1.0
42.09,23.4944,1.0,1.0,1.0
42.1,19.5056,1.0,1.0,1.0
42.11,30.0,1.0,1.0,1.0
42.12,8.0,1.0,1.0,1.0
42.13,24.0,1.0,1.0,1.0
42.14,23.0,1.0,1.0,1.0
42.15,13.4944,1.0,1.0,1.0
42.16,26.5056,1.0,1.0,1.0
42.17,23.0,1.0,1.0,1.0
42.18,24.0,1.0,1.0,1.0
42.19,27.0,1.0,1.0,1.0
42.2,9.0,1.0,1.0,1.0
42.21,17.0,1.0,1.0,1.0
42.22,28.0,1.0,1.0,1.0
42.23,24.4944,1.0,1.0,1.0
42.24,16.5056,1.0,1.0,1.0
42.25,21.0,1.0,1.0,1.0
42.26,16.4944,1.0,1.0,1.0
42.27,21.0,1.0,1.0,1.0
42.28,21.5056,1.0,1.0,1.0
42.29,17.0,1.0,1.0,1.0
42.3,32.4944,1.0,1.0,1.0
42.31,42.5056,1.0,1.0,1.0
42.32,19.4944,1.0,1.0,1.0
42.33,39.0,1.0,1.0,1.0
42.34,19.5056,1.0,1.0,1.0
42.35,23.4944,1.0,1.0,1.0
42.36,38.4944,1.0,1.0,1.0
42.37,43.0111,1.0,1.0,1.0
42.38,26.4833,1.0,1.0,1.0
42.39,32.5167,1.0,1.0,1.0
42.4,38.0,1.0,1.0,1.0
42.41,21.0,1.0,1.0,1.0
42.42,43.9889,1.0,1.0,1.0
42.43,21.5056,1.0,1.0,1.0
42.44,29.0,1.0,1.0,1.0
42.45,44.5056,1.0,1.0,1.0
42.46,51.0,1.0,1.0,1.0
42.47,27.0,1.0,1.0,1.0
42.48,31.0,1.0,1.0,1.0
42.49,28.4944,1.0,1.0,1.0
42.5,28.4944,1.0,1.0,1.0
42.51,56.5056,1.0,1.0,1.0
42.52,30.5056,1.0,1.0,1.0
42.53,52.4944,1.0,1.0,1.0
42.54,57.0,1.0,1.0,1.0
42.55,53.0,1.0,1.0,1.0
42.56,41.4944,1.0,1.0,1.0
42.57,43.5056,1.0,1.0,1.0
42.58,35.5056,1.0,1.0,1.0
42.59,61.9889,1.0,1.0,1.0
42.6,30.0111,1.0,1.0,1.0
42.61,24.4944,1.0,1.0,1.0
42.62,39.5056,1.0,1.0,1.0
42.63,40.0,1.0,1.0,1.0
42.64,32.0,1.0,1.0,1.0
42.65,26.4944,1.0,1.0,1.0
42.66,26.5056,1.0,1.0,1.0
42.67,37.4944,1.0,1.0,1.0
42.68,35.0,1.0,1.0,1.0
42.69,29.5056,1.0,1.0,1.0
42.7,23.4944,1.0,1.0,1.0
42.71,29.5056,1.0,1.0,1.0
42.72,16.0,1.0,1.0,1.0
42.73,45.0,1.0,1.0,1.0
42.74,16.9889,1.0,1.0,1.0
42.75,33.0111,1.0,1.0,1.0
42.76,24.9889,1.0,1.0,1.0
42.77,23.0111,1.0,1.0,1.0
42.78,27.9889,1.0,1.0,1.0
42.79,39.5056,1.0,1.0,1.0
42.8,19.5056,1.0,1.0,1.0
42.81,33.0,1.0,1.0,1.0
42.82,45.9889,1.0,1.0,1.0
42.83,32.0111,1.0,1.0,1.0
42.84,25.9889,1.0,1.0,1.0
42.85,40.0111,1.0,1.0,1.0
42.86,47.0,1.0,1.0,1.0
42.87,33.0,1.0,1.0,1.0
42.88,70.9889,1.0,1.0,1.0
42.89,36.5056,1.0,1.0,1.0
42.9,52.5056,1.0,1.0,1.0
42.91,48.4833,1.0,1.0,1.0
42.92,60.5167,1.0,1.0,1.0
42.93,48.0,1.0,1.0,1.0
42.94,79.4833,1.0,1.0,1.0
42.95,59.5167,1.0,1.0,1.0
42.96,67.9778,1.0,1.0,1.0
42.97,63.0222,1.0,1.0,1.0
42.98,65.9889,1.0,1.0,1.0
42.99,77.0,1.0,1.0,1.0
43.0,59.0111,1.0,1.0,1.0
43.01,83.4944,1.0,1.0,1.0
43.02,78.9778,1.0,1.0,1.0
43.03,70.5167,1.0,1.0,1.0
43.04,82.5056,1.0,1.0,1.0
43.05,72.4944,1.0,1.0,1.0
43.06,86.5056,1.0,1.0,1.0
43.07,70.5056,1.0,1.0,1.0
43.08,68.9889,1.0,1.0,1.0
43.09,82.0111,1.0,1.0,1.0
43.1,74.9889,1.0,1.0,1.0
43.11,65.5056,1.0,1.0,1.0
43.12,59.0,1.0,1.0,1.0
43.13,43.5056,1.0,1.0,1.0
43.14,71.9889,1.0,1.0,1.0
43.15,43.0111,1.0,1.0,1.0
43.16,54.9889,1.0,1.0,1.0
43.17,59.5056,1.0,1.0,1.0
43.18,68.5056,1.0,1.0,1.0
43.19,46.4944,1.0,1.0,1.0
43.2,38.4944,1.0,1.0,1.0
43.21,55.0111,1.0,1.0,1.0
43.22,35.9889,1.0,1.0,1.0
43.23,45.0111,1.0,1.0,1.0
43.24,30.0,1.0,1.0,1.0
43.25,43.9889,1.0,1.0,1.0
43.26,25.0111,1.0,1.0,1.0
43.27,42.4944,1.0,1.0,1.0
43.28,42.4944,1.0,1.0,1.0
43.29,45.5056,1.0,1.0,1.0
43.3,41.5056,1.0,1.0,1.0
43.31,30.4944,1.0,1.0,1.0
43.32,40.4944,1.0,1.0,1.0
43.33,43.0,1.0,1.0,1.0
43.34,42.5056,1.0,1.0,1.0
43.35,43.5056,1.0,1.0,1.0
43.36,39.4944,1.0,1.0,1.0
43.37,63.4944,1.0,1.0,1.0
43.38,64.0111,1.0,1.0,1.0
43.39,60.9889,1.0,1.0,1.0
43.4,67.0111,1.0,1.0,1.0
43.41,84.9889,1.0,1.0,1.0
43.42,71.4944,1.0,1.0,1.0
43.43,93.0111,1.0,1.0,1.0
43.44,80.0,1.0,1.0,1.0
43.45,102.5056,1.0,1.0,1.0
43.46,100.0,1.0,1.0,1.0
43.47,121.0,1.0,1.0,1.0
43.48,119.4833,1.0,1.0,1.0
43.49,83.0,1.0,1.0,1.0
43.5,108.5167,1.0,1.0,1.0
43.51,102.4944,1.0,1.0,1.0
43.52,127.4944,1.0,1.0,1.0
43.53,134.9778,1.0,1.0,1.0
43.54,143.5278,1.0,1.0,1.0
43.55,126.4833,1.0,1.0,1.0
43.56,119.0111,1.0,1.0,1.0
43.57,97.0111,1.0,1.0,1.0
43.58,134.4944,1.0,1.0,1.0
43.59,104.0,1.0,1.0,1.0
43.6,103.4944,1.0,1.0,1.0
43.61,116.0111,1.0,1.0,1.0
43.62,101.4944,1.0,1.0,1.0
43.63,116.4944,1.0,1.0,1.0
43.64,97.5056,1.0,1.0,1.0
43.65,99.9889,1.0,1.0,1.0
43.66,101.0111,1.0,1.0,1.0
43.67,110.9889,1.0,1.0,1.0
43.68,90.5056,1.0,1.0,1.0
43.69,104.0111,1.0,1.0,1.0
43.7,103.4833,1.0,1.0,1.0
43.71,70.5056,1.0,1.0,1.0
43.72,83.4944,1.0,1.0,1.0
43.73,75.5056,1.0,1.0,1.0
43.74,56.0111,1.0,1.0,1.0
43.75,48.0,1.0,1.0,1.0
43.76,45.4944,1.0,1.0,1.0
43.77,42.9889,1.0,1.0,1.0
43.78,52.0111,1.0,1.0,1.0
43.79,63.5056,1.0,1.0,1.0
43.8,32.9889,1.0,1.0,1.0
43.81,56.0111,1.0,1.0,1.0
43.82,50.4944,1.0,1.0,1.0
43.83,43.0,1.0,1.0,1.0
43.84,48.0,1.0,1.0,1.0
43.85,59.0,1.0,1.0,1.0
43.86,61.9889,1.0,1.0,1.0
43.87,60.5167,1.0,1.0,1.0
43.88,59.0,1.0,1.0,1.0
43.89,79.0,1.0,1.0,1.0
43.9,93.9778,1.0,1.0,1.0
43.91,98.0111,1.0,1.0,1.0
43.92,125.0,1.0,1.0,1.0
43.93,124.5056,1.0,1.0,1.0
43.94,128.4944,1.0,1.0,1.0
43.95,154.9889,1.0,1.0,1.0
43.96,132.0111,1.0,1.0,1.0
43.97,141.0,1.0,1.0,1.0
43.98,177.0,1.0,1.0,1.0
43.99,151.0,1.0,1.0,1.0
44.0,172.9667,1.0,1.0,1.0
44.01,177.0333,1.0,1.0,1.0
44.02,196.0111,1.0,1.0,1.0
44.03,183.9778,1.0,1.0,1.0
44.04,205.9889,1.0,1.0,1.0
44.05,199.5167,1.0,1.0,1.0
44.06,188.4944,1.0,1.0,1.0
44.07,221.5167,1.0,1.0,1.0
44.08,214.4833,1.0,1.0,1.0
44.09,189.5056,1.0,1.0,1.0
44.1,235.4944,1.0,1.0,1.0
44.11,199.4944,1.0,1.0,1.0
44.12,156.5278,1.0,1.0,1.0
44.13,207.4722,1.0,1.0,1.0
44.14,216.0,1.0,1.0,1.0
44.15,157.5056,1.0,1.0,1.0
44.16,151.9778,1.0,1.0,1.0
44.17,178.0222,1.0,1.0,1.0
44.18,152.5167,1.0,1.0,1.0
44.19,141.4944,1.0,1.0,1.0
44.2,166.9889,1.0,1.0,1.0
44.21,146.5167,1.0,1.0,1.0
44.22,128.9778,1.0,1.0,1.0
44.23,135.0222,1.0,1.0,1.0
44.24,126.4944,1.0,1.0,1.0
44.25,117.0,1.0,1.0,1.0
44.26,107.0,1.0,1.0,1.0
44.27,74.0111,1.0,1.0,1.0
44.28,81.4833,1.0,1.0,1.0
44.29,61.4944,1.0,1.0,1.0
44.3,62.5167,1.0,1.0,1.0
44.31,52.5056,1.0,1.0,1.0
44.32,62.4833,1.0,1.0,1.0
44.33,58.5167,1.0,1.0,1.0
44.34,46.9889,1.0,1.0,1.0
44.35,57.5056,1.0,1.0,1.0
44.36,70.4944,1.0,1.0,1.0
44.37,68.5056,1.0,1.0,1.0
44.38,67.5056,1.0,1.0,1.0
44.39,90.4833,1.0,1.0,1.0
44.4,109.0,1.0,1.0,1.0
44.41,118.9889,1.0,1.0,1.0
44.42,140.5278,1.0,1.0,1.0
44.43,142.4722,1.0,1.0,1.0
44.44,180.5056,1.0,1.0,1.0
44.45,182.4944,1.0,1.0,1.0
44.46,190.5278,1.0,1.0,1.0
44.47,200.9778,1.0,1.0,1.0
44.48,237.0111,1.0,1.0,1.0
44.49,275.4833,1.0,1.0,1.0
44.5,290.4944,1.0,1.0,1.0
44.51,292.4833,1.0,1.0,1.0
44.52,279.5389,1.0,1.0,1.0
44.53,318.9778,1.0,1.0,1.0
44.54,301.9889,1.0,1.0,1.0
44.55,304.0222,1.0,1.0,1.0
44.56,380.9889,1.0,1.0,1.0
44.57,330.4944,1.0,1.0,1.0
44.58,350.4722,1.0,1.0,1.0
44.59,401.5167,1.0,1.0,1.0
44.6,347.0222,1.0,1.0,1.0
44.61,355.4944,1.0,1.0,1.0
44.62,350.4944,1.0,1.0,1.0
44.63,370.5167,1.0,1.0,1.0
44.64,335.5056,1.0,1.0,1.0
44.65,331.9778,1.0,1.0,1.0
44.66,365.5056,1.0,1.0,1.0
44.67,281.4833,1.0,1.0,1.0
44.68,289.0222,1.0,1.0,1.0
44.69,298.0,1.0,1.0,1.0
44.7,299.9667,1.0,1.0,1.0
44.71,256.0222,1.0,1.0,1.0
44.72,236.0222,1.0,1.0,1.0
44.73,226.9778,1.0,1.0,1.0
44.74,202.5278,1.0,1.0,1.0
44.75,159.4722,1.0,1.0,1.0
44.76,179.5278,1.0,1.0,1.0
44.77,149.0,1.0,1.0,1.0
44.78,116.4833,1.0,1.0,1.0
44.79,115.0222,1.0,1.0,1.0
44.8,101.0,1.0,1.0,1.0
44.81,90.4944,1.0,1.0,1.0
44.82,68.5056,1.0,1.0,1.0
44.83,87.4944,1.0,1.0,1.0
44.84,52.0,1.0,1.0,1.0
44.85,76.4944,1.0,1.0,1.0
44.86,76.0111,1.0,1.0,1.0
44.87,59.4944,1.0,1.0,1.0
44.88,92.9778,1.0,1.0,1.0
44.89,115.5167,1.0,1.0,1.0
44.9,129.4944,1.0,1.0,1.0
44.91,125.4833,1.0,1.0,1.0
44.92,166.5278,1.0,1.0,1.0
44.93,172.4944,1.0,1.0,1.0
44.94,185.4944,1.0,1.0,1.0
44.95,230.4722,1.0,1.0,1.0
44.96,276.0,1.0,1.0,1.0
44.97,320.0111,1.0,1.0,1.0
44.98,331.5056,1.0,1.0,1.0
44.99,341.5056,1.0,1.0,1.0
45.0,383.45,1.0,1.0,1.0
45.01,411.5389,1.0,1.0,1.0
45.02,422.5056,1.0,1.0,1.0
45.03,462.9889,1.0,1.0,1.0
45.04,516.4722,1.0,1.0,1.0
45.05,581.0222,1.0,1.0,1.0
45.06,565.9889,1.0,1.0,1.0
45.07,579.4944,1.0,1.0,1.0
45.08,551.5389,1.0,1.0,1.0
45.09,582.4389,1.0,1.0,1.0
45.1,505.5278,1.0,1.0,1.0
45.11,627.5167,1.0,1.0,1.0
45.12,624.9667,1.0,1.0,1.0
45.13,633.0,1.0,1.0,1.0
45.14,620.0,1.0,1.0,1.0
45.15,607.0,1.0,1.0,1.0
45.16,594.9778,1.0,1.0,1.0
45.17,568.0444,1.0,1.0,1.0
45.18,557.4833,1.0,1.0,1.0
45.19,502.5278,1.0,1.0,1.0
45.2,498.9889,1.0,1.0,1.0
45.21,451.0,1.0,1.0,1.0
45.22,393.0111,1.0,1.0,1.0
45.23,381.9889,1.0,1.0,1.0
45.24,440.0333,1.0,1.0,1.0
45.25,319.9889,1.0,1.0,1.0
45.26,365.0111,1.0,1.0,1.0
45.27,310.0111,1.0,1.0,1.0
45.28,271.0,1.0,1.0,1.0
45.29,240.5056,1.0,1.0,1.0
45.3,213.4833,1.0,1.0,1.0
45.31,193.5056,1.0,1.0,1.0
45.32,178.4944,1.0,1.0,1.0
45.33,178.0,1.0,1.0,1.0
45.34,173.4833,1.0,1.0,1.0
45.35,152.0111,1.0,1.0,1.0
45.36,176.5167,1.0,1.0,1.0
45.37,195.9778,1.0,1.0,1.0
45.38,223.0222,1.0,1.0,1.0
45.39,195.0,1.0,1.0,1.0
45.4,256.9889,1.0,1.0,1.0
45.41,255.4944,1.0,1.0,1.0
45.42,299.4944,1.0,1.0,1.0
45.43,326.5056,1.0,1.0,1.0
45.44,380.4833,1.0,1.0,1.0
45.45,369.0,1.0,1.0,1.0
45.46,429.9778,1.0,1.0,1.0
45.47,571.4611,1.0,1.0,1.0
45.48,545.0333,1.0,1.0,1.0
45.49,640.9889,1.0,1.0,1.0
45.5,609.5389,1.0,1.0,1.0
45.51,773.9556,1.0,1.0,1.0
45.52,775.4833,1.0,1.0,1.0
45.53,779.4833,1.0,1.0,1.0
45.54,835.55,1.0,1.0,1.0
45.55,777.9556,1.0,1.0,1.0
45.56,907.5278,1.0,1.0,1.0
45.57,894.0222,1.0,1.0,1.0
45.58,888.0,1.0,1.0,1.0
45.59,897.4722,1.0,1.0,1.0
45.6,947.5056,1.0,1.0,1.0
45.61,948.5167,1.0,1.0,1.0
45.62,890.9333,1.0,1.0,1.0
45.63,915.0333,1.0,1.0,1.0
45.64,892.9778,1.0,1.0,1.0
45.65,847.45,1.0,1.0,1.0
45.66,844.5944,1.0,1.0,1.0
45.67,853.9889,1.0,1.0,1.0
45.68,806.4833,1.0,1.0,1.0
45.69,763.5167,1.0,1.0,1.0
45.7,731.5167,1.0,1.0,1.0
45.71,688.9889,1.0,1.0,1.0
45.72,740.9778,1.0,1.0,1.0
45.73,698.5389,1.0,1.0,1.0
45.74,720.9889,1.0,1.0,1.0
45.75,808.0222,1.0,1.0,1.0
45.76,899.45,1.0,1.0,1.0
45.77,1018.44,1.0,1.0,1.0
45.78,1091.01,1.0,1.0,1.0
45.79,1302.99,1.0,1.0,1.0
45.8,1530.0,1.0,1.0,1.0
45.81,1763.91,1.0,1.0,1.0
45.82,2103.48,1.0,1.0,1.0
45.83,2503.93,1.0,1.0,1.0
45.84,2894.98,1.0,1.0,1.0
45.85,3380.51,1.0,1.0,1.0
45.86,3924.91,1.0,1.0,1.0
45.87,4572.91,1.0,1.0,1.0
45.88,5368.39,1.0,1.0,1.0
45.89,6352.35,1.0,1.0,1.0
45.9,7064.96,1.0,1.0,1.0
45.91,8040.97,1.0,1.0,1.0
45.92,9093.29,1.0,1.0,1.0
45.93,10316.4,1.0,1.0,1.0
45.94,11323.5,1.0,1.0,1.0
45.95,12834.7,1.0,1.0,1.0
45.96,14229.8,1.0,1.0,1.0
45.97,16093,1.0,1.0,1.0
45.98,17713.7,1.0,1.0,1.0
45.99,19447.3,1.0,1.0,1.0
46.0,21113.3,1.0,1.0,1.0
46.01,22843.8,1.0,1.0,1.0
46.02,25146,1.0,1.0,1.0
46.03,27277.8,1.0,1.0,1.0
46.04,29458.2,1.0,1.0,1.0
46.05,31985.1,1.0,1.0,1.0
46.06,34117.4,1.0,1.0,1.0
46.07,36221.9,1.0,1.0,1.0
46.08,39463.2,1.0,1.0,1.0
46.09,41624.9,1.0,1.0,1.0
46.1,44450.4,1.0,1.0,1.0
46.11,47476,1.0,1.0,1.0
46.12,49952.9,1.0,1.0,1.0
46.13,52856.8,1.0,1.0,1.0
46.14,55961,1.0,1.0,1.0
46.15,58151,1.0,1.0,1.0
46.16,61701.9,1.0,1.0,1.0
46.17,64329.2,1.0,1.0,1.0
46.18,67479.4,1.0,1.0,1.0
46.19,70823.5,1.0,1.0,1.0
46.2,73519.7,1.0,1.0,1.0
46.21,76771.1,1.0,1.0,1.0
46.22,79810.5,1.0,1.0,1.0
46.23,83089.9,1.0,1.0,1.0
46.24,86451.2,1.0,1.0,1.0
46.25,89740.3,1.0,1.0,1.0
46.26,93228.75,1.0,1.0,1.0
46.27,96902.8,1.0,1.0,1.0
46.28,100734,1.0,1.0,1.0
46.29,105458,1.0,1.0,1.0
46.3,110217,1.0,1.0,1.0
46.31,115105,1.0,1.0,1.0
46.32,120784,1.0,1.0,1.0
46.33,128281,1.0,1.0,1.0
46.34,136759,1.0,1.0,1.0
46.35,146668,1.0,1.0,1.0
46.36,161037,1.0,1.0,1.0
46.37,178570,1.0,1.0,1.0
46.38,201876,1.0,1.0,1.0
46.39,231455,1.0,1.0,1.0
46.4,275149.75,1.0,1.0,1.0
46.41,335288,1.0,1.0,1.0
46.42,431900,1.0,1.0,1.0
46.43,594827,1.0,1.0,1.0
46.44,897201,1.0,1.0,1.0
46.45,1764219.0,1.0,1.0,1.0
46.46,5728266.5,1.0,1.0,1.0
46.47,28710954.0,1.0,1.0,1.0
46.48,127778608.0,1.0,1.0,1.0
46.49,106498680.0,1.0,1.0,1.0
46.5,11801551.0,1.0,1.0,1.0
46.51,1748177.625,1.0,1.0,1.0
46.52,812225.125,1.0,1.0,1.0
46.53,511452,1.0,1.0,1.0
46.54,351348,1.0,1.0,1.0
46.55,239396,1.0,1.0,1.0
46.56,164425,1.0,1.0,1.0
46.57,121938,1.0,1.0,1.0
46.58,98020.7,1.0,1.0,1.0
46.59,80486.3,1.0,1.0,1.0
46.6,66791.5,1.0,1.0,1.0
46.61,55061.6,1.0,1.0,1.0
46.62,45964.4,1.0,1.0,1.0
46.63,39908.9,1.0,1.0,1.0
46.64,34569.2,1.0,1.0,1.0
46.65,30874.9,1.0,1.0,1.0
46.66,27071.2,1.0,1.0,1.0
46.67,23822.5,1.0,1.0,1.0
46.68,21260.5,1.0,1.0,1.0
46.69,18646.6,1.0,1.0,1.0
46.7,16661.1,1.0,1.0,1.0
46.71,14593.3,1.0,1.0,1.0
46.72,12689.3,1.0,1.0,1.0
46.73,11334.5,1.0,1.0,1.0
46.74,9744.79,1.0,1.0,1.0
46.75,8516.24,1.0,1.0,1.0
46.76,7452.96,1.0,1.0,1.0
46.77,6205.311,1.0,1.0,1.0
46.78,5418.36,1.0,1.0,1.0
46.79,4665.21,1.0,1.0,1.0
46.8,4020.54,1.0,1.0,1.0
46.81,3322.08,1.0,1.0,1.0
46.82,2680.53,1.0,1.0,1.0
46.83,2299.12,1.0,1.0,1.0
46.84,1820.57,1.0,1.0,1.0
46.85,1611.92,1.0,1.0,1.0
46.86,1322.58,1.0,1.0,1.0
46.87,1109.52,1.0,1.0,1.0
46.88,905.9889,1.0,1.0,1.0
46.89,853.5389,1.0,1.0,1.0
46.9,770.4944,1.0,1.0,1.0
46.91,708.4944,1.0,1.0,1.0
46.92,716.9889,1.0,1.0,1.0
46.93,729.5278,1.0,1.0,1.0
46.94,762.4722,1.0,1.0,1.0
46.95,861.4611,1.0,1.0,1.0
46.96,896.4944,1.0,1.0,1.0
46.97,922.5167,1.0,1.0,1.0
46.98,985.9889,1.0,1.0,1.0
46.99,1150.53,1.0,1.0,1.0
47.0,1154.96,1.0,1.0,1.0
47.01,1348.02,1.0,1.0,1.0
47.02,1350.92,1.0,1.0,1.0
47.03,1415.04,1.0,1.0,1.0
47.04,1542.53,1.0,1.0,1.0
47.05,1629.91,1.0,1.0,1.0
47.06,1644.06,1.0,1.0,1.0
47.07,1672.97,1.0,1.0,1.0
47.08,1706.01,1.0,1.0,1.0
47.09,1662.0,1.0,1.0,1.0
47.1,1667.52,1.0,1.0,1.0
47.11,1728.44,1.0,1.0,1.0
47.12,1646.06,1.0,1.0,1.0
47.13,1717.42,1.0,1.0,1.0
47.14,1585.55,1.0,1.0,1.0
47.15,1537.52,1.0,1.0,1.0
47.16,1571.07,1.0,1.0,1.0
47.17,1506.98,1.0,1.0,1.0
47.18,1307.99,1.0,1.0,1.0
47.19,1221.09,1.0,1.0,1.0
47.2,1163.97,1.0,1.0,1.0
47.21,1131.99,1.0,1.0,1.0
47.22,1030.0,1.0,1.0,1.0
47.23,973.0,1.0,1.0,1.0
47.24,865.55,1.0,1.0,1.0
47.25,782.5056,1.0,1.0,1.0
47.26,681.0111,1.0,1.0,1.0
47.27,692.0,1.0,1.0,1.0
47.28,601.4944,1.0,1.0,1.0
47.29,515.5167,1.0,1.0,1.0
47.3,463.9778,1.0,1.0,1.0
47.31,350.5056,1.0,1.0,1.0
47.32,328.0,1.0,1.0,1.0
47.33,286.0333,1.0,1.0,1.0
47.34,221.5056,1.0,1.0,1.0
47.35,214.0,1.0,1.0,1.0
47.36,165.5056,1.0,1.0,1.0
47.37,147.0,1.0,1.0,1.0
47.38,146.0,1.0,1.0,1.0
47.39,150.5056,1.0,1.0,1.0
47.4,114.9889,1.0,1.0,1.0
47.41,142.5056,1.0,1.0,1.0
47.42,149.4944,1.0,1.0,1.0
47.43,153.4833,1.0,1.0,1.0
47.44,135.0333,1.0,1.0,1.0
47.45,159.9778,1.0,1.0,1.0
47.46,181.0111,1.0,1.0,1.0
47.47,204.0,1.0,1.0,1.0
47.48,200.0,1.0,1.0,1.0
47.49,248.5056,1.0,1.0,1.0
47.5,263.4611,1.0,1.0,1.0
47.51,291.5167,1.0,1.0,1.0
47.52,305.4611,1.0,1.0,1.0
47.53,320.0222,1.0,1.0,1.0
47.54,346.0111,1.0,1.0,1.0
47.55,368.4722,1.0,1.0,1.0
47.56,356.0222,1.0,1.0,1.0
47.57,425.9889,1.0,1.0,1.0
47.58,426.0111,1.0,1.0,1.0
47.59,405.0,1.0,1.0,1.0
47.6,420.9889,1.0,1.0,1.0
47.61,431.5167,1.0,1.0,1.0
47.62,406.5056,1.0,1.0,1.0
47.63,428.0,1.0,1.0,1.0
47.64,419.4611,1.0,1.0,1.0
47.65,374.0333,1.0,1.0,1.0
47.66,412.9667,1.0,1.0,1.0
47.67,400.4944,1.0,1.0,1.0
47.68,391.0,1.0,1.0,1.0
47.69,410.0222,1.0,1.0,1.0
47.7,353.5167,1.0,1.0,1.0
47.71,322.9889,1.0,1.0,1.0
47.72,315.4944,1.0,1.0,1.0
47.73,304.0333,1.0,1.0,1.0
47.74,266.9889,1.0,1.0,1.0
47.75,226.5056,1.0,1.0,1.0
47.76,270.5167,1.0,1.0,1.0
47.77,209.4944,1.0,1.0,1.0
47.78,214.4944,1.0,1.0,1.0
47.79,204.9889,1.0,1.0,1.0
47.8,193.5056,1.0,1.0,1.0
47.81,132.0111,1.0,1.0,1.0
47.82,136.4944,1.0,1.0,1.0
47.83,135.0111,1.0,1.0,1.0
47.84,109.5056,1.0,1.0,1.0
47.85,90.4944,1.0,1.0,1.0
47.86,90.9889,1.0,1.0,1.0
47.87,82.0111,1.0,1.0,1.0
47.88,34.9889,1.0,1.0,1.0
47.89,54.5167,1.0,1.0,1.0
47.9,74.4944,1.0,1.0,1.0
47.91,60.4944,1.0,1.0,1.0
47.92,47.5056,1.0,1.0,1.0
47.93,65.5056,1.0,1.0,1.0
47.94,65.4833,1.0,1.0,1.0
47.95,81.4944,1.0,1.0,1.0
47.96,76.5167,1.0,1.0,1.0
47.97,81.4944,1.0,1.0,1.0
47.98,83.5056,1.0,1.0,1.0
47.99,91.4944,1.0,1.0,1.0
48.0,134.0111,1.0,1.0,1.0
48.01,105.9778,1.0,1.0,1.0
48.02,125.4944,1.0,1.0,1.0
48.03,146.0222,1.0,1.0,1.0
48.04,127.9889,1.0,1.0,1.0
48.05,124.4944,1.0,1.0,1.0
48.06,165.0,1.0,1.0,1.0
48.07,145.0222,1.0,1.0,1.0
48.08,136.9556,1.0,1.0,1.0
48.09,180.0333,1.0,1.0,1.0
48.1,158.4944,1.0,1.0,1.0
48.11,183.4944,1.0,1.0,1.0
48.12,170.0111,1.0,1.0,1.0
48.13,185.9778,1.0,1.0,1.0
48.14,191.0222,1.0,1.0,1.0
48.15,145.4944,1.0,1.0,1.0
48.16,151.4944,1.0,1.0,1.0
48.17,165.9889,1.0,1.0,1.0
48.18,164.5167,1.0,1.0,1.0
48.19,174.0,1.0,1.0,1.0
48.2,139.5056,1.0,1.0,1.0
48.21,157.0,1.0,1.0,1.0
48.22,150.0,1.0,1.0,1.0
48.23,138.0,1.0,1.0,1.0
48.24,120.4944,1.0,1.0,1.0
48.25,128.5167,1.0,1.0,1.0
48.26,111.9778,1.0,1.0,1.0
48.27,118.5056,1.0,1.0,1.0
48.28,107.5056,1.0,1.0,1.0
48.29,89.5056,1.0,1.0,1.0
48.3,97.0,1.0,1.0,1.0
48.31,78.4944,1.0,1.0,1.0
48.32,88.0,1.0,1.0,1.0
48.33,65.5056,1.0,1.0,1.0
48.34,74.5056,1.0,1.0,1.0
48.35,62.4944,1.0,1.0,1.0
48.36,54.5056,1.0,1.0,1.0
48.37,37.4944,1.0,1.0,1.0
48.38,46.5056,1.0,1.0,1.0
48.39,41.0,1.0,1.0,1.0
48.4,39.4944,1.0,1.0,1.0
48.41,30.5056,1.0,1.0,1.0
48.42,37.4944,1.0,1.0,1.0
48.43,39.5056,1.0,1.0,1.0
48.44,41.4944,1.0,1.0,1.0
48.45,44.5056,1.0,1.0,1.0
48.46,45.4833,1.0,1.0,1.0
48.47,33.5056,1.0,1.0,1.0
48.48,45.0,1.0,1.0,1.0
48.49,52.0111,1.0,1.0,1.0
48.5,49.9889,1.0,1.0,1.0
48.51,67.5056,1.0,1.0,1.0
48.52,48.5056,1.0,1.0,1.0
48.53,65.4833,1.0,1.0,1.0
48.54,57.5167,1.0,1.0,1.0
48.55,43.0,1.0,1.0,1.0
48.56,62.9889,1.0,1.0,1.0
48.57,52.5056,1.0,1.0,1.0
48.58,38.4944,1.0,1.0,1.0
48.59,79.5056,1.0,1.0,1.0
48.6,76.4833,1.0,1.0,1.0
48.61,75.5167,1.0,1.0,1.0
48.62,65.5056,1.0,1.0,1.0
48.63,78.0,1.0,1.0,1.0
48.64,80.0,1.0,1.0,1.0
48.65,88.4944,1.0,1.0,1.0
48.66,81.0,1.0,1.0,1.0
48.67,72.0,1.0,1.0,1.0
48.68,74.4833,1.0,1.0,1.0
48.69,80.0111,1.0,1.0,1.0
48.7,68.5056,1.0,1.0,1.0
48.71,69.0,1.0,1.0,1.0
48.72,61.4944,1.0,1.0,1.0
48.73,62.4944,1.0,1.0,1.0
48.74,77.0111,1.0,1.0,1.0
48.75,67.4944,1.0,1.0,1.0
48.76,68.0,1.0,1.0,1.0
48.77,62.5056,1.0,1.0,1.0
48.78,69.4944,1.0,1.0,1.0
48.79,60.5056,1.0,1.0,1.0
48.8,54.9889,1.0,1.0,1.0
48.81,69.0111,1.0,1.0,1.0
48.82,54.5056,1.0,1.0,1.0
48.83,35.0,1.0,1.0,1.0
48.84,50.0,1.0,1.0,1.0
48.85,26.0,1.0,1.0,1.0
48.86,37.0,1.0,1.0,1.0
48.87,59.0,1.0,1.0,1.0
48.88,17.0,1.0,1.0,1.0
48.89,28.0,1.0,1.0,1.0
48.9,21.0,1.0,1.0,1.0
48.91,25.0,1.0,1.0,1.0
48.92,26.0,1.0,1.0,1.0
48.93,17.0,1.0,1.0,1.0
48.94,21.4944,1.0,1.0,1.0
48.95,28.5056,1.0,1.0,1.0
48.96,42.9889,1.0,1.0,1.0
48.97,28.0111,1.0,1.0,1.0
48.98,70.4944,1.0,1.0,1.0
48.99,36.5056,1.0,1.0,1.0
49.0,37.0,1.0,1.0,1.0
49.01,38.0,1.0,1.0,1.0
49.02,29.0,1.0,1.0,1.0
49.03,28.0,1.0,1.0,1.0
49.04,69.0,1.0,1.0,1.0
49.05,31.0,1.0,1.0,1.0
49.06,32.0,1.0,1.0,1.0
49.07,45.9889,1.0,1.0,1.0
49.08,21.0,1.0,1.0,1.0
49.09,40.0,1.0,1.0,1.0
49.1,37.0111,1.0,1.0,1.0
49.11,38.9889,1.0,1.0,1.0
49.12,52.0111,1.0,1.0,1.0
49.13,43.4833,1.0,1.0,1.0
49.14,20.5056,1.0,1.0,1.0
49.15,45.0,1.0,1.0,1.0
49.16,51.5056,1.0,1.0,1.0
49.17,57.0,1.0,1.0,1.0
49.18,34.5056,1.0,1.0,1.0
49.19,49.9889,1.0,1.0,1.0
49.2,32.0111,1.0,1.0,1.0
49.21,45.4944,1.0,1.0,1.0
49.22,59.0,1.0,1.0,1.0
49.23,38.5056,1.0,1.0,1.0
49.24,30.4944,1.0,1.0,1.0
49.25,28.5056,1.0,1.0,1.0
49.26,60.4944,1.0,1.0,1.0
49.27,30.0,1.0,1.0,1.0
49.28,29.0,1.0,1.0,1.0
49.29,37.5056,1.0,1.0,1.0
49.3,18.0,1.0,1.0,1.0
49.31,39.9889,1.0,1.0,1.0
49.32,25.5056,1.0,1.0,1.0
49.33,27.5056,1.0,1.0,1.0
49.34,45.0,1.0,1.0,1.0
49.35,35.0,1.0,1.0,1.0
49.36,12.4944,1.0,1.0,1.0
49.37,23.5056,1.0,1.0,1.0
49.38,19.0,1.0,1.0,1.0
49.39,36.0,1.0,1.0,1.0
49.4,30.4944,1.0,1.0,1.0
49.41,22.0,1.0,1.0,1.0
49.42,19.5056,1.0,1.0,1.0
49.43,14.4944,1.0,1.0,1.0
49.44,19.0,1.0,1.0,1.0
49.45,16.5056,1.0,1.0,1.0
49.46,20.0,1.0,1.0,1.0
49.47,20.0,1.0,1.0,1.0
49.48,19.4944,1.0,1.0,1.0
49.49,30.0,1.0,1.0,1.0
49.5,18.0,1.0,1.0,1.0
49.51,22.5056,1.0,1.0,1.0
49.52,19.0,1.0,1.0,1.0
49.53,23.0,1.0,1.0,1.0
49.54,18.0,1.0,1.0,1.0
49.55,26.4944,1.0,1.0,1.0
49.56,34.5056,1.0,1.0,1.0
49.57,4.0,1.0,1.0,1.0
49.58,13.0,1.0,1.0,1.0
49.59,43.4944,1.0,1.0,1.0
49.6,18.0,1.0,1.0,1.0
49.61,25.5056,1.0,1.0,1.0
49.62,23.0,1.0,1.0,1.0
49.63,19.4944,1.0,1.0,1.0
49.64,26.0,1.0,1.0,1.0
49.65,5.5056,1.0,1.0,1.0
49.66,33.0,1.0,1.0,1.0
49.67,23.0,1.0,1.0,1.0
49.68,21.0,1.0,1.0,1.0
49.69,18.0,1.0,1.0,1.0
49.7,26.0,1.0,1.0,1.0
49.71,16.0,1.0,1.0,1.0
49.72,37.0,1.0,1.0,1.0
49.73,27.0,1.0,1.0,1.0
49.74,35.0,1.0,1.0,1.0
49.75,21.0,1.0,1.0,1.0
49.76,34.9889,1.0,1.0,1.0
49.77,21.0111,1.0,1.0,1.0
49.78,11.4944,1.0,1.0,1.0
49.79,20.5056,1.0,1.0,1.0
49.8,18.9889,1.0,1.0,1.0
49.81,30.0111,1.0,1.0,1.0
49.82,14.0,1.0,1.0,1.0
49.83,30.4944,1.0,1.0,1.0
49.84,27.0,1.0,1.0,1.0
49.85,15.5056,1.0,1.0,1.0
49.86,24.0,1.0,1.0,1.0
49.87,20.0,1.0,1.0,1.0
49.88,18.0,1.0,1.0,1.0
49.89,7.0,1.0,1.0,1.0
49.9,21.4944,1.0,1.0,1.0
49.91,24.0,1.0,1.0,1.0
49.92,13.5056,1.0,1.0,1.0
49.93,8.0,1.0,1.0,1.0
49.94,18.0,1.0,1.0,1.0
49.95,19.4944,1.0,1.0,1.0
49.96,11.5056,1.0,1.0,1.0
49.97,21.0,1.0,1.0,1.0
49.98,10.0,1.0,1.0,1.0
49.99,13.0,1.0,1.0,1.0
50.0,20.0,1.0,1.0,1.0
50.01,5.0,1.0,1.0,1.0
50.02,13.0,1.0,1.0,1.0
50.03,15.4944,1.0,1.0,1.0
50.04,20.0,1.0,1.0,1.0
50.05,8.5056,1.0,1.0,1.0
50.06,22.0,1.0,1.0,1.0
50.07,12.0,1.0,1.0,1.0
50.08,15.0,1.0,1.0,1.0
50.09,26.0,1.0,1.0,1.0
50.1,4.9889,1.0,1.0,1.0
50.11,25.0111,1.0,1.0,1.0
50.12,13.0,1.0,1.0,1.0
50.13,22.0,1.0,1.0,1.0
50.14,10.0,1.0,1.0,1.0
50.15,13.0,1.0,1.0,1.0
50.16,7.4944,1.0,1.0,1.0
50.17,18.5056,1.0,1.0,1.0
50.18,21.0,1.0,1.0,1.0
50.19,19.0,1.0,1.0,1.0
50.2,15.0,1.0,1.0,1.0
50.21,11.0,1.0,1.0,1.0
50.22,21.4944,1.0,1.0,1.0
50.23,9.5056,1.0,1.0,1.0
50.24,7.0,1.0,1.0,1.0
50.25,7.0,1.0,1.0,1.0
50.26,9.4944,1.0,1.0,1.0
50.27,12.5056,1.0,1.0,1.0
50.28,16.0,1.0,1.0,1.0
50.29,15.0,1.0,1.0,1.0
50.3,16.0,1.0,1.0,1.0
50.31,17.0,1.0,1.0,1.0
50.32,11.0,1.0,1.0,1.0
50.33,8.0,1.0,1.0,1.0
50.34,17.0,1.0,1.0,1.0
50.35,28.0,1.0,1.0,1.0
50.36,13.0,1.0,1.0,1.0
50.37,22.4944,1.0,1.0,1.0
50.38,18.5056,1.0,1.0,1.0
50.39,12.0,1.0,1.0,1.0
50.4,14.9889,1.0,1.0,1.0
50.41,14.0111,1.0,1.0,1.0
50.42,6.0,1.0,1.0,1.0
50.43,13.0,1.0,1.0,1.0
50.44,12.4944,1.0,1.0,1.0
50.45,9.4944,1.0,1.0,1.0
50.46,9.0111,1.0,1.0,1.0
50.47,19.0,1.0,1.0,1.0
50.48,13.4944,1.0,1.0,1.0
50.49,17.5056,1.0,1.0,1.0
50.5,13.0,1.0,1.0,1.0
50.51,11.0,1.0,1.0,1.0
50.52,14.0,1.0,1.0,1.0
50.53,12.0,1.0,1.0,1.0
50.54,11.4944,1.0,1.0,1.0
50.55,9.5056,1.0,1.0,1.0
50.56,4.0,1.0,1.0,1.0
50.57,4.0,1.0,1.0,1.0
50.58,8.0,1.0,1.0,1.0
50.59,4.0,1.0,1.0,1.0
50.6,20.4944,1.0,1.0,1.0
50.61,17.5056,1.0,1.0,1.0
50.62,3.0,1.0,1.0,1.0
50.63,17.0,1.0,1.0,1.0
50.64,21.0,1.0,1.0,1.0
50.65,18.4944,1.0,1.0,1.0
50.66,18.5056,1.0,1.0,1.0
50.67,15.0,1.0,1.0,1.0
50.68,10.0,1.0,1.0,1.0
50.69,5.0,1.0,1.0,1.0
50.7,8.0,1.0,1.0,1.0
50.71,11.4944,1.0,1.0,1.0
50.72,17.4944,1.0,1.0,1.0
50.73,17.0111,1.0,1.0,1.0
50.74,16.0,1.0,1.0,1.0
50.75,7.0,1.0,1.0,1.0
50.76,16.0,1.0,1.0,1.0
50.77,14.4944,1.0,1.0,1.0
50.78,18.5056,1.0,1.0,1.0
50.79,4.0,1.0,1.0,1.0
50.8,6.0,1.0,1.0,1.0
50.81,11.4944,1.0,1.0,1.0
50.82,7.5056,1.0,1.0,1.0
50.83,7.0,1.0,1.0,1.0
50.84,8.0,1.0,1.0,1.0
50.85,9.0,1.0,1.0,1.0
50.86,13.0,1.0,1.0,1.0
50.87,11.0,1.0,1.0,1.0
50.88,4.0,1.0,1.0,1.0
50.89,16.4944,1.0,1.0,1.0
50.9,10.0,1.0,1.0,1.0
50.91,17.0,1.0,1.0,1.0
50.92,15.5056,1.0,1.0,1.0
50.93,4.0,1.0,1.0,1.0
50.94,10.0,1.0,1.0,1.0
50.95,11.0,1.0,1.0,1.0
50.96,9.0,1.0,1.0,1.0
50.97,14.0,1.0,1.0,1.0
50.98,7.0,1.0,1.0,1.0
50.99,2.0,1.0,1.0,1.0
51.0,9.0,1.0,1.0,1.0
51.01,2.0,1.0,1.0,1.0
51.02,18.0,1.0,1.0,1.0
51.03,7.4944,1.0,1.0,1.0
51.04,16.0,1.0,1.0,1.0
51.05,12.5056,1.0,1.0,1.0
51.06,10.0,1.0,1.0,1.0
51.07,5.4944,1.0,1.0,1.0
51.08,11.5056,1.0,1.0,1.0
51.09,8.0,1.0,1.0,1.0
51.1,10.0,1.0,1.0,1.0
51.11,11.0,1.0,1.0,1.0
51.12,11.0,1.0,1.0,1.0
51.13,16.0,1.0,1.0,1.0
51.14,2.0,1.0,1.0,1.0
51.15,14.0,1.0,1.0,1.0
51.16,5.0,1.0,1.0,1.0
51.17,5.0,1.0,1.0,1.0
51.18,5.0,1.0,1.0,1.0
51.19,13.0,1.0,1.0,1.0
51.2,12.0,1.0,1.0,1.0
51.21,6.4944,1.0,1.0,1.0
51.22,16.5056,1.0,1.0,1.0
51.23,11.0,1.0,1.0,1.0
51.24,9.4944,1.0,1.0,1.0
51.25,21.0,1.0,1.0,1.0
51.26,5.5056,1.0,1.0,1.0
51.27,13.0,1.0,1.0,1.0
51.28,6.0,1.0,1.0,1.0
51.29,6.0,1.0,1.0,1.0
51.3,13.0,1.0,1.0,1.0
51.31,3.4944,1.0,1.0,1.0
51.32,7.5056,1.0,1.0,1.0
51.33,16.0,1.0,1.0,1.0
51.34,7.0,1.0,1.0,1.0
51.35,11.0,1.0,1.0,1.0
51.36,10.0,1.0,1.0,1.0
51.37,10.0,1.0,1.0,1.0
51.38,5.0,1.0,1.0,1.0
51.39,8.0,1.0,1.0,1.0
51.4,7.4944,1.0,1.0,1.0
51.41,8.0,1.0,1.0,1.0
51.42,13.5056,1.0,1.0,1.0
51.43,5.0,1.0,1.0,1.0
51.44,11.0,1.0,1.0,1.0
51.45,15.0,1.0,1.0,1.0
51.46,15.0,1.0,1.0,1.0
51.47,14.0,1.0,1.0,1.0
51.48,12.4944,1.0,1.0,1.0
51.49,9.5056,1.0,1.0,1.0
51.5,18.0,1.0,1.0,1.0
51.51,12.0,1.0,1.0,1.0
51.52,6.4944,1.0,1.0,1.0
51.53,5.5056,1.0,1.0,1.0
51.54,9.0,1.0,1.0,1.0
51.55,11.0,1.0,1.0,1.0
51.56,15.9889,1.0,1.0,1.0
51.57,7.0111,1.0,1.0,1.0
51.58,10.0,1.0,1.0,1.0
51.59,15.0,1.0,1.0,1.0
51.6,5.0,1.0,1.0,1.0
51.61,5.0,1.0,1.0,1.0
51.62,13.0,1.0,1.0,1.0
51.63,11.9889,1.0,1.0,1.0
51.64,20.0111,1.0,1.0,1.0
51.65,6.0,1.0,1.0,1.0
51.66,6.0,1.0,1.0,1.0
51.67,8.0,1.0,1.0,1.0
51.68,7.0,1.0,1.0,1.0
51.69,9.0,1.0,1.0,1.0
51.7,3.4944,1.0,1.0,1.0
51.71,12.5056,1.0,1.0,1.0
51.72,8.0,1.0,1.0,1.0
51.73,7.4944,1.0,1.0,1.0
51.74,16.5056,1.0,1.0,1.0
51.75,4.0,1.0,1.0,1.0
51.76,10.0,1.0,1.0,1.0
51.77,18.0,1.0,1.0,1.0
51.78,25.0,1.0,1.0,1.0
51.79,14.0,1.0,1.0,1.0
51.8,7.0,1.0,1.0,1.0
51.81,16.0,1.0,1.0,1.0
51.82,10.0,1.0,1.0,1.0
51.83,7.4944,1.0,1.0,1.0
51.84,5.5056,1.0,1.0,1.0
51.85,12.0,1.0,1.0,1.0
51.86,4.0,1.0,1.0,1.0
51.87,6.4944,1.0,1.0,1.0
51.88,4.5056,1.0,1.0,1.0
51.89,5.0,1.0,1.0,1.0
51.9,21.0,1.0,1.0,1.0
51.91,3.4944,1.0,1.0,1.0
51.92,15.5056,1.0,1.0,1.0
51.93,5.0,1.0,1.0,1.0
51.94,3.0,1.0,1.0,1.0
51.95,5.9889,1.0,1.0,1.0
51.96,13.0111,1.0,1.0,1.0
51.97,10.0,1.0,1.0,1.0
51.98,6.0,1.0,1.0,1.0
51.99,10.0,1.0,1.0,1.0
52.0,13.0,1.0,1.0,1.0