File: XRD:XRR/SCO/22077_SCOT_XRD.csv
#twotheta, yobs, ycal, bkg, diff
42.0,40.5056,1.0,1.0,1.0
42.01,30.5056,1.0,1.0,1.0
42.02,19.0,1.0,1.0,1.0
42.03,33.4944,1.0,1.0,1.0
42.04,20.0,1.0,1.0,1.0
42.05,51.0,1.0,1.0,1.0
42.06,16.5056,1.0,1.0,1.0
42.07,31.0,1.0,1.0,1.0
42.08,33.0,1.0,1.0,1.0
42.09,39.4944,1.0,1.0,1.0
42.1,32.4944,1.0,1.0,1.0
42.11,47.0,1.0,1.0,1.0
42.12,20.5056,1.0,1.0,1.0
42.13,26.0,1.0,1.0,1.0
42.14,36.5056,1.0,1.0,1.0
42.15,24.4944,1.0,1.0,1.0
42.16,30.5056,1.0,1.0,1.0
42.17,47.0,1.0,1.0,1.0
42.18,41.0,1.0,1.0,1.0
42.19,29.0,1.0,1.0,1.0
42.2,22.0,1.0,1.0,1.0
42.21,21.0,1.0,1.0,1.0
42.22,25.9889,1.0,1.0,1.0
42.23,28.0111,1.0,1.0,1.0
42.24,40.4944,1.0,1.0,1.0
42.25,37.5056,1.0,1.0,1.0
42.26,46.4944,1.0,1.0,1.0
42.27,29.5056,1.0,1.0,1.0
42.28,20.9889,1.0,1.0,1.0
42.29,43.0111,1.0,1.0,1.0
42.3,47.4944,1.0,1.0,1.0
42.31,41.5056,1.0,1.0,1.0
42.32,50.9889,1.0,1.0,1.0
42.33,19.0111,1.0,1.0,1.0
42.34,47.0,1.0,1.0,1.0
42.35,43.4944,1.0,1.0,1.0
42.36,49.5056,1.0,1.0,1.0
42.37,32.4944,1.0,1.0,1.0
42.38,41.4944,1.0,1.0,1.0
42.39,40.5056,1.0,1.0,1.0
42.4,25.0,1.0,1.0,1.0
42.41,39.5056,1.0,1.0,1.0
42.42,63.0,1.0,1.0,1.0
42.43,44.0,1.0,1.0,1.0
42.44,34.9889,1.0,1.0,1.0
42.45,46.5056,1.0,1.0,1.0
42.46,41.5056,1.0,1.0,1.0
42.47,29.9889,1.0,1.0,1.0
42.48,38.5056,1.0,1.0,1.0
42.49,36.5056,1.0,1.0,1.0
42.5,40.9889,1.0,1.0,1.0
42.51,38.5056,1.0,1.0,1.0
42.52,28.5056,1.0,1.0,1.0
42.53,35.0,1.0,1.0,1.0
42.54,38.9889,1.0,1.0,1.0
42.55,36.5056,1.0,1.0,1.0
42.56,40.4833,1.0,1.0,1.0
42.57,40.5167,1.0,1.0,1.0
42.58,57.5056,1.0,1.0,1.0
42.59,59.4944,1.0,1.0,1.0
42.6,55.0,1.0,1.0,1.0
42.61,32.5056,1.0,1.0,1.0
42.62,53.0,1.0,1.0,1.0
42.63,37.0,1.0,1.0,1.0
42.64,31.9889,1.0,1.0,1.0
42.65,60.0111,1.0,1.0,1.0
42.66,45.4833,1.0,1.0,1.0
42.67,54.5056,1.0,1.0,1.0
42.68,39.0111,1.0,1.0,1.0
42.69,42.4944,1.0,1.0,1.0
42.7,53.9889,1.0,1.0,1.0
42.71,49.0111,1.0,1.0,1.0
42.72,51.4944,1.0,1.0,1.0
42.73,42.0111,1.0,1.0,1.0
42.74,49.4944,1.0,1.0,1.0
42.75,35.5056,1.0,1.0,1.0
42.76,42.9889,1.0,1.0,1.0
42.77,46.0,1.0,1.0,1.0
42.78,52.4944,1.0,1.0,1.0
42.79,28.5167,1.0,1.0,1.0
42.8,48.4944,1.0,1.0,1.0
42.81,59.5056,1.0,1.0,1.0
42.82,44.4944,1.0,1.0,1.0
42.83,47.5056,1.0,1.0,1.0
42.84,41.4833,1.0,1.0,1.0
42.85,53.5056,1.0,1.0,1.0
42.86,52.5056,1.0,1.0,1.0
42.87,48.5056,1.0,1.0,1.0
42.88,57.4944,1.0,1.0,1.0
42.89,44.4944,1.0,1.0,1.0
42.9,38.5056,1.0,1.0,1.0
42.91,54.5056,1.0,1.0,1.0
42.92,31.0,1.0,1.0,1.0
42.93,51.0,1.0,1.0,1.0
42.94,33.4944,1.0,1.0,1.0
42.95,41.5056,1.0,1.0,1.0
42.96,51.4944,1.0,1.0,1.0
42.97,33.5056,1.0,1.0,1.0
42.98,54.0,1.0,1.0,1.0
42.99,38.9889,1.0,1.0,1.0
43.0,55.0111,1.0,1.0,1.0
43.01,63.9889,1.0,1.0,1.0
43.02,47.4944,1.0,1.0,1.0
43.03,72.5167,1.0,1.0,1.0
43.04,42.4944,1.0,1.0,1.0
43.05,61.4833,1.0,1.0,1.0
43.06,54.5167,1.0,1.0,1.0
43.07,42.0,1.0,1.0,1.0
43.08,47.0,1.0,1.0,1.0
43.09,59.5056,1.0,1.0,1.0
43.1,44.4944,1.0,1.0,1.0
43.11,59.9889,1.0,1.0,1.0
43.12,103.5167,1.0,1.0,1.0
43.13,71.9889,1.0,1.0,1.0
43.14,40.0111,1.0,1.0,1.0
43.15,53.9889,1.0,1.0,1.0
43.16,55.5056,1.0,1.0,1.0
43.17,61.5056,1.0,1.0,1.0
43.18,38.4944,1.0,1.0,1.0
43.19,58.0,1.0,1.0,1.0
43.2,54.5056,1.0,1.0,1.0
43.21,55.4833,1.0,1.0,1.0
43.22,58.5167,1.0,1.0,1.0
43.23,69.4833,1.0,1.0,1.0
43.24,56.5167,1.0,1.0,1.0
43.25,63.4833,1.0,1.0,1.0
43.26,61.0111,1.0,1.0,1.0
43.27,68.4944,1.0,1.0,1.0
43.28,61.0111,1.0,1.0,1.0
43.29,54.4944,1.0,1.0,1.0
43.3,61.0,1.0,1.0,1.0
43.31,80.5056,1.0,1.0,1.0
43.32,59.0,1.0,1.0,1.0
43.33,54.4944,1.0,1.0,1.0
43.34,48.4944,1.0,1.0,1.0
43.35,75.0,1.0,1.0,1.0
43.36,95.0,1.0,1.0,1.0
43.37,42.0,1.0,1.0,1.0
43.38,82.0111,1.0,1.0,1.0
43.39,68.0,1.0,1.0,1.0
43.4,74.0,1.0,1.0,1.0
43.41,66.0,1.0,1.0,1.0
43.42,65.9778,1.0,1.0,1.0
43.43,69.0222,1.0,1.0,1.0
43.44,71.0,1.0,1.0,1.0
43.45,59.0,1.0,1.0,1.0
43.46,59.4833,1.0,1.0,1.0
43.47,96.0,1.0,1.0,1.0
43.48,62.5056,1.0,1.0,1.0
43.49,62.0111,1.0,1.0,1.0
43.5,77.4833,1.0,1.0,1.0
43.51,86.4944,1.0,1.0,1.0
43.52,90.5056,1.0,1.0,1.0
43.53,45.5056,1.0,1.0,1.0
43.54,71.0111,1.0,1.0,1.0
43.55,90.4944,1.0,1.0,1.0
43.56,73.4944,1.0,1.0,1.0
43.57,82.5056,1.0,1.0,1.0
43.58,95.0,1.0,1.0,1.0
43.59,54.4944,1.0,1.0,1.0
43.6,72.5056,1.0,1.0,1.0
43.61,63.0,1.0,1.0,1.0
43.62,64.4944,1.0,1.0,1.0
43.63,77.5056,1.0,1.0,1.0
43.64,87.9889,1.0,1.0,1.0
43.65,57.0111,1.0,1.0,1.0
43.66,73.9889,1.0,1.0,1.0
43.67,85.5167,1.0,1.0,1.0
43.68,76.4833,1.0,1.0,1.0
43.69,76.4944,1.0,1.0,1.0
43.7,86.0111,1.0,1.0,1.0
43.71,64.0,1.0,1.0,1.0
43.72,73.4944,1.0,1.0,1.0
43.73,58.0111,1.0,1.0,1.0
43.74,55.5056,1.0,1.0,1.0
43.75,73.9889,1.0,1.0,1.0
43.76,75.5056,1.0,1.0,1.0
43.77,80.4944,1.0,1.0,1.0
43.78,84.5056,1.0,1.0,1.0
43.79,73.4944,1.0,1.0,1.0
43.8,77.0111,1.0,1.0,1.0
43.81,95.9889,1.0,1.0,1.0
43.82,94.4944,1.0,1.0,1.0
43.83,89.5056,1.0,1.0,1.0
43.84,70.9889,1.0,1.0,1.0
43.85,67.0111,1.0,1.0,1.0
43.86,89.5056,1.0,1.0,1.0
43.87,88.9889,1.0,1.0,1.0
43.88,95.4944,1.0,1.0,1.0
43.89,104.5167,1.0,1.0,1.0
43.9,101.0,1.0,1.0,1.0
43.91,81.5056,1.0,1.0,1.0
43.92,96.9889,1.0,1.0,1.0
43.93,89.0,1.0,1.0,1.0
43.94,102.5056,1.0,1.0,1.0
43.95,86.4944,1.0,1.0,1.0
43.96,97.0111,1.0,1.0,1.0
43.97,113.9889,1.0,1.0,1.0
43.98,109.4944,1.0,1.0,1.0
43.99,107.5056,1.0,1.0,1.0
44.0,106.4944,1.0,1.0,1.0
44.01,91.0111,1.0,1.0,1.0
44.02,89.4944,1.0,1.0,1.0
44.03,93.5056,1.0,1.0,1.0
44.04,109.0,1.0,1.0,1.0
44.05,119.9889,1.0,1.0,1.0
44.06,121.0,1.0,1.0,1.0
44.07,112.5056,1.0,1.0,1.0
44.08,106.9889,1.0,1.0,1.0
44.09,132.5167,1.0,1.0,1.0
44.1,105.0,1.0,1.0,1.0
44.11,108.0,1.0,1.0,1.0
44.12,113.4944,1.0,1.0,1.0
44.13,100.0111,1.0,1.0,1.0
44.14,90.0,1.0,1.0,1.0
44.15,83.9889,1.0,1.0,1.0
44.16,91.4944,1.0,1.0,1.0
44.17,102.0,1.0,1.0,1.0
44.18,125.0111,1.0,1.0,1.0
44.19,104.4944,1.0,1.0,1.0
44.2,127.5056,1.0,1.0,1.0
44.21,104.5056,1.0,1.0,1.0
44.22,104.9778,1.0,1.0,1.0
44.23,129.5056,1.0,1.0,1.0
44.24,120.5056,1.0,1.0,1.0
44.25,103.5056,1.0,1.0,1.0
44.26,123.4944,1.0,1.0,1.0
44.27,132.4944,1.0,1.0,1.0
44.28,119.5056,1.0,1.0,1.0
44.29,116.9778,1.0,1.0,1.0
44.3,127.0222,1.0,1.0,1.0
44.31,113.9778,1.0,1.0,1.0
44.32,120.5167,1.0,1.0,1.0
44.33,127.0,1.0,1.0,1.0
44.34,107.4944,1.0,1.0,1.0
44.35,155.0222,1.0,1.0,1.0
44.36,118.4944,1.0,1.0,1.0
44.37,137.9889,1.0,1.0,1.0
44.38,137.0,1.0,1.0,1.0
44.39,124.4833,1.0,1.0,1.0
44.4,141.0222,1.0,1.0,1.0
44.41,144.4944,1.0,1.0,1.0
44.42,124.5056,1.0,1.0,1.0
44.43,140.0111,1.0,1.0,1.0
44.44,131.9778,1.0,1.0,1.0
44.45,151.5167,1.0,1.0,1.0
44.46,143.4833,1.0,1.0,1.0
44.47,192.0111,1.0,1.0,1.0
44.48,166.4944,1.0,1.0,1.0
44.49,137.0,1.0,1.0,1.0
44.5,135.4944,1.0,1.0,1.0
44.51,149.5167,1.0,1.0,1.0
44.52,194.9889,1.0,1.0,1.0
44.53,185.9778,1.0,1.0,1.0
44.54,176.0222,1.0,1.0,1.0
44.55,158.0111,1.0,1.0,1.0
44.56,180.0,1.0,1.0,1.0
44.57,163.0,1.0,1.0,1.0
44.58,176.0,1.0,1.0,1.0
44.59,162.0,1.0,1.0,1.0
44.6,200.4833,1.0,1.0,1.0
44.61,194.9778,1.0,1.0,1.0
44.62,163.5278,1.0,1.0,1.0
44.63,199.9889,1.0,1.0,1.0
44.64,200.5167,1.0,1.0,1.0
44.65,189.9889,1.0,1.0,1.0
44.66,204.0,1.0,1.0,1.0
44.67,224.9889,1.0,1.0,1.0
44.68,205.0,1.0,1.0,1.0
44.69,199.4944,1.0,1.0,1.0
44.7,191.5278,1.0,1.0,1.0
44.71,199.9667,1.0,1.0,1.0
44.72,189.0222,1.0,1.0,1.0
44.73,215.4944,1.0,1.0,1.0
44.74,215.5056,1.0,1.0,1.0
44.75,208.0,1.0,1.0,1.0
44.76,231.0111,1.0,1.0,1.0
44.77,225.5056,1.0,1.0,1.0
44.78,207.9556,1.0,1.0,1.0
44.79,230.5167,1.0,1.0,1.0
44.8,232.5167,1.0,1.0,1.0
44.81,231.0111,1.0,1.0,1.0
44.82,221.4944,1.0,1.0,1.0
44.83,291.4611,1.0,1.0,1.0
44.84,249.0444,1.0,1.0,1.0
44.85,257.9778,1.0,1.0,1.0
44.86,232.0,1.0,1.0,1.0
44.87,260.0,1.0,1.0,1.0
44.88,300.9889,1.0,1.0,1.0
44.89,274.4833,1.0,1.0,1.0
44.9,322.5167,1.0,1.0,1.0
44.91,314.0111,1.0,1.0,1.0
44.92,308.4944,1.0,1.0,1.0
44.93,303.45,1.0,1.0,1.0
44.94,333.5389,1.0,1.0,1.0
44.95,358.5167,1.0,1.0,1.0
44.96,363.0111,1.0,1.0,1.0
44.97,326.4611,1.0,1.0,1.0
44.98,391.5056,1.0,1.0,1.0
44.99,365.4944,1.0,1.0,1.0
45.0,365.5278,1.0,1.0,1.0
45.01,391.9778,1.0,1.0,1.0
45.02,407.4833,1.0,1.0,1.0
45.03,402.5389,1.0,1.0,1.0
45.04,442.9778,1.0,1.0,1.0
45.05,416.4944,1.0,1.0,1.0
45.06,425.5167,1.0,1.0,1.0
45.07,487.0,1.0,1.0,1.0
45.08,507.4833,1.0,1.0,1.0
45.09,491.0111,1.0,1.0,1.0
45.1,496.4833,1.0,1.0,1.0
45.11,506.4944,1.0,1.0,1.0
45.12,559.5056,1.0,1.0,1.0
45.13,536.9889,1.0,1.0,1.0
45.14,485.0333,1.0,1.0,1.0
45.15,616.9667,1.0,1.0,1.0
45.16,569.0111,1.0,1.0,1.0
45.17,586.0222,1.0,1.0,1.0
45.18,585.9889,1.0,1.0,1.0
45.19,659.4833,1.0,1.0,1.0
45.2,613.5056,1.0,1.0,1.0
45.21,623.5056,1.0,1.0,1.0
45.22,690.4944,1.0,1.0,1.0
45.23,674.9889,1.0,1.0,1.0
45.24,701.5056,1.0,1.0,1.0
45.25,738.4944,1.0,1.0,1.0
45.26,778.9778,1.0,1.0,1.0
45.27,747.5278,1.0,1.0,1.0
45.28,829.4833,1.0,1.0,1.0
45.29,891.9556,1.0,1.0,1.0
45.3,840.5056,1.0,1.0,1.0
45.31,817.5278,1.0,1.0,1.0
45.32,912.45,1.0,1.0,1.0
45.33,912.0444,1.0,1.0,1.0
45.34,949.4833,1.0,1.0,1.0
45.35,1017.49,1.0,1.0,1.0
45.36,988.4944,1.0,1.0,1.0
45.37,1100.52,1.0,1.0,1.0
45.38,1121.51,1.0,1.0,1.0
45.39,1193.97,1.0,1.0,1.0
45.4,1218.99,1.0,1.0,1.0
45.41,1232.47,1.0,1.0,1.0
45.42,1323.53,1.0,1.0,1.0
45.43,1393.98,1.0,1.0,1.0
45.44,1408.57,1.0,1.0,1.0
45.45,1401.97,1.0,1.0,1.0
45.46,1495.93,1.0,1.0,1.0
45.47,1513.04,1.0,1.0,1.0
45.48,1594.99,1.0,1.0,1.0
45.49,1565.45,1.0,1.0,1.0
45.5,1641.06,1.0,1.0,1.0
45.51,1686.99,1.0,1.0,1.0
45.52,1746.51,1.0,1.0,1.0
45.53,1785.46,1.0,1.0,1.0
45.54,1899.94,1.0,1.0,1.0
45.55,1906.49,1.0,1.0,1.0
45.56,2037.07,1.0,1.0,1.0
45.57,2028.46,1.0,1.0,1.0
45.58,2169.48,1.0,1.0,1.0
45.59,2113.53,1.0,1.0,1.0
45.6,2224.98,1.0,1.0,1.0
45.61,2281.01,1.0,1.0,1.0
45.62,2440.49,1.0,1.0,1.0
45.63,2486.0,1.0,1.0,1.0
45.64,2547.43,1.0,1.0,1.0
45.65,2639.03,1.0,1.0,1.0
45.66,2701.49,1.0,1.0,1.0
45.67,2696.0,1.0,1.0,1.0
45.68,2859.93,1.0,1.0,1.0
45.69,2878.09,1.0,1.0,1.0
45.7,3053.51,1.0,1.0,1.0
45.71,3079.84,1.0,1.0,1.0
45.72,3151.52,1.0,1.0,1.0
45.73,3343.07,1.0,1.0,1.0
45.74,3523.84,1.0,1.0,1.0
45.75,3585.55,1.0,1.0,1.0
45.76,3769.55,1.0,1.0,1.0
45.77,3874.41,1.0,1.0,1.0
45.78,3915.53,1.0,1.0,1.0
45.79,3918.92,1.0,1.0,1.0
45.8,4242.02,1.0,1.0,1.0
45.81,4328.07,1.0,1.0,1.0
45.82,4483.439,1.0,1.0,1.0
45.83,4680.99,1.0,1.0,1.0
45.84,4719.42,1.0,1.0,1.0
45.85,5062.58,1.0,1.0,1.0
45.86,5249.99,1.0,1.0,1.0
45.87,5371.99,1.0,1.0,1.0
45.88,5608.9,1.0,1.0,1.0
45.89,5992.99,1.0,1.0,1.0
45.9,5823.98,1.0,1.0,1.0
45.91,6278.49,1.0,1.0,1.0
45.92,6516.54,1.0,1.0,1.0
45.93,6741.87,1.0,1.0,1.0
45.94,6986.93,1.0,1.0,1.0
45.95,7405.08,1.0,1.0,1.0
45.96,7566.46,1.0,1.0,1.0
45.97,7701.49,1.0,1.0,1.0
45.98,8064.98,1.0,1.0,1.0
45.99,8452.22,1.0,1.0,1.0
46.0,8743.68,1.0,1.0,1.0
46.01,9141.32,1.0,1.0,1.0
46.02,9405.03,1.0,1.0,1.0
46.03,9791.97,1.0,1.0,1.0
46.04,10094.1,1.0,1.0,1.0
46.05,10541.4,1.0,1.0,1.0
46.06,10926.6,1.0,1.0,1.0
46.07,11407.8,1.0,1.0,1.0
46.08,11772.5,1.0,1.0,1.0
46.09,12399.8,1.0,1.0,1.0
46.1,12869.6,1.0,1.0,1.0
46.11,13215.9,1.0,1.0,1.0
46.12,13743.3,1.0,1.0,1.0
46.13,14321.2,1.0,1.0,1.0
46.14,15082.8,1.0,1.0,1.0
46.15,15852.5,1.0,1.0,1.0
46.16,16346.8,1.0,1.0,1.0
46.17,16916.627,1.0,1.0,1.0
46.18,17790.1,1.0,1.0,1.0
46.19,18776.75,1.0,1.0,1.0
46.2,19738.7,1.0,1.0,1.0
46.21,20968.3,1.0,1.0,1.0
46.22,22176.1,1.0,1.0,1.0
46.23,23648.7,1.0,1.0,1.0
46.24,24624.2,1.0,1.0,1.0
46.25,26165.8,1.0,1.0,1.0
46.26,27900.1,1.0,1.0,1.0
46.27,29782.6,1.0,1.0,1.0
46.28,32078.2,1.0,1.0,1.0
46.29,34391.0,1.0,1.0,1.0
46.3,37830.543,1.0,1.0,1.0
46.31,41182.9,1.0,1.0,1.0
46.32,45299.6,1.0,1.0,1.0
46.33,50528.2,1.0,1.0,1.0
46.34,56943.8,1.0,1.0,1.0
46.35,65184.75,1.0,1.0,1.0
46.36,76441.4,1.0,1.0,1.0
46.37,91628.9,1.0,1.0,1.0
46.38,113992,1.0,1.0,1.0
46.39,146759,1.0,1.0,1.0
46.4,192579,1.0,1.0,1.0
46.41,256923,1.0,1.0,1.0
46.42,356949,1.0,1.0,1.0
46.43,508259,1.0,1.0,1.0
46.44,736663,1.0,1.0,1.0
46.45,1090384.375,1.0,1.0,1.0
46.46,1748357.125,1.0,1.0,1.0
46.47,3281107.25,1.0,1.0,1.0
46.48,14347292.0,1.0,1.0,1.0
46.49,130655000.0,1.0,1.0,1.0
46.5,100810688.0,1.0,1.0,1.0
46.51,54698680.0,1.0,1.0,1.0
46.52,7606336.0,1.0,1.0,1.0
46.53,2074116.0,1.0,1.0,1.0
46.54,1063597.75,1.0,1.0,1.0
46.55,655937.375,1.0,1.0,1.0
46.56,426038,1.0,1.0,1.0
46.57,274408,1.0,1.0,1.0
46.58,174164,1.0,1.0,1.0
46.59,118671.25,1.0,1.0,1.0
46.6,88598.9,1.0,1.0,1.0
46.61,70436.7,1.0,1.0,1.0
46.62,57063.9,1.0,1.0,1.0
46.63,46352.3,1.0,1.0,1.0
46.64,39571.4,1.0,1.0,1.0
46.65,33545.707,1.0,1.0,1.0
46.66,29862.2,1.0,1.0,1.0
46.67,26899.1,1.0,1.0,1.0
46.68,24177.2,1.0,1.0,1.0
46.69,22306.2,1.0,1.0,1.0
46.7,20660.3,1.0,1.0,1.0
46.71,19122.5,1.0,1.0,1.0
46.72,17868.3,1.0,1.0,1.0
46.73,17086.1,1.0,1.0,1.0
46.74,15881.5,1.0,1.0,1.0
46.75,15087,1.0,1.0,1.0
46.76,14424.3,1.0,1.0,1.0
46.77,13486,1.0,1.0,1.0
46.78,12818.6,1.0,1.0,1.0
46.79,12329.7,1.0,1.0,1.0
46.8,11628.9,1.0,1.0,1.0
46.81,11261.3,1.0,1.0,1.0
46.82,10771.4,1.0,1.0,1.0
46.83,10177.9,1.0,1.0,1.0
46.84,9706.97,1.0,1.0,1.0
46.85,9377.73,1.0,1.0,1.0
46.86,8865.94,1.0,1.0,1.0
46.87,8344.1,1.0,1.0,1.0
46.88,8035.09,1.0,1.0,1.0
46.89,7495.49,1.0,1.0,1.0
46.9,7430.561,1.0,1.0,1.0
46.91,6929.9,1.0,1.0,1.0
46.92,6635.74,1.0,1.0,1.0
46.93,6229.42,1.0,1.0,1.0
46.94,5784.57,1.0,1.0,1.0
46.95,5428.17,1.0,1.0,1.0
46.96,5124.02,1.0,1.0,1.0
46.97,4865.07,1.0,1.0,1.0
46.98,4621.83,1.0,1.0,1.0
46.99,4267.57,1.0,1.0,1.0
47.0,3912.08,1.0,1.0,1.0
47.01,3774.57,1.0,1.0,1.0
47.02,3452.43,1.0,1.0,1.0
47.03,3242.06,1.0,1.0,1.0
47.04,3031.93,1.0,1.0,1.0
47.05,2773.17,1.0,1.0,1.0
47.06,2517.97,1.0,1.0,1.0
47.07,2252.07,1.0,1.0,1.0
47.08,2143.54,1.0,1.0,1.0
47.09,2046.94,1.0,1.0,1.0
47.1,1849.53,1.0,1.0,1.0
47.11,1808.99,1.0,1.0,1.0
47.12,1689.99,1.0,1.0,1.0
47.13,1579.03,1.0,1.0,1.0
47.14,1465.04,1.0,1.0,1.0
47.15,1343.47,1.0,1.0,1.0
47.16,1284.53,1.0,1.0,1.0
47.17,1310.51,1.0,1.0,1.0
47.18,1209.03,1.0,1.0,1.0
47.19,1159.45,1.0,1.0,1.0
47.2,1158.01,1.0,1.0,1.0
47.21,1130.04,1.0,1.0,1.0
47.22,1078.04,1.0,1.0,1.0
47.23,1146.97,1.0,1.0,1.0
47.24,1110.96,1.0,1.0,1.0
47.25,1178.03,1.0,1.0,1.0
47.26,1108.94,1.0,1.0,1.0
47.27,1179.51,1.0,1.0,1.0
47.28,1123.02,1.0,1.0,1.0
47.29,1163.99,1.0,1.0,1.0
47.3,1221.0,1.0,1.0,1.0
47.31,1203.01,1.0,1.0,1.0
47.32,1290.99,1.0,1.0,1.0
47.33,1280.51,1.0,1.0,1.0
47.34,1311.03,1.0,1.0,1.0
47.35,1273.48,1.0,1.0,1.0
47.36,1328.0,1.0,1.0,1.0
47.37,1308.46,1.0,1.0,1.0
47.38,1296.52,1.0,1.0,1.0
47.39,1275.99,1.0,1.0,1.0
47.4,1338.49,1.0,1.0,1.0
47.41,1360.46,1.0,1.0,1.0
47.42,1341.06,1.0,1.0,1.0
47.43,1336.46,1.0,1.0,1.0
47.44,1254.52,1.0,1.0,1.0
47.45,1295.54,1.0,1.0,1.0
47.46,1257.98,1.0,1.0,1.0
47.47,1235.02,1.0,1.0,1.0
47.48,1244.51,1.0,1.0,1.0
47.49,1185.45,1.0,1.0,1.0
47.5,1220.52,1.0,1.0,1.0
47.51,1065.03,1.0,1.0,1.0
47.52,1115.48,1.0,1.0,1.0
47.53,1028.55,1.0,1.0,1.0
47.54,1056.44,1.0,1.0,1.0
47.55,986.55,1.0,1.0,1.0
47.56,918.0,1.0,1.0,1.0
47.57,888.5278,1.0,1.0,1.0
47.58,876.0111,1.0,1.0,1.0
47.59,823.9667,1.0,1.0,1.0
47.6,731.0111,1.0,1.0,1.0
47.61,734.0111,1.0,1.0,1.0
47.62,664.0,1.0,1.0,1.0
47.63,621.5056,1.0,1.0,1.0
47.64,619.0111,1.0,1.0,1.0
47.65,526.5167,1.0,1.0,1.0
47.66,485.9667,1.0,1.0,1.0
47.67,461.5167,1.0,1.0,1.0
47.68,495.5056,1.0,1.0,1.0
47.69,479.4611,1.0,1.0,1.0
47.7,441.0333,1.0,1.0,1.0
47.71,385.5167,1.0,1.0,1.0
47.72,426.9778,1.0,1.0,1.0
47.73,369.0222,1.0,1.0,1.0
47.74,379.0,1.0,1.0,1.0
47.75,360.0111,1.0,1.0,1.0
47.76,348.9778,1.0,1.0,1.0
47.77,328.0333,1.0,1.0,1.0
47.78,343.4833,1.0,1.0,1.0
47.79,308.5167,1.0,1.0,1.0
47.8,283.0,1.0,1.0,1.0
47.81,302.4944,1.0,1.0,1.0
47.82,326.4722,1.0,1.0,1.0
47.83,297.0,1.0,1.0,1.0
47.84,330.4833,1.0,1.0,1.0
47.85,357.0444,1.0,1.0,1.0
47.86,335.4833,1.0,1.0,1.0
47.87,354.5056,1.0,1.0,1.0
47.88,306.9778,1.0,1.0,1.0
47.89,322.5167,1.0,1.0,1.0
47.9,317.0111,1.0,1.0,1.0
47.91,314.4833,1.0,1.0,1.0
47.92,359.0111,1.0,1.0,1.0
47.93,354.4944,1.0,1.0,1.0
47.94,343.4833,1.0,1.0,1.0
47.95,383.0222,1.0,1.0,1.0
47.96,334.9889,1.0,1.0,1.0
47.97,320.0111,1.0,1.0,1.0
47.98,366.4833,1.0,1.0,1.0
47.99,352.0111,1.0,1.0,1.0
48.0,357.4611,1.0,1.0,1.0
48.01,341.5278,1.0,1.0,1.0
48.02,347.9889,1.0,1.0,1.0
48.03,355.0222,1.0,1.0,1.0
48.04,327.9778,1.0,1.0,1.0
48.05,365.5056,1.0,1.0,1.0
48.06,314.0111,1.0,1.0,1.0
48.07,305.0111,1.0,1.0,1.0
48.08,328.0111,1.0,1.0,1.0
48.09,252.0,1.0,1.0,1.0
48.1,281.4944,1.0,1.0,1.0
48.11,285.4722,1.0,1.0,1.0
48.12,271.0222,1.0,1.0,1.0
48.13,266.0,1.0,1.0,1.0
48.14,253.0,1.0,1.0,1.0
48.15,224.0222,1.0,1.0,1.0
48.16,194.9889,1.0,1.0,1.0
48.17,214.0111,1.0,1.0,1.0
48.18,182.4944,1.0,1.0,1.0
48.19,195.9889,1.0,1.0,1.0
48.2,197.4944,1.0,1.0,1.0
48.21,174.0111,1.0,1.0,1.0
48.22,190.4833,1.0,1.0,1.0
48.23,157.5278,1.0,1.0,1.0
48.24,146.4944,1.0,1.0,1.0
48.25,144.4944,1.0,1.0,1.0
48.26,152.0,1.0,1.0,1.0
48.27,145.5056,1.0,1.0,1.0
48.28,149.4833,1.0,1.0,1.0
48.29,126.5167,1.0,1.0,1.0
48.3,115.5056,1.0,1.0,1.0
48.31,104.0,1.0,1.0,1.0
48.32,123.4833,1.0,1.0,1.0
48.33,117.0111,1.0,1.0,1.0
48.34,106.9889,1.0,1.0,1.0
48.35,127.0222,1.0,1.0,1.0
48.36,148.0,1.0,1.0,1.0
48.37,107.9778,1.0,1.0,1.0
48.38,137.5167,1.0,1.0,1.0
48.39,101.9889,1.0,1.0,1.0
48.4,137.0111,1.0,1.0,1.0
48.41,142.0,1.0,1.0,1.0
48.42,115.4833,1.0,1.0,1.0
48.43,120.0111,1.0,1.0,1.0
48.44,139.5056,1.0,1.0,1.0
48.45,133.0,1.0,1.0,1.0
48.46,119.4944,1.0,1.0,1.0
48.47,134.5056,1.0,1.0,1.0
48.48,99.0,1.0,1.0,1.0
48.49,125.4944,1.0,1.0,1.0
48.5,147.4944,1.0,1.0,1.0
48.51,148.0,1.0,1.0,1.0
48.52,143.4944,1.0,1.0,1.0
48.53,129.5056,1.0,1.0,1.0
48.54,134.0,1.0,1.0,1.0
48.55,120.5167,1.0,1.0,1.0
48.56,81.4833,1.0,1.0,1.0
48.57,128.0111,1.0,1.0,1.0
48.58,146.0,1.0,1.0,1.0
48.59,110.4833,1.0,1.0,1.0
48.6,112.5056,1.0,1.0,1.0
48.61,116.5056,1.0,1.0,1.0
48.62,89.5056,1.0,1.0,1.0
48.63,98.0,1.0,1.0,1.0
48.64,124.4944,1.0,1.0,1.0
48.65,113.0111,1.0,1.0,1.0
48.66,111.9778,1.0,1.0,1.0
48.67,100.0111,1.0,1.0,1.0
48.68,95.5056,1.0,1.0,1.0
48.69,90.0,1.0,1.0,1.0
48.7,80.4944,1.0,1.0,1.0
48.71,85.5056,1.0,1.0,1.0
48.72,117.4833,1.0,1.0,1.0
48.73,74.0111,1.0,1.0,1.0
48.74,78.4944,1.0,1.0,1.0
48.75,72.0111,1.0,1.0,1.0
48.76,79.5056,1.0,1.0,1.0
48.77,87.4833,1.0,1.0,1.0
48.78,63.5167,1.0,1.0,1.0
48.79,83.4833,1.0,1.0,1.0
48.8,65.0111,1.0,1.0,1.0
48.81,82.0,1.0,1.0,1.0
48.82,84.0,1.0,1.0,1.0
48.83,52.9889,1.0,1.0,1.0
48.84,53.5167,1.0,1.0,1.0
48.85,65.4944,1.0,1.0,1.0
48.86,88.4944,1.0,1.0,1.0
48.87,56.0,1.0,1.0,1.0
48.88,74.0,1.0,1.0,1.0
48.89,64.0111,1.0,1.0,1.0
48.9,63.4944,1.0,1.0,1.0
48.91,53.5056,1.0,1.0,1.0
48.92,73.0,1.0,1.0,1.0
48.93,68.0,1.0,1.0,1.0
48.94,61.4944,1.0,1.0,1.0
48.95,49.0,1.0,1.0,1.0
48.96,65.5056,1.0,1.0,1.0
48.97,66.0,1.0,1.0,1.0
48.98,76.4944,1.0,1.0,1.0
48.99,46.5056,1.0,1.0,1.0
49.0,62.0,1.0,1.0,1.0
49.01,77.9889,1.0,1.0,1.0
49.02,73.5056,1.0,1.0,1.0
49.03,49.4944,1.0,1.0,1.0
49.04,54.0111,1.0,1.0,1.0
49.05,63.9889,1.0,1.0,1.0
49.06,67.0,1.0,1.0,1.0
49.07,69.0,1.0,1.0,1.0
49.08,55.5056,1.0,1.0,1.0
49.09,44.0,1.0,1.0,1.0
49.1,56.0,1.0,1.0,1.0
49.11,67.5056,1.0,1.0,1.0
49.12,67.0,1.0,1.0,1.0
49.13,58.0,1.0,1.0,1.0
49.14,52.9889,1.0,1.0,1.0
49.15,44.5056,1.0,1.0,1.0
49.16,33.5056,1.0,1.0,1.0
49.17,51.0,1.0,1.0,1.0
49.18,45.4944,1.0,1.0,1.0
49.19,34.5056,1.0,1.0,1.0
49.2,38.0,1.0,1.0,1.0
49.21,40.4944,1.0,1.0,1.0
49.22,58.4944,1.0,1.0,1.0
49.23,22.0111,1.0,1.0,1.0
49.24,41.4944,1.0,1.0,1.0
49.25,28.5056,1.0,1.0,1.0
49.26,41.4944,1.0,1.0,1.0
49.27,42.5056,1.0,1.0,1.0
49.28,19.4944,1.0,1.0,1.0
49.29,52.4944,1.0,1.0,1.0
49.3,47.0,1.0,1.0,1.0
49.31,49.0111,1.0,1.0,1.0
49.32,29.0,1.0,1.0,1.0
49.33,39.4944,1.0,1.0,1.0
49.34,41.5056,1.0,1.0,1.0
49.35,37.0,1.0,1.0,1.0
49.36,45.0,1.0,1.0,1.0
49.37,51.0,1.0,1.0,1.0
49.38,18.0,1.0,1.0,1.0
49.39,28.0,1.0,1.0,1.0
49.4,29.9889,1.0,1.0,1.0
49.41,33.0111,1.0,1.0,1.0
49.42,29.9889,1.0,1.0,1.0
49.43,36.0,1.0,1.0,1.0
49.44,37.0111,1.0,1.0,1.0
49.45,45.4944,1.0,1.0,1.0
49.46,39.4944,1.0,1.0,1.0
49.47,26.0111,1.0,1.0,1.0
49.48,46.0,1.0,1.0,1.0
49.49,35.0,1.0,1.0,1.0
49.5,41.9889,1.0,1.0,1.0
49.51,32.5056,1.0,1.0,1.0
49.52,33.5056,1.0,1.0,1.0
49.53,35.0,1.0,1.0,1.0
49.54,35.9889,1.0,1.0,1.0
49.55,44.0111,1.0,1.0,1.0
49.56,39.0,1.0,1.0,1.0
49.57,46.0,1.0,1.0,1.0
49.58,21.0,1.0,1.0,1.0
49.59,43.0,1.0,1.0,1.0
49.6,42.4944,1.0,1.0,1.0
49.61,52.5056,1.0,1.0,1.0
49.62,33.0,1.0,1.0,1.0
49.63,30.0,1.0,1.0,1.0
49.64,34.0,1.0,1.0,1.0
49.65,30.0,1.0,1.0,1.0
49.66,33.0,1.0,1.0,1.0
49.67,37.4944,1.0,1.0,1.0
49.68,40.5056,1.0,1.0,1.0
49.69,23.4944,1.0,1.0,1.0
49.7,41.5056,1.0,1.0,1.0
49.71,18.0,1.0,1.0,1.0
49.72,32.0,1.0,1.0,1.0
49.73,34.4944,1.0,1.0,1.0
49.74,17.5056,1.0,1.0,1.0
49.75,35.0,1.0,1.0,1.0
49.76,31.9889,1.0,1.0,1.0
49.77,36.0,1.0,1.0,1.0
49.78,12.5056,1.0,1.0,1.0
49.79,26.5056,1.0,1.0,1.0
49.8,18.4944,1.0,1.0,1.0
49.81,37.4944,1.0,1.0,1.0
49.82,29.0,1.0,1.0,1.0
49.83,25.0111,1.0,1.0,1.0
49.84,31.4944,1.0,1.0,1.0
49.85,25.5056,1.0,1.0,1.0
49.86,31.0,1.0,1.0,1.0
49.87,30.4944,1.0,1.0,1.0
49.88,29.9889,1.0,1.0,1.0
49.89,40.0111,1.0,1.0,1.0
49.9,25.5056,1.0,1.0,1.0
49.91,37.0,1.0,1.0,1.0
49.92,20.4944,1.0,1.0,1.0
49.93,30.5056,1.0,1.0,1.0
49.94,16.9778,1.0,1.0,1.0
49.95,45.5167,1.0,1.0,1.0
49.96,26.5056,1.0,1.0,1.0
49.97,21.4944,1.0,1.0,1.0
49.98,22.5056,1.0,1.0,1.0
49.99,23.4944,1.0,1.0,1.0
50.0,19.5056,1.0,1.0,1.0
50.01,34.0,1.0,1.0,1.0
50.02,30.0,1.0,1.0,1.0
50.03,19.4944,1.0,1.0,1.0
50.04,32.5056,1.0,1.0,1.0
50.05,23.4944,1.0,1.0,1.0
50.06,28.0,1.0,1.0,1.0
50.07,17.5056,1.0,1.0,1.0
50.08,43.0,1.0,1.0,1.0
50.09,24.0,1.0,1.0,1.0
50.1,24.0,1.0,1.0,1.0
50.11,23.0,1.0,1.0,1.0
50.12,28.4944,1.0,1.0,1.0
50.13,24.5056,1.0,1.0,1.0
50.14,18.0,1.0,1.0,1.0
50.15,27.0,1.0,1.0,1.0
50.16,17.0,1.0,1.0,1.0
50.17,13.0,1.0,1.0,1.0
50.18,24.0,1.0,1.0,1.0
50.19,18.0,1.0,1.0,1.0
50.2,16.0,1.0,1.0,1.0
50.21,17.0,1.0,1.0,1.0
50.22,33.0,1.0,1.0,1.0
50.23,12.0,1.0,1.0,1.0
50.24,29.0,1.0,1.0,1.0
50.25,21.4944,1.0,1.0,1.0
50.26,32.5056,1.0,1.0,1.0
50.27,22.4944,1.0,1.0,1.0
50.28,11.5056,1.0,1.0,1.0
50.29,20.4944,1.0,1.0,1.0
50.3,28.5056,1.0,1.0,1.0
50.31,15.4944,1.0,1.0,1.0
50.32,29.5056,1.0,1.0,1.0
50.33,19.0,1.0,1.0,1.0
50.34,21.0,1.0,1.0,1.0
50.35,21.0,1.0,1.0,1.0
50.36,20.0,1.0,1.0,1.0
50.37,31.0,1.0,1.0,1.0
50.38,16.0,1.0,1.0,1.0
50.39,25.0,1.0,1.0,1.0
50.4,19.4944,1.0,1.0,1.0
50.41,29.0,1.0,1.0,1.0
50.42,31.5056,1.0,1.0,1.0
50.43,19.0,1.0,1.0,1.0
50.44,18.4944,1.0,1.0,1.0
50.45,18.0,1.0,1.0,1.0
50.46,23.4944,1.0,1.0,1.0
50.47,19.0111,1.0,1.0,1.0
50.48,8.4944,1.0,1.0,1.0
50.49,17.5056,1.0,1.0,1.0
50.5,14.0,1.0,1.0,1.0
50.51,15.0,1.0,1.0,1.0
50.52,12.9889,1.0,1.0,1.0
50.53,22.5056,1.0,1.0,1.0
50.54,20.5056,1.0,1.0,1.0
50.55,24.0,1.0,1.0,1.0
50.56,18.0,1.0,1.0,1.0
50.57,25.0,1.0,1.0,1.0
50.58,15.0,1.0,1.0,1.0
50.59,10.0,1.0,1.0,1.0
50.6,17.9889,1.0,1.0,1.0
50.61,13.5056,1.0,1.0,1.0
50.62,21.5056,1.0,1.0,1.0
50.63,23.0,1.0,1.0,1.0
50.64,13.0,1.0,1.0,1.0
50.65,16.0,1.0,1.0,1.0
50.66,19.0,1.0,1.0,1.0
50.67,12.0,1.0,1.0,1.0
50.68,9.0,1.0,1.0,1.0
50.69,15.0,1.0,1.0,1.0
50.7,11.0,1.0,1.0,1.0
50.71,18.4944,1.0,1.0,1.0
50.72,18.5056,1.0,1.0,1.0
50.73,16.0,1.0,1.0,1.0
50.74,27.0,1.0,1.0,1.0
50.75,9.0,1.0,1.0,1.0
50.76,18.0,1.0,1.0,1.0
50.77,18.0,1.0,1.0,1.0
50.78,22.0,1.0,1.0,1.0
50.79,27.0,1.0,1.0,1.0
50.8,9.4944,1.0,1.0,1.0
50.81,27.5056,1.0,1.0,1.0
50.82,17.0,1.0,1.0,1.0
50.83,22.0,1.0,1.0,1.0
50.84,13.4944,1.0,1.0,1.0
50.85,29.0,1.0,1.0,1.0
50.86,11.5056,1.0,1.0,1.0
50.87,13.9889,1.0,1.0,1.0
50.88,15.0111,1.0,1.0,1.0
50.89,25.0,1.0,1.0,1.0
50.9,12.0,1.0,1.0,1.0
50.91,21.4944,1.0,1.0,1.0
50.92,26.5056,1.0,1.0,1.0
50.93,16.0,1.0,1.0,1.0
50.94,15.0,1.0,1.0,1.0
50.95,10.0,1.0,1.0,1.0
50.96,15.4944,1.0,1.0,1.0
50.97,23.5056,1.0,1.0,1.0
50.98,20.4944,1.0,1.0,1.0
50.99,21.9889,1.0,1.0,1.0
51.0,21.5167,1.0,1.0,1.0
51.01,26.0,1.0,1.0,1.0
51.02,16.0,1.0,1.0,1.0
51.03,15.0,1.0,1.0,1.0
51.04,34.0,1.0,1.0,1.0
51.05,20.4944,1.0,1.0,1.0
51.06,7.4944,1.0,1.0,1.0
51.07,31.0111,1.0,1.0,1.0
51.08,11.4944,1.0,1.0,1.0
51.09,17.5056,1.0,1.0,1.0
51.1,22.9889,1.0,1.0,1.0
51.11,21.0111,1.0,1.0,1.0
51.12,18.0,1.0,1.0,1.0
51.13,16.0,1.0,1.0,1.0
51.14,17.9889,1.0,1.0,1.0
51.15,11.0111,1.0,1.0,1.0
51.16,17.0,1.0,1.0,1.0
51.17,15.0,1.0,1.0,1.0
51.18,23.0,1.0,1.0,1.0
51.19,21.0,1.0,1.0,1.0
51.2,16.0,1.0,1.0,1.0
51.21,29.0,1.0,1.0,1.0
51.22,14.4944,1.0,1.0,1.0
51.23,12.0,1.0,1.0,1.0
51.24,14.4944,1.0,1.0,1.0
51.25,5.0111,1.0,1.0,1.0
51.26,15.0,1.0,1.0,1.0
51.27,16.0,1.0,1.0,1.0
51.28,22.0,1.0,1.0,1.0
51.29,13.0,1.0,1.0,1.0
51.3,21.0,1.0,1.0,1.0
51.31,15.4944,1.0,1.0,1.0
51.32,20.5056,1.0,1.0,1.0
51.33,13.0,1.0,1.0,1.0
51.34,15.4944,1.0,1.0,1.0
51.35,15.5056,1.0,1.0,1.0
51.36,13.0,1.0,1.0,1.0
51.37,12.4944,1.0,1.0,1.0
51.38,23.5056,1.0,1.0,1.0
51.39,15.4944,1.0,1.0,1.0
51.4,25.5056,1.0,1.0,1.0
51.41,9.0,1.0,1.0,1.0
51.42,11.0,1.0,1.0,1.0
51.43,20.0,1.0,1.0,1.0
51.44,24.0,1.0,1.0,1.0
51.45,16.0,1.0,1.0,1.0
51.46,3.0,1.0,1.0,1.0
51.47,14.9889,1.0,1.0,1.0
51.48,6.5056,1.0,1.0,1.0
51.49,16.5056,1.0,1.0,1.0
51.5,12.0,1.0,1.0,1.0
51.51,16.0,1.0,1.0,1.0
51.52,24.0,1.0,1.0,1.0
51.53,16.0,1.0,1.0,1.0
51.54,16.0,1.0,1.0,1.0
51.55,27.0,1.0,1.0,1.0
51.56,9.0,1.0,1.0,1.0
51.57,9.4944,1.0,1.0,1.0
51.58,8.5056,1.0,1.0,1.0
51.59,18.4944,1.0,1.0,1.0
51.6,12.5056,1.0,1.0,1.0
51.61,17.0,1.0,1.0,1.0
51.62,16.0,1.0,1.0,1.0
51.63,5.0,1.0,1.0,1.0
51.64,17.4944,1.0,1.0,1.0
51.65,13.5056,1.0,1.0,1.0
51.66,19.4944,1.0,1.0,1.0
51.67,23.5056,1.0,1.0,1.0
51.68,16.0,1.0,1.0,1.0
51.69,20.0,1.0,1.0,1.0
51.7,18.0,1.0,1.0,1.0
51.71,15.0,1.0,1.0,1.0
51.72,17.0,1.0,1.0,1.0
51.73,20.0,1.0,1.0,1.0
51.74,20.0,1.0,1.0,1.0
51.75,15.4944,1.0,1.0,1.0
51.76,31.5056,1.0,1.0,1.0
51.77,13.0,1.0,1.0,1.0
51.78,9.0,1.0,1.0,1.0
51.79,10.0,1.0,1.0,1.0
51.8,25.4944,1.0,1.0,1.0
51.81,11.5056,1.0,1.0,1.0
51.82,16.0,1.0,1.0,1.0
51.83,26.4944,1.0,1.0,1.0
51.84,9.4944,1.0,1.0,1.0
51.85,11.0111,1.0,1.0,1.0
51.86,15.0,1.0,1.0,1.0
51.87,10.0,1.0,1.0,1.0
51.88,16.0,1.0,1.0,1.0
51.89,16.0,1.0,1.0,1.0
51.9,11.0,1.0,1.0,1.0
51.91,12.0,1.0,1.0,1.0
51.92,20.4944,1.0,1.0,1.0
51.93,18.5056,1.0,1.0,1.0
51.94,7.0,1.0,1.0,1.0
51.95,10.0,1.0,1.0,1.0
51.96,9.0,1.0,1.0,1.0
51.97,22.4944,1.0,1.0,1.0
51.98,17.5056,1.0,1.0,1.0
51.99,17.0,1.0,1.0,1.0
52.0,20.0,1.0,1.0,1.0