File: XRD:XRR/SCO/22170_SL(CO)L/22170_SL(CO)L_002_XRD.csv
#twotheta, yobs, ycal, bkg, diff
42.0,60.0,1.0,1.0,1.0
42.01,67.0111,1.0,1.0,1.0
42.02,68.4944,1.0,1.0,1.0
42.03,74.0,1.0,1.0,1.0
42.04,65.4833,1.0,1.0,1.0
42.05,61.0222,1.0,1.0,1.0
42.06,73.0,1.0,1.0,1.0
42.07,58.9889,1.0,1.0,1.0
42.08,77.0,1.0,1.0,1.0
42.09,41.0111,1.0,1.0,1.0
42.1,68.0,1.0,1.0,1.0
42.11,61.0,1.0,1.0,1.0
42.12,55.0,1.0,1.0,1.0
42.13,64.4944,1.0,1.0,1.0
42.14,50.0,1.0,1.0,1.0
42.15,66.0,1.0,1.0,1.0
42.16,39.5056,1.0,1.0,1.0
42.17,68.0,1.0,1.0,1.0
42.18,64.9889,1.0,1.0,1.0
42.19,62.0111,1.0,1.0,1.0
42.2,74.0,1.0,1.0,1.0
42.21,79.4944,1.0,1.0,1.0
42.22,64.4944,1.0,1.0,1.0
42.23,71.5056,1.0,1.0,1.0
42.24,50.0,1.0,1.0,1.0
42.25,63.5056,1.0,1.0,1.0
42.26,51.9778,1.0,1.0,1.0
42.27,52.0222,1.0,1.0,1.0
42.28,55.9889,1.0,1.0,1.0
42.29,72.5056,1.0,1.0,1.0
42.3,58.0,1.0,1.0,1.0
42.31,42.4944,1.0,1.0,1.0
42.32,73.4833,1.0,1.0,1.0
42.33,68.5278,1.0,1.0,1.0
42.34,59.4944,1.0,1.0,1.0
42.35,67.0,1.0,1.0,1.0
42.36,78.5056,1.0,1.0,1.0
42.37,64.0,1.0,1.0,1.0
42.38,66.4944,1.0,1.0,1.0
42.39,60.0,1.0,1.0,1.0
42.4,57.5056,1.0,1.0,1.0
42.41,49.4944,1.0,1.0,1.0
42.42,63.5056,1.0,1.0,1.0
42.43,77.0,1.0,1.0,1.0
42.44,68.9778,1.0,1.0,1.0
42.45,62.5167,1.0,1.0,1.0
42.46,79.4944,1.0,1.0,1.0
42.47,55.0111,1.0,1.0,1.0
42.48,74.0,1.0,1.0,1.0
42.49,71.4944,1.0,1.0,1.0
42.5,61.5056,1.0,1.0,1.0
42.51,62.0,1.0,1.0,1.0
42.52,76.4944,1.0,1.0,1.0
42.53,80.9889,1.0,1.0,1.0
42.54,60.0111,1.0,1.0,1.0
42.55,63.0,1.0,1.0,1.0
42.56,57.0,1.0,1.0,1.0
42.57,61.9889,1.0,1.0,1.0
42.58,91.5167,1.0,1.0,1.0
42.59,54.4944,1.0,1.0,1.0
42.6,63.5056,1.0,1.0,1.0
42.61,78.4944,1.0,1.0,1.0
42.62,76.0,1.0,1.0,1.0
42.63,55.4944,1.0,1.0,1.0
42.64,76.5056,1.0,1.0,1.0
42.65,68.0,1.0,1.0,1.0
42.66,78.5056,1.0,1.0,1.0
42.67,70.9889,1.0,1.0,1.0
42.68,61.5056,1.0,1.0,1.0
42.69,75.0,1.0,1.0,1.0
42.7,65.0,1.0,1.0,1.0
42.71,68.4833,1.0,1.0,1.0
42.72,74.0,1.0,1.0,1.0
42.73,91.0111,1.0,1.0,1.0
42.74,70.5056,1.0,1.0,1.0
42.75,69.0,1.0,1.0,1.0
42.76,86.9889,1.0,1.0,1.0
42.77,64.5056,1.0,1.0,1.0
42.78,82.4944,1.0,1.0,1.0
42.79,52.0111,1.0,1.0,1.0
42.8,70.5056,1.0,1.0,1.0
42.81,65.9889,1.0,1.0,1.0
42.82,75.5056,1.0,1.0,1.0
42.83,60.0,1.0,1.0,1.0
42.84,78.0,1.0,1.0,1.0
42.85,67.9889,1.0,1.0,1.0
42.86,84.0111,1.0,1.0,1.0
42.87,73.5056,1.0,1.0,1.0
42.88,62.4944,1.0,1.0,1.0
42.89,67.4833,1.0,1.0,1.0
42.9,101.5167,1.0,1.0,1.0
42.91,69.4944,1.0,1.0,1.0
42.92,70.0111,1.0,1.0,1.0
42.93,78.9889,1.0,1.0,1.0
42.94,80.5056,1.0,1.0,1.0
42.95,82.4944,1.0,1.0,1.0
42.96,70.0111,1.0,1.0,1.0
42.97,86.9889,1.0,1.0,1.0
42.98,78.0111,1.0,1.0,1.0
42.99,71.0,1.0,1.0,1.0
43.0,52.4944,1.0,1.0,1.0
43.01,68.4944,1.0,1.0,1.0
43.02,91.0,1.0,1.0,1.0
43.03,75.5056,1.0,1.0,1.0
43.04,62.4833,1.0,1.0,1.0
43.05,93.5167,1.0,1.0,1.0
43.06,81.5056,1.0,1.0,1.0
43.07,73.4944,1.0,1.0,1.0
43.08,73.0,1.0,1.0,1.0
43.09,75.0,1.0,1.0,1.0
43.1,77.9778,1.0,1.0,1.0
43.11,62.0111,1.0,1.0,1.0
43.12,98.0,1.0,1.0,1.0
43.13,68.5167,1.0,1.0,1.0
43.14,61.4833,1.0,1.0,1.0
43.15,70.5167,1.0,1.0,1.0
43.16,78.0,1.0,1.0,1.0
43.17,78.4944,1.0,1.0,1.0
43.18,80.0,1.0,1.0,1.0
43.19,76.4833,1.0,1.0,1.0
43.2,73.5056,1.0,1.0,1.0
43.21,74.4944,1.0,1.0,1.0
43.22,67.5056,1.0,1.0,1.0
43.23,42.5167,1.0,1.0,1.0
43.24,72.0,1.0,1.0,1.0
43.25,69.9889,1.0,1.0,1.0
43.26,87.5056,1.0,1.0,1.0
43.27,71.4944,1.0,1.0,1.0
43.28,82.0111,1.0,1.0,1.0
43.29,80.4833,1.0,1.0,1.0
43.3,54.5167,1.0,1.0,1.0
43.31,73.9889,1.0,1.0,1.0
43.32,75.0111,1.0,1.0,1.0
43.33,85.4833,1.0,1.0,1.0
43.34,86.5056,1.0,1.0,1.0
43.35,64.4944,1.0,1.0,1.0
43.36,80.4944,1.0,1.0,1.0
43.37,78.0111,1.0,1.0,1.0
43.38,71.0111,1.0,1.0,1.0
43.39,77.0,1.0,1.0,1.0
43.4,61.4944,1.0,1.0,1.0
43.41,70.0,1.0,1.0,1.0
43.42,68.5056,1.0,1.0,1.0
43.43,66.9889,1.0,1.0,1.0
43.44,74.5056,1.0,1.0,1.0
43.45,93.5056,1.0,1.0,1.0
43.46,75.0,1.0,1.0,1.0
43.47,65.0,1.0,1.0,1.0
43.48,74.9889,1.0,1.0,1.0
43.49,64.5056,1.0,1.0,1.0
43.5,68.5056,1.0,1.0,1.0
43.51,77.9889,1.0,1.0,1.0
43.52,83.0,1.0,1.0,1.0
43.53,83.0,1.0,1.0,1.0
43.54,105.0,1.0,1.0,1.0
43.55,88.4833,1.0,1.0,1.0
43.56,94.5278,1.0,1.0,1.0
43.57,92.0,1.0,1.0,1.0
43.58,80.9889,1.0,1.0,1.0
43.59,80.5056,1.0,1.0,1.0
43.6,84.0,1.0,1.0,1.0
43.61,73.0,1.0,1.0,1.0
43.62,86.5056,1.0,1.0,1.0
43.63,72.4944,1.0,1.0,1.0
43.64,72.4944,1.0,1.0,1.0
43.65,59.4944,1.0,1.0,1.0
43.66,87.0,1.0,1.0,1.0
43.67,77.5056,1.0,1.0,1.0
43.68,102.5056,1.0,1.0,1.0
43.69,107.4722,1.0,1.0,1.0
43.7,67.5167,1.0,1.0,1.0
43.71,76.0111,1.0,1.0,1.0
43.72,92.5056,1.0,1.0,1.0
43.73,86.0,1.0,1.0,1.0
43.74,101.9778,1.0,1.0,1.0
43.75,104.0222,1.0,1.0,1.0
43.76,102.9889,1.0,1.0,1.0
43.77,97.4944,1.0,1.0,1.0
43.78,83.0,1.0,1.0,1.0
43.79,105.0,1.0,1.0,1.0
43.8,98.5167,1.0,1.0,1.0
43.81,106.4722,1.0,1.0,1.0
43.82,125.0,1.0,1.0,1.0
43.83,93.5167,1.0,1.0,1.0
43.84,95.0111,1.0,1.0,1.0
43.85,114.9889,1.0,1.0,1.0
43.86,100.4833,1.0,1.0,1.0
43.87,121.0222,1.0,1.0,1.0
43.88,84.0,1.0,1.0,1.0
43.89,104.4833,1.0,1.0,1.0
43.9,121.5167,1.0,1.0,1.0
43.91,78.0,1.0,1.0,1.0
43.92,109.9889,1.0,1.0,1.0
43.93,94.0,1.0,1.0,1.0
43.94,86.0111,1.0,1.0,1.0
43.95,108.0,1.0,1.0,1.0
43.96,107.4944,1.0,1.0,1.0
43.97,86.9889,1.0,1.0,1.0
43.98,86.0111,1.0,1.0,1.0
43.99,121.5056,1.0,1.0,1.0
44.0,127.0,1.0,1.0,1.0
44.01,87.5056,1.0,1.0,1.0
44.02,109.0,1.0,1.0,1.0
44.03,86.0,1.0,1.0,1.0
44.04,93.0,1.0,1.0,1.0
44.05,94.0,1.0,1.0,1.0
44.06,128.9778,1.0,1.0,1.0
44.07,102.5167,1.0,1.0,1.0
44.08,117.4833,1.0,1.0,1.0
44.09,100.0111,1.0,1.0,1.0
44.1,119.5056,1.0,1.0,1.0
44.11,99.0,1.0,1.0,1.0
44.12,99.9889,1.0,1.0,1.0
44.13,128.5056,1.0,1.0,1.0
44.14,112.0111,1.0,1.0,1.0
44.15,152.9778,1.0,1.0,1.0
44.16,108.0111,1.0,1.0,1.0
44.17,100.4833,1.0,1.0,1.0
44.18,138.0111,1.0,1.0,1.0
44.19,147.4944,1.0,1.0,1.0
44.2,130.5167,1.0,1.0,1.0
44.21,126.4944,1.0,1.0,1.0
44.22,130.9778,1.0,1.0,1.0
44.23,142.0111,1.0,1.0,1.0
44.24,136.0111,1.0,1.0,1.0
44.25,130.5056,1.0,1.0,1.0
44.26,128.4944,1.0,1.0,1.0
44.27,146.4944,1.0,1.0,1.0
44.28,148.0,1.0,1.0,1.0
44.29,150.4944,1.0,1.0,1.0
44.3,138.9889,1.0,1.0,1.0
44.31,157.0222,1.0,1.0,1.0
44.32,129.4944,1.0,1.0,1.0
44.33,150.0111,1.0,1.0,1.0
44.34,207.9889,1.0,1.0,1.0
44.35,131.4944,1.0,1.0,1.0
44.36,121.5167,1.0,1.0,1.0
44.37,136.9778,1.0,1.0,1.0
44.38,137.5167,1.0,1.0,1.0
44.39,144.4944,1.0,1.0,1.0
44.4,140.4944,1.0,1.0,1.0
44.41,143.0,1.0,1.0,1.0
44.42,153.5167,1.0,1.0,1.0
44.43,115.4944,1.0,1.0,1.0
44.44,127.9889,1.0,1.0,1.0
44.45,128.5056,1.0,1.0,1.0
44.46,141.9889,1.0,1.0,1.0
44.47,138.0,1.0,1.0,1.0
44.48,135.5167,1.0,1.0,1.0
44.49,138.4944,1.0,1.0,1.0
44.5,117.5056,1.0,1.0,1.0
44.51,143.9889,1.0,1.0,1.0
44.52,142.4944,1.0,1.0,1.0
44.53,95.5278,1.0,1.0,1.0
44.54,134.4944,1.0,1.0,1.0
44.55,120.9778,1.0,1.0,1.0
44.56,137.5167,1.0,1.0,1.0
44.57,111.0111,1.0,1.0,1.0
44.58,96.0,1.0,1.0,1.0
44.59,116.4833,1.0,1.0,1.0
44.6,129.0111,1.0,1.0,1.0
44.61,163.4944,1.0,1.0,1.0
44.62,90.0,1.0,1.0,1.0
44.63,132.5056,1.0,1.0,1.0
44.64,142.9889,1.0,1.0,1.0
44.65,139.5056,1.0,1.0,1.0
44.66,132.4944,1.0,1.0,1.0
44.67,139.0111,1.0,1.0,1.0
44.68,161.4833,1.0,1.0,1.0
44.69,134.0,1.0,1.0,1.0
44.7,175.4944,1.0,1.0,1.0
44.71,148.0222,1.0,1.0,1.0
44.72,130.9667,1.0,1.0,1.0
44.73,154.0222,1.0,1.0,1.0
44.74,170.0111,1.0,1.0,1.0
44.75,186.4611,1.0,1.0,1.0
44.76,179.0111,1.0,1.0,1.0
44.77,177.0,1.0,1.0,1.0
44.78,209.0111,1.0,1.0,1.0
44.79,157.0111,1.0,1.0,1.0
44.8,212.9889,1.0,1.0,1.0
44.81,191.0,1.0,1.0,1.0
44.82,237.4833,1.0,1.0,1.0
44.83,184.5278,1.0,1.0,1.0
44.84,239.9889,1.0,1.0,1.0
44.85,224.4944,1.0,1.0,1.0
44.86,216.4833,1.0,1.0,1.0
44.87,278.5056,1.0,1.0,1.0
44.88,252.5278,1.0,1.0,1.0
44.89,244.9889,1.0,1.0,1.0
44.9,257.4944,1.0,1.0,1.0
44.91,254.0111,1.0,1.0,1.0
44.92,229.0111,1.0,1.0,1.0
44.93,269.9778,1.0,1.0,1.0
44.94,295.4944,1.0,1.0,1.0
44.95,284.4944,1.0,1.0,1.0
44.96,285.0333,1.0,1.0,1.0
44.97,374.45,1.0,1.0,1.0
44.98,321.0333,1.0,1.0,1.0
44.99,321.5056,1.0,1.0,1.0
45.0,383.4722,1.0,1.0,1.0
45.01,411.9667,1.0,1.0,1.0
45.02,401.55,1.0,1.0,1.0
45.03,438.5056,1.0,1.0,1.0
45.04,471.9556,1.0,1.0,1.0
45.05,459.4944,1.0,1.0,1.0
45.06,538.0111,1.0,1.0,1.0
45.07,546.5056,1.0,1.0,1.0
45.08,545.4833,1.0,1.0,1.0
45.09,545.0222,1.0,1.0,1.0
45.1,584.4944,1.0,1.0,1.0
45.11,656.4722,1.0,1.0,1.0
45.12,648.4833,1.0,1.0,1.0
45.13,791.0333,1.0,1.0,1.0
45.14,820.45,1.0,1.0,1.0
45.15,869.9889,1.0,1.0,1.0
45.16,906.0,1.0,1.0,1.0
45.17,929.5167,1.0,1.0,1.0
45.18,951.5278,1.0,1.0,1.0
45.19,987.9778,1.0,1.0,1.0
45.2,978.0,1.0,1.0,1.0
45.21,1146.96,1.0,1.0,1.0
45.22,1177.04,1.0,1.0,1.0
45.23,1153.55,1.0,1.0,1.0
45.24,1298.38,1.0,1.0,1.0
45.25,1311.01,1.0,1.0,1.0
45.26,1427.03,1.0,1.0,1.0
45.27,1289.97,1.0,1.0,1.0
45.28,1462.48,1.0,1.0,1.0
45.29,1466.03,1.0,1.0,1.0
45.3,1452.96,1.0,1.0,1.0
45.31,1516.04,1.0,1.0,1.0
45.32,1474.47,1.0,1.0,1.0
45.33,1558.97,1.0,1.0,1.0
45.34,1600.0,1.0,1.0,1.0
45.35,1612.03,1.0,1.0,1.0
45.36,1575.98,1.0,1.0,1.0
45.37,1711.04,1.0,1.0,1.0
45.38,1618.99,1.0,1.0,1.0
45.39,1689.47,1.0,1.0,1.0
45.4,1694.49,1.0,1.0,1.0
45.41,1655.0,1.0,1.0,1.0
45.42,1649.96,1.0,1.0,1.0
45.43,1776.01,1.0,1.0,1.0
45.44,1832.51,1.0,1.0,1.0
45.45,1883.94,1.0,1.0,1.0
45.46,2042.57,1.0,1.0,1.0
45.47,1924.52,1.0,1.0,1.0
45.48,2025.96,1.0,1.0,1.0
45.49,2084.48,1.0,1.0,1.0
45.5,2086.0,1.0,1.0,1.0
45.51,2256.53,1.0,1.0,1.0
45.52,2382.47,1.0,1.0,1.0
45.53,2426.91,1.0,1.0,1.0
45.54,2547.52,1.0,1.0,1.0
45.55,2843.1,1.0,1.0,1.0
45.56,2980.41,1.0,1.0,1.0
45.57,3159.45,1.0,1.0,1.0
45.58,3241.16,1.0,1.0,1.0
45.59,3474.28,1.0,1.0,1.0
45.6,3843.0,1.0,1.0,1.0
45.61,3973.439,1.0,1.0,1.0
45.62,4227.54,1.0,1.0,1.0
45.63,4478.36,1.0,1.0,1.0
45.64,4868.02,1.0,1.0,1.0
45.65,5258.97,1.0,1.0,1.0
45.66,5726.45,1.0,1.0,1.0
45.67,6043.47,1.0,1.0,1.0
45.68,6302.51,1.0,1.0,1.0
45.69,6827.41,1.0,1.0,1.0
45.7,7206.9,1.0,1.0,1.0
45.71,7695.9,1.0,1.0,1.0
45.72,8208.03,1.0,1.0,1.0
45.73,8749.02,1.0,1.0,1.0
45.74,9215.34,1.0,1.0,1.0
45.75,9876.81,1.0,1.0,1.0
45.76,10471.7,1.0,1.0,1.0
45.77,11009.4,1.0,1.0,1.0
45.78,11354.9,1.0,1.0,1.0
45.79,11945.4,1.0,1.0,1.0
45.8,12762.8,1.0,1.0,1.0
45.81,13159.7,1.0,1.0,1.0
45.82,13796.4,1.0,1.0,1.0
45.83,13815.9,1.0,1.0,1.0
45.84,14493.2,1.0,1.0,1.0
45.85,14978,1.0,1.0,1.0
45.86,15522.1,1.0,1.0,1.0
45.87,15683,1.0,1.0,1.0
45.88,16029.5,1.0,1.0,1.0
45.89,16410.4,1.0,1.0,1.0
45.9,16571.166,1.0,1.0,1.0
45.91,16790.2,1.0,1.0,1.0
45.92,17157.1,1.0,1.0,1.0
45.93,16907.9,1.0,1.0,1.0
45.94,17598,1.0,1.0,1.0
45.95,17454.7,1.0,1.0,1.0
45.96,17737.5,1.0,1.0,1.0
45.97,17455.416,1.0,1.0,1.0
45.98,17636.2,1.0,1.0,1.0
45.99,17945.8,1.0,1.0,1.0
46.0,17815.1,1.0,1.0,1.0
46.01,17759.877,1.0,1.0,1.0
46.02,17772.4,1.0,1.0,1.0
46.03,17986.1,1.0,1.0,1.0
46.04,17718.6,1.0,1.0,1.0
46.05,17928.6,1.0,1.0,1.0
46.06,17939.3,1.0,1.0,1.0
46.07,17959.2,1.0,1.0,1.0
46.08,17338.3,1.0,1.0,1.0
46.09,17770.1,1.0,1.0,1.0
46.1,17521.2,1.0,1.0,1.0
46.11,17360.6,1.0,1.0,1.0
46.12,17001.6,1.0,1.0,1.0
46.13,16786.584,1.0,1.0,1.0
46.14,16693.1,1.0,1.0,1.0
46.15,16033.833,1.0,1.0,1.0
46.16,16060.3,1.0,1.0,1.0
46.17,15487.0,1.0,1.0,1.0
46.18,15047.5,1.0,1.0,1.0
46.19,14489.1,1.0,1.0,1.0
46.2,14061.9,1.0,1.0,1.0
46.21,13635.7,1.0,1.0,1.0
46.22,13058.5,1.0,1.0,1.0
46.23,12832.1,1.0,1.0,1.0
46.24,12135.5,1.0,1.0,1.0
46.25,11408.8,1.0,1.0,1.0
46.26,11033.9,1.0,1.0,1.0
46.27,10463.3,1.0,1.0,1.0
46.28,9583.1,1.0,1.0,1.0
46.29,9513.97,1.0,1.0,1.0
46.3,9104.93,1.0,1.0,1.0
46.31,8725.65,1.0,1.0,1.0
46.32,8128.99,1.0,1.0,1.0
46.33,7899.57,1.0,1.0,1.0
46.34,7573.67,1.0,1.0,1.0
46.35,7167.439,1.0,1.0,1.0
46.36,7091.47,1.0,1.0,1.0
46.37,6788.08,1.0,1.0,1.0
46.38,6800.49,1.0,1.0,1.0
46.39,6517.45,1.0,1.0,1.0
46.4,6620.65,1.0,1.0,1.0
46.41,6519.43,1.0,1.0,1.0
46.42,6496.01,1.0,1.0,1.0
46.43,6694.92,1.0,1.0,1.0
46.44,6729.94,1.0,1.0,1.0
46.45,6900.12,1.0,1.0,1.0
46.46,6936.89,1.0,1.0,1.0
46.47,7192.43,1.0,1.0,1.0
46.48,7330.1,1.0,1.0,1.0
46.49,7543.32,1.0,1.0,1.0
46.5,7784.06,1.0,1.0,1.0
46.51,7872.08,1.0,1.0,1.0
46.52,8200.94,1.0,1.0,1.0
46.53,8376.39,1.0,1.0,1.0
46.54,8568.56,1.0,1.0,1.0
46.55,8599.91,1.0,1.0,1.0
46.56,8594.02,1.0,1.0,1.0
46.57,8832.46,1.0,1.0,1.0
46.58,8838.09,1.0,1.0,1.0
46.59,8761.91,1.0,1.0,1.0
46.6,8691.167,1.0,1.0,1.0
46.61,8740.49,1.0,1.0,1.0
46.62,8583.92,1.0,1.0,1.0
46.63,8522.51,1.0,1.0,1.0
46.64,8164.59,1.0,1.0,1.0
46.65,8138.48,1.0,1.0,1.0
46.66,7960.03,1.0,1.0,1.0
46.67,7816.99,1.0,1.0,1.0
46.68,7555.97,1.0,1.0,1.0
46.69,7514.55,1.0,1.0,1.0
46.7,7117.94,1.0,1.0,1.0
46.71,6915.54,1.0,1.0,1.0
46.72,6615.08,1.0,1.0,1.0
46.73,6330.64,1.0,1.0,1.0
46.74,6344.33,1.0,1.0,1.0
46.75,6027.67,1.0,1.0,1.0
46.76,5913.97,1.0,1.0,1.0
46.77,5603.1,1.0,1.0,1.0
46.78,5461.93,1.0,1.0,1.0
46.79,5387.98,1.0,1.0,1.0
46.8,5053.11,1.0,1.0,1.0
46.81,4817.561,1.0,1.0,1.0
46.82,4603.51,1.0,1.0,1.0
46.83,4431.48,1.0,1.0,1.0
46.84,4173.48,1.0,1.0,1.0
46.85,3962.98,1.0,1.0,1.0
46.86,3891.13,1.0,1.0,1.0
46.87,3717.49,1.0,1.0,1.0
46.88,3488.57,1.0,1.0,1.0
46.89,3268.35,1.0,1.0,1.0
46.9,3220.62,1.0,1.0,1.0
46.91,2900.01,1.0,1.0,1.0
46.92,2863.53,1.0,1.0,1.0
46.93,2714.45,1.0,1.0,1.0
46.94,2632.09,1.0,1.0,1.0
46.95,2643.07,1.0,1.0,1.0
46.96,2388.45,1.0,1.0,1.0
46.97,2362.93,1.0,1.0,1.0
46.98,2305.99,1.0,1.0,1.0
46.99,2244.06,1.0,1.0,1.0
47.0,2093.54,1.0,1.0,1.0
47.01,2138.48,1.0,1.0,1.0
47.02,2087.98,1.0,1.0,1.0
47.03,1932.58,1.0,1.0,1.0
47.04,1942.94,1.0,1.0,1.0
47.05,1852.51,1.0,1.0,1.0
47.06,1809.03,1.0,1.0,1.0
47.07,1874.51,1.0,1.0,1.0
47.08,1694.0,1.0,1.0,1.0
47.09,1701.45,1.0,1.0,1.0
47.1,1707.57,1.0,1.0,1.0
47.11,1617.49,1.0,1.0,1.0
47.12,1609.04,1.0,1.0,1.0
47.13,1548.0,1.0,1.0,1.0
47.14,1423.48,1.0,1.0,1.0
47.15,1434.53,1.0,1.0,1.0
47.16,1447.01,1.0,1.0,1.0
47.17,1418.98,1.0,1.0,1.0
47.18,1328.02,1.0,1.0,1.0
47.19,1460.93,1.0,1.0,1.0
47.2,1459.99,1.0,1.0,1.0
47.21,1391.03,1.0,1.0,1.0
47.22,1438.52,1.0,1.0,1.0
47.23,1452.98,1.0,1.0,1.0
47.24,1523.03,1.0,1.0,1.0
47.25,1485.44,1.0,1.0,1.0
47.26,1651.44,1.0,1.0,1.0
47.27,1680.09,1.0,1.0,1.0
47.28,1796.94,1.0,1.0,1.0
47.29,1830.48,1.0,1.0,1.0
47.3,2019.02,1.0,1.0,1.0
47.31,2034.49,1.0,1.0,1.0
47.32,2080.48,1.0,1.0,1.0
47.33,2262.96,1.0,1.0,1.0
47.34,2334.99,1.0,1.0,1.0
47.35,2426.51,1.0,1.0,1.0
47.36,2556.52,1.0,1.0,1.0
47.37,2570.42,1.0,1.0,1.0
47.38,2631.52,1.0,1.0,1.0
47.39,2747.561,1.0,1.0,1.0
47.4,2809.45,1.0,1.0,1.0
47.41,2802.47,1.0,1.0,1.0
47.42,2833.51,1.0,1.0,1.0
47.43,2913.98,1.0,1.0,1.0
47.44,2900.11,1.0,1.0,1.0
47.45,2922.439,1.0,1.0,1.0
47.46,2938.94,1.0,1.0,1.0
47.47,2976.02,1.0,1.0,1.0
47.48,2928.0,1.0,1.0,1.0
47.49,2878.98,1.0,1.0,1.0
47.5,2985.58,1.0,1.0,1.0
47.51,2978.49,1.0,1.0,1.0
47.52,3036.94,1.0,1.0,1.0
47.53,3037.51,1.0,1.0,1.0
47.54,3072.99,1.0,1.0,1.0
47.55,3024.561,1.0,1.0,1.0
47.56,3235.41,1.0,1.0,1.0
47.57,3325.01,1.0,1.0,1.0
47.58,3165.06,1.0,1.0,1.0
47.59,3322.49,1.0,1.0,1.0
47.6,3210.0,1.0,1.0,1.0
47.61,3323.46,1.0,1.0,1.0
47.62,3411.01,1.0,1.0,1.0
47.63,3455.96,1.0,1.0,1.0
47.64,3566.51,1.0,1.0,1.0
47.65,3565.54,1.0,1.0,1.0
47.66,3638.51,1.0,1.0,1.0
47.67,3668.42,1.0,1.0,1.0
47.68,3908.97,1.0,1.0,1.0
47.69,4064.03,1.0,1.0,1.0
47.7,4317.94,1.0,1.0,1.0
47.71,4387.92,1.0,1.0,1.0
47.72,4796.49,1.0,1.0,1.0
47.73,5026.49,1.0,1.0,1.0
47.74,5321.35,1.0,1.0,1.0
47.75,5930.93,1.0,1.0,1.0
47.76,6605.96,1.0,1.0,1.0
47.77,7277.82,1.0,1.0,1.0
47.78,8415.59,1.0,1.0,1.0
47.79,9646.84,1.0,1.0,1.0
47.8,11051.8,1.0,1.0,1.0
47.81,13020.3,1.0,1.0,1.0
47.82,15447.8,1.0,1.0,1.0
47.83,18966.5,1.0,1.0,1.0
47.84,23152.334,1.0,1.0,1.0
47.85,28709.377,1.0,1.0,1.0
47.86,36122.25,1.0,1.0,1.0
47.87,46352.9,1.0,1.0,1.0
47.88,60260.4,1.0,1.0,1.0
47.89,79632.3,1.0,1.0,1.0
47.9,121391,1.0,1.0,1.0
47.91,207100,1.0,1.0,1.0
47.92,305640,1.0,1.0,1.0
47.93,461324,1.0,1.0,1.0
47.94,647806.875,1.0,1.0,1.0
47.95,823478,1.0,1.0,1.0
47.96,1099223.625,1.0,1.0,1.0
47.97,1586534.375,1.0,1.0,1.0
47.98,2561911.25,1.0,1.0,1.0
47.99,5896777.0,1.0,1.0,1.0
48.0,11748200.0,1.0,1.0,1.0
48.01,17444562.0,1.0,1.0,1.0
48.02,10600177.0,1.0,1.0,1.0
48.03,4075256.25,1.0,1.0,1.0
48.04,2527615.5,1.0,1.0,1.0
48.05,1928857.0,1.0,1.0,1.0
48.06,1730353.75,1.0,1.0,1.0
48.07,1554232.375,1.0,1.0,1.0
48.08,1337746.125,1.0,1.0,1.0
48.09,922183,1.0,1.0,1.0
48.1,497313,1.0,1.0,1.0
48.11,189882,1.0,1.0,1.0
48.12,79379.4,1.0,1.0,1.0
48.13,45362.6,1.0,1.0,1.0
48.14,30202.9,1.0,1.0,1.0
48.15,21766.3,1.0,1.0,1.0
48.16,16526.4,1.0,1.0,1.0
48.17,12760.3,1.0,1.0,1.0
48.18,10446.6,1.0,1.0,1.0
48.19,8545.34,1.0,1.0,1.0
48.2,7383.65,1.0,1.0,1.0
48.21,6348.89,1.0,1.0,1.0
48.22,5492.59,1.0,1.0,1.0
48.23,4715.68,1.0,1.0,1.0
48.24,4361.47,1.0,1.0,1.0
48.25,3916.09,1.0,1.0,1.0
48.26,3441.98,1.0,1.0,1.0
48.27,3252.61,1.0,1.0,1.0
48.28,2960.99,1.0,1.0,1.0
48.29,2644.53,1.0,1.0,1.0
48.3,2405.02,1.0,1.0,1.0
48.31,2256.53,1.0,1.0,1.0
48.32,2029.54,1.0,1.0,1.0
48.33,1959.53,1.0,1.0,1.0
48.34,1736.02,1.0,1.0,1.0
48.35,1601.49,1.0,1.0,1.0
48.36,1533.96,1.0,1.0,1.0
48.37,1419.58,1.0,1.0,1.0
48.38,1317.01,1.0,1.0,1.0
48.39,1227.99,1.0,1.0,1.0
48.4,1169.98,1.0,1.0,1.0
48.41,1046.52,1.0,1.0,1.0
48.42,1011.52,1.0,1.0,1.0
48.43,942.0222,1.0,1.0,1.0
48.44,934.4833,1.0,1.0,1.0
48.45,912.0,1.0,1.0,1.0
48.46,876.0111,1.0,1.0,1.0
48.47,873.5278,1.0,1.0,1.0
48.48,729.9889,1.0,1.0,1.0
48.49,781.5167,1.0,1.0,1.0
48.5,697.9778,1.0,1.0,1.0
48.51,651.5167,1.0,1.0,1.0
48.52,644.5056,1.0,1.0,1.0
48.53,623.4611,1.0,1.0,1.0
48.54,619.5167,1.0,1.0,1.0
48.55,565.5056,1.0,1.0,1.0
48.56,547.5056,1.0,1.0,1.0
48.57,538.0111,1.0,1.0,1.0
48.58,493.5056,1.0,1.0,1.0
48.59,453.0,1.0,1.0,1.0
48.6,441.4722,1.0,1.0,1.0
48.61,470.0444,1.0,1.0,1.0
48.62,408.9889,1.0,1.0,1.0
48.63,438.9667,1.0,1.0,1.0
48.64,401.5278,1.0,1.0,1.0
48.65,426.0222,1.0,1.0,1.0
48.66,334.9889,1.0,1.0,1.0
48.67,374.0111,1.0,1.0,1.0
48.68,321.9667,1.0,1.0,1.0
48.69,333.5389,1.0,1.0,1.0
48.7,299.9667,1.0,1.0,1.0
48.71,341.0111,1.0,1.0,1.0
48.72,346.0111,1.0,1.0,1.0
48.73,332.4833,1.0,1.0,1.0
48.74,291.5056,1.0,1.0,1.0
48.75,352.0111,1.0,1.0,1.0
48.76,349.9667,1.0,1.0,1.0
48.77,325.0222,1.0,1.0,1.0
48.78,351.5167,1.0,1.0,1.0
48.79,289.9778,1.0,1.0,1.0
48.8,318.0,1.0,1.0,1.0
48.81,327.4944,1.0,1.0,1.0
48.82,322.0111,1.0,1.0,1.0
48.83,348.5056,1.0,1.0,1.0
48.84,283.9889,1.0,1.0,1.0
48.85,291.0111,1.0,1.0,1.0
48.86,287.5056,1.0,1.0,1.0
48.87,303.5056,1.0,1.0,1.0
48.88,279.5056,1.0,1.0,1.0
48.89,300.4722,1.0,1.0,1.0
48.9,276.5167,1.0,1.0,1.0
48.91,297.0,1.0,1.0,1.0
48.92,269.9889,1.0,1.0,1.0
48.93,283.4722,1.0,1.0,1.0
48.94,269.0333,1.0,1.0,1.0
48.95,240.0222,1.0,1.0,1.0
48.96,271.9778,1.0,1.0,1.0
48.97,268.0222,1.0,1.0,1.0
48.98,230.4944,1.0,1.0,1.0
48.99,230.4944,1.0,1.0,1.0
49.0,224.0,1.0,1.0,1.0
49.01,195.0111,1.0,1.0,1.0
49.02,242.0,1.0,1.0,1.0
49.03,219.4611,1.0,1.0,1.0
49.04,198.0333,1.0,1.0,1.0
49.05,216.4833,1.0,1.0,1.0
49.06,211.0111,1.0,1.0,1.0
49.07,228.0,1.0,1.0,1.0
49.08,202.4944,1.0,1.0,1.0
49.09,151.5167,1.0,1.0,1.0
49.1,186.9889,1.0,1.0,1.0
49.11,149.0111,1.0,1.0,1.0
49.12,177.4944,1.0,1.0,1.0
49.13,135.9889,1.0,1.0,1.0
49.14,180.5167,1.0,1.0,1.0
49.15,154.5056,1.0,1.0,1.0
49.16,153.0,1.0,1.0,1.0
49.17,158.0111,1.0,1.0,1.0
49.18,166.4833,1.0,1.0,1.0
49.19,133.4944,1.0,1.0,1.0
49.2,139.4944,1.0,1.0,1.0
49.21,146.0,1.0,1.0,1.0
49.22,168.0222,1.0,1.0,1.0
49.23,135.0,1.0,1.0,1.0
49.24,135.4944,1.0,1.0,1.0
49.25,145.4722,1.0,1.0,1.0
49.26,148.0222,1.0,1.0,1.0
49.27,155.5056,1.0,1.0,1.0
49.28,113.5056,1.0,1.0,1.0
49.29,126.9889,1.0,1.0,1.0
49.3,125.5056,1.0,1.0,1.0
49.31,123.0111,1.0,1.0,1.0
49.32,139.4722,1.0,1.0,1.0
49.33,142.0222,1.0,1.0,1.0
49.34,98.0,1.0,1.0,1.0
49.35,145.5056,1.0,1.0,1.0
49.36,127.9778,1.0,1.0,1.0
49.37,124.0111,1.0,1.0,1.0
49.38,132.4944,1.0,1.0,1.0
49.39,121.0,1.0,1.0,1.0
49.4,119.4944,1.0,1.0,1.0
49.41,116.0111,1.0,1.0,1.0
49.42,113.0,1.0,1.0,1.0
49.43,103.0,1.0,1.0,1.0
49.44,98.9889,1.0,1.0,1.0
49.45,99.0111,1.0,1.0,1.0
49.46,107.9889,1.0,1.0,1.0
49.47,125.5056,1.0,1.0,1.0
49.48,96.0,1.0,1.0,1.0
49.49,103.5167,1.0,1.0,1.0
49.5,118.4833,1.0,1.0,1.0
49.51,96.9889,1.0,1.0,1.0
49.52,126.0111,1.0,1.0,1.0
49.53,101.0111,1.0,1.0,1.0
49.54,115.0,1.0,1.0,1.0
49.55,103.4944,1.0,1.0,1.0
49.56,87.4944,1.0,1.0,1.0
49.57,89.0111,1.0,1.0,1.0
49.58,82.4944,1.0,1.0,1.0
49.59,101.0,1.0,1.0,1.0
49.6,87.4833,1.0,1.0,1.0
49.61,96.0222,1.0,1.0,1.0
49.62,85.4944,1.0,1.0,1.0
49.63,95.5056,1.0,1.0,1.0
49.64,93.4944,1.0,1.0,1.0
49.65,99.5056,1.0,1.0,1.0
49.66,92.5056,1.0,1.0,1.0
49.67,103.9889,1.0,1.0,1.0
49.68,91.4833,1.0,1.0,1.0
49.69,104.5278,1.0,1.0,1.0
49.7,81.0,1.0,1.0,1.0
49.71,68.9889,1.0,1.0,1.0
49.72,101.4944,1.0,1.0,1.0
49.73,79.0111,1.0,1.0,1.0
49.74,64.5056,1.0,1.0,1.0
49.75,79.4944,1.0,1.0,1.0
49.76,84.5056,1.0,1.0,1.0
49.77,80.4944,1.0,1.0,1.0
49.78,73.4833,1.0,1.0,1.0
49.79,89.0222,1.0,1.0,1.0
49.8,89.4944,1.0,1.0,1.0
49.81,75.4944,1.0,1.0,1.0
49.82,90.5056,1.0,1.0,1.0
49.83,85.4944,1.0,1.0,1.0
49.84,69.4944,1.0,1.0,1.0
49.85,79.0111,1.0,1.0,1.0
49.86,79.0,1.0,1.0,1.0
49.87,62.4944,1.0,1.0,1.0
49.88,91.5056,1.0,1.0,1.0
49.89,80.4944,1.0,1.0,1.0
49.9,75.0111,1.0,1.0,1.0
49.91,82.9889,1.0,1.0,1.0
49.92,74.9889,1.0,1.0,1.0
49.93,68.0222,1.0,1.0,1.0
49.94,69.4944,1.0,1.0,1.0
49.95,68.5056,1.0,1.0,1.0
49.96,75.9889,1.0,1.0,1.0
49.97,69.0,1.0,1.0,1.0
49.98,66.5056,1.0,1.0,1.0
49.99,72.4944,1.0,1.0,1.0
50.0,86.0111,1.0,1.0,1.0
50.01,63.9889,1.0,1.0,1.0
50.02,65.5056,1.0,1.0,1.0
50.03,38.0,1.0,1.0,1.0
50.04,64.4944,1.0,1.0,1.0
50.05,64.0111,1.0,1.0,1.0
50.06,55.4944,1.0,1.0,1.0
50.07,52.4944,1.0,1.0,1.0
50.08,91.0111,1.0,1.0,1.0
50.09,62.0,1.0,1.0,1.0
50.1,49.9889,1.0,1.0,1.0
50.11,51.0,1.0,1.0,1.0
50.12,65.5056,1.0,1.0,1.0
50.13,63.4944,1.0,1.0,1.0
50.14,69.0111,1.0,1.0,1.0
50.15,65.9889,1.0,1.0,1.0
50.16,58.0111,1.0,1.0,1.0
50.17,63.9889,1.0,1.0,1.0
50.18,61.0111,1.0,1.0,1.0
50.19,78.0,1.0,1.0,1.0
50.2,39.0,1.0,1.0,1.0
50.21,64.0,1.0,1.0,1.0
50.22,61.4944,1.0,1.0,1.0
50.23,58.4944,1.0,1.0,1.0
50.24,60.5056,1.0,1.0,1.0
50.25,54.4833,1.0,1.0,1.0
50.26,68.5167,1.0,1.0,1.0
50.27,77.0,1.0,1.0,1.0
50.28,84.4944,1.0,1.0,1.0
50.29,55.5056,1.0,1.0,1.0
50.3,64.5056,1.0,1.0,1.0
50.31,82.4944,1.0,1.0,1.0
50.32,45.5056,1.0,1.0,1.0
50.33,44.9889,1.0,1.0,1.0
50.34,54.5056,1.0,1.0,1.0
50.35,62.5056,1.0,1.0,1.0
50.36,59.0,1.0,1.0,1.0
50.37,67.9778,1.0,1.0,1.0
50.38,49.5167,1.0,1.0,1.0
50.39,66.0,1.0,1.0,1.0
50.4,56.9889,1.0,1.0,1.0
50.41,67.5167,1.0,1.0,1.0
50.42,53.0,1.0,1.0,1.0
50.43,63.4833,1.0,1.0,1.0
50.44,55.5167,1.0,1.0,1.0
50.45,58.0,1.0,1.0,1.0
50.46,42.0,1.0,1.0,1.0
50.47,58.4833,1.0,1.0,1.0
50.48,62.5167,1.0,1.0,1.0
50.49,50.9889,1.0,1.0,1.0
50.5,78.5056,1.0,1.0,1.0
50.51,56.5056,1.0,1.0,1.0
50.52,52.4944,1.0,1.0,1.0
50.53,77.9889,1.0,1.0,1.0
50.54,50.4944,1.0,1.0,1.0
50.55,59.5167,1.0,1.0,1.0
50.56,68.9889,1.0,1.0,1.0
50.57,66.5167,1.0,1.0,1.0
50.58,61.0,1.0,1.0,1.0
50.59,59.0,1.0,1.0,1.0
50.6,67.0,1.0,1.0,1.0
50.61,57.0,1.0,1.0,1.0
50.62,45.9889,1.0,1.0,1.0
50.63,67.0,1.0,1.0,1.0
50.64,58.0111,1.0,1.0,1.0
50.65,54.9889,1.0,1.0,1.0
50.66,69.5056,1.0,1.0,1.0
50.67,69.4944,1.0,1.0,1.0
50.68,69.0111,1.0,1.0,1.0
50.69,69.0,1.0,1.0,1.0
50.7,78.4944,1.0,1.0,1.0
50.71,79.0,1.0,1.0,1.0
50.72,45.5056,1.0,1.0,1.0
50.73,67.4944,1.0,1.0,1.0
50.74,47.5056,1.0,1.0,1.0
50.75,34.4944,1.0,1.0,1.0
50.76,65.5056,1.0,1.0,1.0
50.77,58.9778,1.0,1.0,1.0
50.78,64.5167,1.0,1.0,1.0
50.79,54.9889,1.0,1.0,1.0
50.8,69.0111,1.0,1.0,1.0
50.81,77.0,1.0,1.0,1.0
50.82,57.4944,1.0,1.0,1.0
50.83,55.0111,1.0,1.0,1.0
50.84,55.0,1.0,1.0,1.0
50.85,53.9889,1.0,1.0,1.0
50.86,53.0,1.0,1.0,1.0
50.87,57.0,1.0,1.0,1.0
50.88,53.0,1.0,1.0,1.0
50.89,60.0111,1.0,1.0,1.0
50.9,68.0,1.0,1.0,1.0
50.91,59.9889,1.0,1.0,1.0
50.92,73.9889,1.0,1.0,1.0
50.93,61.5167,1.0,1.0,1.0
50.94,43.0,1.0,1.0,1.0
50.95,70.0,1.0,1.0,1.0
50.96,47.5056,1.0,1.0,1.0
50.97,51.4833,1.0,1.0,1.0
50.98,48.5056,1.0,1.0,1.0
50.99,51.0,1.0,1.0,1.0
51.0,54.0111,1.0,1.0,1.0
51.01,53.4944,1.0,1.0,1.0
51.02,65.4833,1.0,1.0,1.0
51.03,69.0222,1.0,1.0,1.0
51.04,56.0,1.0,1.0,1.0
51.05,54.4833,1.0,1.0,1.0
51.06,44.0111,1.0,1.0,1.0
51.07,62.4944,1.0,1.0,1.0
51.08,61.0111,1.0,1.0,1.0
51.09,51.9889,1.0,1.0,1.0
51.1,78.0111,1.0,1.0,1.0
51.11,48.4833,1.0,1.0,1.0
51.12,24.5167,1.0,1.0,1.0
51.13,81.4944,1.0,1.0,1.0
51.14,36.5056,1.0,1.0,1.0
51.15,37.0,1.0,1.0,1.0
51.16,39.4944,1.0,1.0,1.0
51.17,39.4944,1.0,1.0,1.0
51.18,55.0,1.0,1.0,1.0
51.19,61.0111,1.0,1.0,1.0
51.2,41.0,1.0,1.0,1.0
51.21,50.4944,1.0,1.0,1.0
51.22,55.5056,1.0,1.0,1.0
51.23,45.4833,1.0,1.0,1.0
51.24,40.0111,1.0,1.0,1.0
51.25,55.5056,1.0,1.0,1.0
51.26,34.4944,1.0,1.0,1.0
51.27,47.5056,1.0,1.0,1.0
51.28,48.4944,1.0,1.0,1.0
51.29,60.0,1.0,1.0,1.0
51.3,37.9889,1.0,1.0,1.0
51.31,64.0111,1.0,1.0,1.0
51.32,44.0,1.0,1.0,1.0
51.33,48.5056,1.0,1.0,1.0
51.34,43.4944,1.0,1.0,1.0
51.35,45.5056,1.0,1.0,1.0
51.36,48.4944,1.0,1.0,1.0
51.37,38.4833,1.0,1.0,1.0
51.38,64.5056,1.0,1.0,1.0
51.39,32.5056,1.0,1.0,1.0
51.4,46.0,1.0,1.0,1.0
51.41,38.5056,1.0,1.0,1.0
51.42,54.0,1.0,1.0,1.0
51.43,65.0,1.0,1.0,1.0
51.44,44.0,1.0,1.0,1.0
51.45,56.0,1.0,1.0,1.0
51.46,62.5056,1.0,1.0,1.0
51.47,48.9889,1.0,1.0,1.0
51.48,49.0111,1.0,1.0,1.0
51.49,45.0,1.0,1.0,1.0
51.5,52.0,1.0,1.0,1.0
51.51,41.0,1.0,1.0,1.0
51.52,53.4944,1.0,1.0,1.0
51.53,34.5056,1.0,1.0,1.0
51.54,56.0,1.0,1.0,1.0
51.55,50.9889,1.0,1.0,1.0
51.56,33.5056,1.0,1.0,1.0
51.57,65.5056,1.0,1.0,1.0
51.58,55.4944,1.0,1.0,1.0
51.59,64.4944,1.0,1.0,1.0
51.6,53.0111,1.0,1.0,1.0
51.61,70.4833,1.0,1.0,1.0
51.62,38.5167,1.0,1.0,1.0
51.63,38.9778,1.0,1.0,1.0
51.64,80.0111,1.0,1.0,1.0
51.65,56.0111,1.0,1.0,1.0
51.66,39.0,1.0,1.0,1.0
51.67,28.9889,1.0,1.0,1.0
51.68,56.0111,1.0,1.0,1.0
51.69,53.4944,1.0,1.0,1.0
51.7,49.0,1.0,1.0,1.0
51.71,47.4944,1.0,1.0,1.0
51.72,58.0111,1.0,1.0,1.0
51.73,46.4944,1.0,1.0,1.0
51.74,39.5056,1.0,1.0,1.0
51.75,63.0,1.0,1.0,1.0
51.76,46.0,1.0,1.0,1.0
51.77,40.9889,1.0,1.0,1.0
51.78,46.5056,1.0,1.0,1.0
51.79,28.5056,1.0,1.0,1.0
51.8,60.0,1.0,1.0,1.0
51.81,45.4944,1.0,1.0,1.0
51.82,54.4944,1.0,1.0,1.0
51.83,52.0111,1.0,1.0,1.0
51.84,64.0,1.0,1.0,1.0
51.85,38.4944,1.0,1.0,1.0
51.86,53.0,1.0,1.0,1.0
51.87,54.4944,1.0,1.0,1.0
51.88,42.0,1.0,1.0,1.0
51.89,45.0,1.0,1.0,1.0
51.9,49.0111,1.0,1.0,1.0
51.91,47.9889,1.0,1.0,1.0
51.92,63.0111,1.0,1.0,1.0
51.93,50.4944,1.0,1.0,1.0
51.94,58.5056,1.0,1.0,1.0
51.95,54.0,1.0,1.0,1.0
51.96,50.4944,1.0,1.0,1.0
51.97,48.5056,1.0,1.0,1.0
51.98,55.4944,1.0,1.0,1.0
51.99,51.4944,1.0,1.0,1.0
52.0,56.4944,1.0,1.0,1.0