File: XRD:XRR/SCO/22170_SL(CO)L/22170_SL(CO)L_001_XRD_2.csv
#twotheta, yobs, ycal, bkg, diff
17.0,28.008,1.0,1.0,1.0
17.02,45.0,1.0,1.0,1.0
17.04,34.496,1.0,1.0,1.0
17.06,51.0,1.0,1.0,1.0
17.08,58.496,1.0,1.0,1.0
17.1,67.504,1.0,1.0,1.0
17.12,48.504,1.0,1.0,1.0
17.14,58.0,1.0,1.0,1.0
17.16,34.0,1.0,1.0,1.0
17.18,44.008,1.0,1.0,1.0
17.2,42.992,1.0,1.0,1.0
17.22,37.0,1.0,1.0,1.0
17.24,42.504,1.0,1.0,1.0
17.26,41.9841,1.0,1.0,1.0
17.28,35.504,1.0,1.0,1.0
17.3,31.504,1.0,1.0,1.0
17.32,55.0,1.0,1.0,1.0
17.34,40.0,1.0,1.0,1.0
17.36,33.496,1.0,1.0,1.0
17.38,53.0,1.0,1.0,1.0
17.4,56.504,1.0,1.0,1.0
17.42,52.504,1.0,1.0,1.0
17.44,37.504,1.0,1.0,1.0
17.46,51.496,1.0,1.0,1.0
17.48,39.504,1.0,1.0,1.0
17.5,59.504,1.0,1.0,1.0
17.52,42.0,1.0,1.0,1.0
17.54,35.008,1.0,1.0,1.0
17.56,41.504,1.0,1.0,1.0
17.58,49.504,1.0,1.0,1.0
17.6,38.008,1.0,1.0,1.0
17.62,51.5119,1.0,1.0,1.0
17.64,47.496,1.0,1.0,1.0
17.66,44.496,1.0,1.0,1.0
17.68,43.496,1.0,1.0,1.0
17.7,50.0,1.0,1.0,1.0
17.72,53.504,1.0,1.0,1.0
17.74,48.008,1.0,1.0,1.0
17.76,74.496,1.0,1.0,1.0
17.78,38.504,1.0,1.0,1.0
17.8,22.0159,1.0,1.0,1.0
17.82,62.992,1.0,1.0,1.0
17.84,47.496,1.0,1.0,1.0
17.86,56.992,1.0,1.0,1.0
17.88,69.008,1.0,1.0,1.0
17.9,45.008,1.0,1.0,1.0
17.92,52.0,1.0,1.0,1.0
17.94,35.504,1.0,1.0,1.0
17.96,49.0,1.0,1.0,1.0
17.98,35.008,1.0,1.0,1.0
18.0,31.0,1.0,1.0,1.0
18.02,46.4881,1.0,1.0,1.0
18.04,39.0,1.0,1.0,1.0
18.06,26.504,1.0,1.0,1.0
18.08,56.496,1.0,1.0,1.0
18.1,64.496,1.0,1.0,1.0
18.12,52.0,1.0,1.0,1.0
18.14,46.504,1.0,1.0,1.0
18.16,47.496,1.0,1.0,1.0
18.18,46.0,1.0,1.0,1.0
18.2,57.504,1.0,1.0,1.0
18.22,61.504,1.0,1.0,1.0
18.24,58.504,1.0,1.0,1.0
18.26,61.0,1.0,1.0,1.0
18.28,49.4881,1.0,1.0,1.0
18.3,62.0,1.0,1.0,1.0
18.32,50.0,1.0,1.0,1.0
18.34,38.496,1.0,1.0,1.0
18.36,52.008,1.0,1.0,1.0
18.38,55.504,1.0,1.0,1.0
18.4,54.0,1.0,1.0,1.0
18.42,42.504,1.0,1.0,1.0
18.44,55.504,1.0,1.0,1.0
18.46,29.992,1.0,1.0,1.0
18.48,44.496,1.0,1.0,1.0
18.5,46.008,1.0,1.0,1.0
18.52,60.504,1.0,1.0,1.0
18.54,49.504,1.0,1.0,1.0
18.56,42.504,1.0,1.0,1.0
18.58,53.4881,1.0,1.0,1.0
18.6,40.496,1.0,1.0,1.0
18.62,34.0,1.0,1.0,1.0
18.64,45.008,1.0,1.0,1.0
18.66,46.504,1.0,1.0,1.0
18.68,27.504,1.0,1.0,1.0
18.7,48.496,1.0,1.0,1.0
18.72,41.496,1.0,1.0,1.0
18.74,43.496,1.0,1.0,1.0
18.76,31.5199,1.0,1.0,1.0
18.78,39.008,1.0,1.0,1.0
18.8,54.504,1.0,1.0,1.0
18.82,62.496,1.0,1.0,1.0
18.84,49.992,1.0,1.0,1.0
18.86,43.4881,1.0,1.0,1.0
18.88,44.992,1.0,1.0,1.0
18.9,75.504,1.0,1.0,1.0
18.92,55.0,1.0,1.0,1.0
18.94,39.992,1.0,1.0,1.0
18.96,55.008,1.0,1.0,1.0
18.98,70.992,1.0,1.0,1.0
19.0,55.504,1.0,1.0,1.0
19.02,41.504,1.0,1.0,1.0
19.04,54.0,1.0,1.0,1.0
19.06,40.496,1.0,1.0,1.0
19.08,54.5119,1.0,1.0,1.0
19.1,59.008,1.0,1.0,1.0
19.12,37.992,1.0,1.0,1.0
19.14,62.0,1.0,1.0,1.0
19.16,63.008,1.0,1.0,1.0
19.18,58.496,1.0,1.0,1.0
19.2,64.0,1.0,1.0,1.0
19.22,65.992,1.0,1.0,1.0
19.24,39.0,1.0,1.0,1.0
19.26,37.504,1.0,1.0,1.0
19.28,56.4881,1.0,1.0,1.0
19.3,55.504,1.0,1.0,1.0
19.32,39.0,1.0,1.0,1.0
19.34,65.496,1.0,1.0,1.0
19.36,41.496,1.0,1.0,1.0
19.38,61.5119,1.0,1.0,1.0
19.4,53.496,1.0,1.0,1.0
19.42,67.5119,1.0,1.0,1.0
19.44,36.0,1.0,1.0,1.0
19.46,45.496,1.0,1.0,1.0
19.48,52.4881,1.0,1.0,1.0
19.5,59.0,1.0,1.0,1.0
19.52,53.992,1.0,1.0,1.0
19.54,44.5119,1.0,1.0,1.0
19.56,51.504,1.0,1.0,1.0
19.58,35.496,1.0,1.0,1.0
19.6,44.992,1.0,1.0,1.0
19.62,57.496,1.0,1.0,1.0
19.64,70.5119,1.0,1.0,1.0
19.66,45.0,1.0,1.0,1.0
19.68,48.0,1.0,1.0,1.0
19.7,56.008,1.0,1.0,1.0
19.72,50.0,1.0,1.0,1.0
19.74,50.496,1.0,1.0,1.0
19.76,59.008,1.0,1.0,1.0
19.78,51.496,1.0,1.0,1.0
19.8,59.0,1.0,1.0,1.0
19.82,43.0,1.0,1.0,1.0
19.84,48.0159,1.0,1.0,1.0
19.86,68.504,1.0,1.0,1.0
19.88,62.0,1.0,1.0,1.0
19.9,73.496,1.0,1.0,1.0
19.92,49.5199,1.0,1.0,1.0
19.94,64.504,1.0,1.0,1.0
19.96,50.008,1.0,1.0,1.0
19.98,71.496,1.0,1.0,1.0
20.0,64.504,1.0,1.0,1.0
20.02,52.496,1.0,1.0,1.0
20.04,40.504,1.0,1.0,1.0
20.06,61.504,1.0,1.0,1.0
20.08,60.0,1.0,1.0,1.0
20.1,49.504,1.0,1.0,1.0
20.12,58.496,1.0,1.0,1.0
20.14,46.4881,1.0,1.0,1.0
20.16,89.504,1.0,1.0,1.0
20.18,65.504,1.0,1.0,1.0
20.2,44.0,1.0,1.0,1.0
20.22,72.496,1.0,1.0,1.0
20.24,72.504,1.0,1.0,1.0
20.26,59.0,1.0,1.0,1.0
20.28,62.992,1.0,1.0,1.0
20.3,53.496,1.0,1.0,1.0
20.32,44.496,1.0,1.0,1.0
20.34,71.496,1.0,1.0,1.0
20.36,57.992,1.0,1.0,1.0
20.38,61.5119,1.0,1.0,1.0
20.4,58.504,1.0,1.0,1.0
20.42,54.496,1.0,1.0,1.0
20.44,40.992,1.0,1.0,1.0
20.46,81.496,1.0,1.0,1.0
20.48,39.504,1.0,1.0,1.0
20.5,51.504,1.0,1.0,1.0
20.52,73.0,1.0,1.0,1.0
20.54,51.4881,1.0,1.0,1.0
20.56,54.5279,1.0,1.0,1.0
20.58,53.5119,1.0,1.0,1.0
20.6,69.008,1.0,1.0,1.0
20.62,52.504,1.0,1.0,1.0
20.64,42.992,1.0,1.0,1.0
20.66,54.008,1.0,1.0,1.0
20.68,57.0,1.0,1.0,1.0
20.7,46.496,1.0,1.0,1.0
20.72,68.0,1.0,1.0,1.0
20.74,49.0,1.0,1.0,1.0
20.76,60.008,1.0,1.0,1.0
20.78,41.992,1.0,1.0,1.0
20.8,45.0,1.0,1.0,1.0
20.82,52.5119,1.0,1.0,1.0
20.84,52.504,1.0,1.0,1.0
20.86,50.504,1.0,1.0,1.0
20.88,45.504,1.0,1.0,1.0
20.9,68.0,1.0,1.0,1.0
20.92,65.504,1.0,1.0,1.0
20.94,51.496,1.0,1.0,1.0
20.96,59.992,1.0,1.0,1.0
20.98,67.504,1.0,1.0,1.0
21.0,53.5119,1.0,1.0,1.0
21.02,70.0,1.0,1.0,1.0
21.04,87.5119,1.0,1.0,1.0
21.06,68.0,1.0,1.0,1.0
21.08,78.008,1.0,1.0,1.0
21.1,84.008,1.0,1.0,1.0
21.12,81.008,1.0,1.0,1.0
21.14,80.0,1.0,1.0,1.0
21.16,91.504,1.0,1.0,1.0
21.18,105.504,1.0,1.0,1.0
21.2,81.496,1.0,1.0,1.0
21.22,86.008,1.0,1.0,1.0
21.24,88.5119,1.0,1.0,1.0
21.26,89.496,1.0,1.0,1.0
21.28,78.496,1.0,1.0,1.0
21.3,95.496,1.0,1.0,1.0
21.32,87.0,1.0,1.0,1.0
21.34,101.504,1.0,1.0,1.0
21.36,88.0,1.0,1.0,1.0
21.38,91.008,1.0,1.0,1.0
21.4,100.504,1.0,1.0,1.0
21.42,79.504,1.0,1.0,1.0
21.44,75.0,1.0,1.0,1.0
21.46,94.0,1.0,1.0,1.0
21.48,109.504,1.0,1.0,1.0
21.5,100.008,1.0,1.0,1.0
21.52,82.0,1.0,1.0,1.0
21.54,106.496,1.0,1.0,1.0
21.56,110.992,1.0,1.0,1.0
21.58,124.504,1.0,1.0,1.0
21.6,130.5119,1.0,1.0,1.0
21.62,132.0,1.0,1.0,1.0
21.64,150.504,1.0,1.0,1.0
21.66,150.496,1.0,1.0,1.0
21.68,179.4881,1.0,1.0,1.0
21.7,207.0159,1.0,1.0,1.0
21.72,257.008,1.0,1.0,1.0
21.74,252.4881,1.0,1.0,1.0
21.76,294.0,1.0,1.0,1.0
21.78,344.5199,1.0,1.0,1.0
21.8,399.4721,1.0,1.0,1.0
21.82,425.5119,1.0,1.0,1.0
21.84,468.4801,1.0,1.0,1.0
21.86,522.0079,1.0,1.0,1.0
21.88,601.0079,1.0,1.0,1.0
21.9,647.0079,1.0,1.0,1.0
21.92,667.9921,1.0,1.0,1.0
21.94,724.512,1.0,1.0,1.0
21.96,765.488,1.0,1.0,1.0
21.98,785.0398,1.0,1.0,1.0
22.0,809.9841,1.0,1.0,1.0
22.02,956.512,1.0,1.0,1.0
22.04,990.4801,1.0,1.0,1.0
22.06,1042.46,1.0,1.0,1.0
22.08,1099.93,1.0,1.0,1.0
22.1,1110.512,1.0,1.0,1.0
22.12,1102.99,1.0,1.0,1.0
22.14,1153.99,1.0,1.0,1.0
22.16,1145.0,1.0,1.0,1.0
22.18,1166.04,1.0,1.0,1.0
22.2,1145.48,1.0,1.0,1.0
22.22,1205.02,1.0,1.0,1.0
22.24,1285.496,1.0,1.0,1.0
22.26,1306.99,1.0,1.0,1.0
22.28,1444.512,1.0,1.0,1.0
22.3,1520.52,1.0,1.0,1.0
22.32,1603.54,1.0,1.0,1.0
22.34,1606.06,1.0,1.0,1.0
22.36,1627.46,1.0,1.0,1.0
22.38,1678.96,1.0,1.0,1.0
22.4,1839.53,1.0,1.0,1.0
22.42,1854.97,1.0,1.0,1.0
22.44,2178.02,1.0,1.0,1.0
22.46,2355.08,1.0,1.0,1.0
22.48,2630.03,1.0,1.0,1.0
22.5,2942.53,1.0,1.0,1.0
22.52,3237.54,1.0,1.0,1.0
22.54,3512.66,1.0,1.0,1.0
22.56,3759.99,1.0,1.0,1.0
22.58,3990.53,1.0,1.0,1.0
22.6,4345.02,1.0,1.0,1.0
22.62,4320.07,1.0,1.0,1.0
22.64,4598.55,1.0,1.0,1.0
22.66,4988.04,1.0,1.0,1.0
22.68,5196.96,1.0,1.0,1.0
22.7,5394.54,1.0,1.0,1.0
22.72,5827.5,1.0,1.0,1.0
22.74,5805.04,1.0,1.0,1.0
22.76,5883.98,1.0,1.0,1.0
22.78,5587.01,1.0,1.0,1.0
22.8,5361.98,1.0,1.0,1.0
22.82,4888.52,1.0,1.0,1.0
22.84,4544.01,1.0,1.0,1.0
22.86,3990.43,1.0,1.0,1.0
22.88,3532.99,1.0,1.0,1.0
22.9,3208.98,1.0,1.0,1.0
22.92,3008.97,1.0,1.0,1.0
22.94,2987.46,1.0,1.0,1.0
22.96,2974.5,1.0,1.0,1.0
22.98,3009.55,1.0,1.0,1.0
23.0,3030.94,1.0,1.0,1.0
23.02,3127.04,1.0,1.0,1.0
23.04,3056.02,1.0,1.0,1.0
23.06,2856.99,1.0,1.0,1.0
23.08,2914.97,1.0,1.0,1.0
23.1,2913.02,1.0,1.0,1.0
23.12,3036.02,1.0,1.0,1.0
23.14,3092.1,1.0,1.0,1.0
23.16,3283.03,1.0,1.0,1.0
23.18,3614.01,1.0,1.0,1.0
23.2,3915.04,1.0,1.0,1.0
23.22,4056.01,1.0,1.0,1.0
23.24,4678.46,1.0,1.0,1.0
23.26,5347.52,1.0,1.0,1.0
23.28,5968.1,1.0,1.0,1.0
23.3,7359.49,1.0,1.0,1.0
23.32,9944.11,1.0,1.0,1.0
23.34,14585.2,1.0,1.0,1.0
23.36,31709.4,1.0,1.0,1.0
23.38,257393,1.0,1.0,1.0
23.4,1379195.0,1.0,1.0,1.0
23.42,1059364.25,1.0,1.0,1.0
23.44,1586745.0,1.0,1.0,1.0
23.46,1267938.5,1.0,1.0,1.0
23.48,1044726.375,1.0,1.0,1.0
23.5,1730104.25,1.0,1.0,1.0
23.52,2716466.75,1.0,1.0,1.0
23.54,180936.25,1.0,1.0,1.0
23.56,34396.9,1.0,1.0,1.0
23.58,16064,1.0,1.0,1.0
23.6,9432.4,1.0,1.0,1.0
23.62,6321.43,1.0,1.0,1.0
23.64,4510.83,1.0,1.0,1.0
23.66,3508.52,1.0,1.0,1.0
23.68,2712.46,1.0,1.0,1.0
23.7,2241.5,1.0,1.0,1.0
23.72,1740.02,1.0,1.0,1.0
23.74,1515.98,1.0,1.0,1.0
23.76,1333.46,1.0,1.0,1.0
23.78,1172.0,1.0,1.0,1.0
23.8,1002.98,1.0,1.0,1.0
23.82,931.0159,1.0,1.0,1.0
23.84,818.0,1.0,1.0,1.0
23.86,694.9522,1.0,1.0,1.0
23.88,631.0319,1.0,1.0,1.0
23.9,534.5279,1.0,1.0,1.0
23.92,450.4721,1.0,1.0,1.0
23.94,393.9681,1.0,1.0,1.0
23.96,368.0,1.0,1.0,1.0
23.98,312.4881,1.0,1.0,1.0
24.0,280.5119,1.0,1.0,1.0
24.02,210.0,1.0,1.0,1.0
24.04,196.496,1.0,1.0,1.0
24.06,189.9841,1.0,1.0,1.0
24.08,115.5119,1.0,1.0,1.0
24.1,121.504,1.0,1.0,1.0
24.12,134.008,1.0,1.0,1.0
24.14,118.5119,1.0,1.0,1.0
24.16,117.496,1.0,1.0,1.0
24.18,125.4801,1.0,1.0,1.0
24.2,121.504,1.0,1.0,1.0
24.22,159.992,1.0,1.0,1.0
24.24,134.008,1.0,1.0,1.0
24.26,129.008,1.0,1.0,1.0
24.28,121.0,1.0,1.0,1.0
24.3,119.992,1.0,1.0,1.0
24.32,95.504,1.0,1.0,1.0
24.34,100.0,1.0,1.0,1.0
24.36,114.008,1.0,1.0,1.0
24.38,94.008,1.0,1.0,1.0
24.4,102.496,1.0,1.0,1.0
24.42,107.496,1.0,1.0,1.0
24.44,100.0,1.0,1.0,1.0
24.46,90.496,1.0,1.0,1.0
24.48,78.992,1.0,1.0,1.0
24.5,102.008,1.0,1.0,1.0
24.52,95.0,1.0,1.0,1.0
24.54,109.0,1.0,1.0,1.0
24.56,81.4881,1.0,1.0,1.0
24.58,106.0398,1.0,1.0,1.0
24.6,88.4881,1.0,1.0,1.0
24.62,109.0,1.0,1.0,1.0
24.64,101.992,1.0,1.0,1.0
24.66,97.504,1.0,1.0,1.0
24.68,81.504,1.0,1.0,1.0
24.7,97.496,1.0,1.0,1.0
24.72,100.008,1.0,1.0,1.0
24.74,90.008,1.0,1.0,1.0
24.76,119.992,1.0,1.0,1.0
24.78,103.496,1.0,1.0,1.0
24.8,99.504,1.0,1.0,1.0
24.82,102.0,1.0,1.0,1.0
24.84,65.008,1.0,1.0,1.0
24.86,76.5119,1.0,1.0,1.0
24.88,63.992,1.0,1.0,1.0
24.9,70.008,1.0,1.0,1.0
24.92,67.496,1.0,1.0,1.0
24.94,52.0,1.0,1.0,1.0
24.96,63.0,1.0,1.0,1.0
24.98,57.0,1.0,1.0,1.0
25.0,64.504,1.0,1.0,1.0
25.02,52.496,1.0,1.0,1.0
25.04,59.008,1.0,1.0,1.0
25.06,45.496,1.0,1.0,1.0
25.08,65.0,1.0,1.0,1.0
25.1,62.008,1.0,1.0,1.0
25.12,37.496,1.0,1.0,1.0
25.14,59.0,1.0,1.0,1.0
25.16,47.504,1.0,1.0,1.0
25.18,52.992,1.0,1.0,1.0
25.2,56.504,1.0,1.0,1.0
25.22,49.0,1.0,1.0,1.0
25.24,46.992,1.0,1.0,1.0
25.26,62.992,1.0,1.0,1.0
25.28,50.4881,1.0,1.0,1.0
25.3,31.992,1.0,1.0,1.0
25.32,39.008,1.0,1.0,1.0
25.34,44.992,1.0,1.0,1.0
25.36,39.992,1.0,1.0,1.0
25.38,35.4881,1.0,1.0,1.0
25.4,53.496,1.0,1.0,1.0
25.42,35.504,1.0,1.0,1.0
25.44,39.496,1.0,1.0,1.0
25.46,29.496,1.0,1.0,1.0
25.48,43.0,1.0,1.0,1.0
25.5,45.504,1.0,1.0,1.0
25.52,42.0,1.0,1.0,1.0
25.54,98.496,1.0,1.0,1.0
25.56,36.5119,1.0,1.0,1.0
25.58,33.992,1.0,1.0,1.0
25.6,43.504,1.0,1.0,1.0
25.62,44.0,1.0,1.0,1.0
25.64,44.0,1.0,1.0,1.0
25.66,48.504,1.0,1.0,1.0
25.68,27.0,1.0,1.0,1.0
25.7,45.4881,1.0,1.0,1.0
25.72,46.504,1.0,1.0,1.0
25.74,42.504,1.0,1.0,1.0
25.76,38.008,1.0,1.0,1.0
25.78,41.4881,1.0,1.0,1.0
25.8,25.0,1.0,1.0,1.0
25.82,39.504,1.0,1.0,1.0
25.84,38.0,1.0,1.0,1.0
25.86,40.0,1.0,1.0,1.0
25.88,27.992,1.0,1.0,1.0
25.9,38.992,1.0,1.0,1.0
25.92,37.504,1.0,1.0,1.0
25.94,44.992,1.0,1.0,1.0
25.96,35.496,1.0,1.0,1.0
25.98,44.4881,1.0,1.0,1.0
26.0,42.504,1.0,1.0,1.0
26.02,47.0,1.0,1.0,1.0
26.04,56.0,1.0,1.0,1.0
26.06,52.4881,1.0,1.0,1.0
26.08,49.504,1.0,1.0,1.0
26.1,57.496,1.0,1.0,1.0
26.12,48.0,1.0,1.0,1.0
26.14,46.504,1.0,1.0,1.0
26.16,45.504,1.0,1.0,1.0
26.18,41.0,1.0,1.0,1.0
26.2,68.0,1.0,1.0,1.0
26.22,33.0,1.0,1.0,1.0
26.24,41.496,1.0,1.0,1.0
26.26,40.008,1.0,1.0,1.0
26.28,32.0,1.0,1.0,1.0
26.3,33.0,1.0,1.0,1.0
26.32,11.504,1.0,1.0,1.0
26.34,21.496,1.0,1.0,1.0
26.36,47.0,1.0,1.0,1.0
26.38,37.992,1.0,1.0,1.0
26.4,38.0,1.0,1.0,1.0
26.42,17.0,1.0,1.0,1.0
26.44,23.0,1.0,1.0,1.0
26.46,32.992,1.0,1.0,1.0
26.48,22.0,1.0,1.0,1.0
26.5,31.504,1.0,1.0,1.0
26.52,35.504,1.0,1.0,1.0
26.54,33.992,1.0,1.0,1.0
26.56,25.0,1.0,1.0,1.0
26.58,36.992,1.0,1.0,1.0
26.6,25.504,1.0,1.0,1.0
26.62,28.504,1.0,1.0,1.0
26.64,30.504,1.0,1.0,1.0
26.66,20.504,1.0,1.0,1.0
26.68,26.0,1.0,1.0,1.0
26.7,45.0,1.0,1.0,1.0
26.72,49.496,1.0,1.0,1.0
26.74,44.496,1.0,1.0,1.0
26.76,36.496,1.0,1.0,1.0
26.78,28.496,1.0,1.0,1.0
26.8,25.504,1.0,1.0,1.0
26.82,34.0,1.0,1.0,1.0
26.84,42.504,1.0,1.0,1.0
26.86,25.0,1.0,1.0,1.0
26.88,37.504,1.0,1.0,1.0
26.9,33.504,1.0,1.0,1.0
26.92,44.0,1.0,1.0,1.0
26.94,31.504,1.0,1.0,1.0
26.96,34.0,1.0,1.0,1.0
26.98,33.0,1.0,1.0,1.0
27.0,36.0,1.0,1.0,1.0
27.02,44.008,1.0,1.0,1.0
27.04,26.0,1.0,1.0,1.0
27.06,38.008,1.0,1.0,1.0
27.08,24.496,1.0,1.0,1.0
27.1,20.504,1.0,1.0,1.0
27.12,27.504,1.0,1.0,1.0
27.14,23.504,1.0,1.0,1.0
27.16,26.0,1.0,1.0,1.0
27.18,20.0,1.0,1.0,1.0
27.2,39.496,1.0,1.0,1.0
27.22,26.504,1.0,1.0,1.0
27.24,32.008,1.0,1.0,1.0
27.26,44.0,1.0,1.0,1.0
27.28,22.0,1.0,1.0,1.0
27.3,37.496,1.0,1.0,1.0
27.32,39.008,1.0,1.0,1.0
27.34,40.0,1.0,1.0,1.0
27.36,19.008,1.0,1.0,1.0
27.38,26.496,1.0,1.0,1.0
27.4,29.0,1.0,1.0,1.0
27.42,39.496,1.0,1.0,1.0
27.44,31.496,1.0,1.0,1.0
27.46,20.504,1.0,1.0,1.0
27.48,36.0,1.0,1.0,1.0
27.5,31.992,1.0,1.0,1.0
27.52,33.504,1.0,1.0,1.0
27.54,15.0,1.0,1.0,1.0
27.56,38.0,1.0,1.0,1.0
27.58,27.504,1.0,1.0,1.0
27.6,15.496,1.0,1.0,1.0
27.62,25.504,1.0,1.0,1.0
27.64,38.504,1.0,1.0,1.0
27.66,32.0,1.0,1.0,1.0
27.68,29.992,1.0,1.0,1.0
27.7,24.504,1.0,1.0,1.0
27.72,19.496,1.0,1.0,1.0
27.74,21.0,1.0,1.0,1.0
27.76,27.496,1.0,1.0,1.0
27.78,33.504,1.0,1.0,1.0
27.8,48.0,1.0,1.0,1.0
27.82,23.0,1.0,1.0,1.0
27.84,32.496,1.0,1.0,1.0
27.86,32.504,1.0,1.0,1.0
27.88,19.0,1.0,1.0,1.0
27.9,27.0,1.0,1.0,1.0
27.92,30.0,1.0,1.0,1.0
27.94,30.0,1.0,1.0,1.0
27.96,26.496,1.0,1.0,1.0
27.98,39.008,1.0,1.0,1.0
28.0,27.0,1.0,1.0,1.0
28.02,29.0,1.0,1.0,1.0
28.04,24.504,1.0,1.0,1.0
28.06,21.504,1.0,1.0,1.0
28.08,10.0,1.0,1.0,1.0
28.1,20.0,1.0,1.0,1.0
28.12,26.0,1.0,1.0,1.0
28.14,21.496,1.0,1.0,1.0
28.16,28.0,1.0,1.0,1.0
28.18,30.504,1.0,1.0,1.0
28.2,25.0,1.0,1.0,1.0
28.22,27.0,1.0,1.0,1.0
28.24,29.0,1.0,1.0,1.0
28.26,21.504,1.0,1.0,1.0
28.28,17.0,1.0,1.0,1.0
28.3,41.496,1.0,1.0,1.0
28.32,10.0,1.0,1.0,1.0
28.34,19.008,1.0,1.0,1.0
28.36,31.504,1.0,1.0,1.0
28.38,22.992,1.0,1.0,1.0
28.4,17.496,1.0,1.0,1.0
28.42,27.496,1.0,1.0,1.0
28.44,23.0,1.0,1.0,1.0
28.46,25.504,1.0,1.0,1.0
28.48,31.504,1.0,1.0,1.0
28.5,28.496,1.0,1.0,1.0
28.52,29.0,1.0,1.0,1.0
28.54,28.504,1.0,1.0,1.0
28.56,27.0,1.0,1.0,1.0
28.58,27.0,1.0,1.0,1.0
28.6,42.504,1.0,1.0,1.0
28.62,22.496,1.0,1.0,1.0
28.64,29.504,1.0,1.0,1.0
28.66,26.496,1.0,1.0,1.0
28.68,26.0,1.0,1.0,1.0
28.7,24.496,1.0,1.0,1.0
28.72,21.0,1.0,1.0,1.0
28.74,25.504,1.0,1.0,1.0
28.76,20.496,1.0,1.0,1.0
28.78,27.0,1.0,1.0,1.0
28.8,34.0,1.0,1.0,1.0
28.82,29.0,1.0,1.0,1.0
28.84,30.0,1.0,1.0,1.0
28.86,29.0,1.0,1.0,1.0
28.88,26.0,1.0,1.0,1.0
28.9,35.0,1.0,1.0,1.0
28.92,28.008,1.0,1.0,1.0
28.94,31.504,1.0,1.0,1.0
28.96,15.496,1.0,1.0,1.0
28.98,24.0,1.0,1.0,1.0
29.0,13.0,1.0,1.0,1.0
0.41,346531.0,1.0,1.0,1.0
0.43,363832.5,1.0,1.0,1.0
0.45,380080.0,1.0,1.0,1.0
0.47,392026.0,1.0,1.0,1.0
0.49,399977.5,1.0,1.0,1.0
0.51,406417.5,1.0,1.0,1.0
0.53,407139.5,1.0,1.0,1.0
0.55,403694.5,1.0,1.0,1.0
0.57,394035.5,1.0,1.0,1.0
0.59,380758.5,1.0,1.0,1.0
0.61,362360.0,1.0,1.0,1.0
0.63,339256.0,1.0,1.0,1.0
0.65,310191.0,1.0,1.0,1.0
0.67,282794.5,1.0,1.0,1.0
0.69,252179,1.0,1.0,1.0
0.71,221851,1.0,1.0,1.0
0.73,193027,1.0,1.0,1.0
0.75,166050,1.0,1.0,1.0
0.77,141704,1.0,1.0,1.0
0.79,119227,1.0,1.0,1.0
0.81,99987,1.0,1.0,1.0
0.83,83785,1.0,1.0,1.0
0.85,68828.5,1.0,1.0,1.0
0.87,55938,1.0,1.0,1.0
0.89,44843,1.0,1.0,1.0
0.91,35836.5,1.0,1.0,1.0
0.93,28161.5,1.0,1.0,1.0
0.95,22446.002,1.0,1.0,1.0
0.97,17633.502,1.0,1.0,1.0
0.99,13722,1.0,1.0,1.0
1.01,11207.5,1.0,1.0,1.0
1.03,9520.5,1.0,1.0,1.0
1.05,8685.5,1.0,1.0,1.0
1.07,8312.002,1.0,1.0,1.0
1.09,7734.5,1.0,1.0,1.0
1.11,7211.5,1.0,1.0,1.0
1.13,6808.5,1.0,1.0,1.0
1.15,6113.5,1.0,1.0,1.0
1.17,5606.001,1.0,1.0,1.0
1.19,4938.499,1.0,1.0,1.0
1.21,4608.0,1.0,1.0,1.0
1.23,4172.5,1.0,1.0,1.0
1.25,3515.5,1.0,1.0,1.0
1.27,3237,1.0,1.0,1.0
1.29,2719,1.0,1.0,1.0
1.31,2470.5,1.0,1.0,1.0
1.33,2045,1.0,1.0,1.0
1.35,1824.5,1.0,1.0,1.0
1.37,1620,1.0,1.0,1.0
1.39,1702.5,1.0,1.0,1.0
1.41,1762,1.0,1.0,1.0
1.43,2137.5,1.0,1.0,1.0
1.45,2470.0,1.0,1.0,1.0
1.47,2902.5,1.0,1.0,1.0
1.49,3290,1.0,1.0,1.0
1.51,3647.5,1.0,1.0,1.0
1.53,3647.5,1.0,1.0,1.0
1.55,3776.001,1.0,1.0,1.0
1.57,3337.5,1.0,1.0,1.0
1.59,3084,1.0,1.0,1.0
1.61,2670.5,1.0,1.0,1.0
1.63,2311.0,1.0,1.0,1.0
1.65,1935,1.0,1.0,1.0
1.67,1790.5,1.0,1.0,1.0
1.69,1562.5,1.0,1.0,1.0
1.71,1407.5,1.0,1.0,1.0
1.73,1374,1.0,1.0,1.0
1.75,1316.5,1.0,1.0,1.0
1.77,1188,1.0,1.0,1.0
1.79,1099.5,1.0,1.0,1.0
1.81,1070,1.0,1.0,1.0
1.83,1001.0,1.0,1.0,1.0
1.85,909.4998,1.0,1.0,1.0
1.87,890.4999,1.0,1.0,1.0
1.89,819.5002,1.0,1.0,1.0
1.91,842.5002,1.0,1.0,1.0
1.93,774.5002,1.0,1.0,1.0
1.95,746.4999,1.0,1.0,1.0
1.97,766.0003,1.0,1.0,1.0
1.99,688.4996,1.0,1.0,1.0
2.01,694.0,1.0,1.0,1.0
2.03,699.5004,1.0,1.0,1.0
2.05,654.9998,1.0,1.0,1.0
2.07,618.0001,1.0,1.0,1.0
2.09,626.9996,1.0,1.0,1.0
2.11,541.4996,1.0,1.0,1.0
2.13,566.4999,1.0,1.0,1.0
2.15,429.4998,1.0,1.0,1.0
2.17,403.9998,1.0,1.0,1.0
2.19,374.9999,1.0,1.0,1.0
2.21,357.5002,1.0,1.0,1.0
2.23,346.0,1.0,1.0,1.0
2.25,350.4999,1.0,1.0,1.0
2.27,343.0,1.0,1.0,1.0
2.29,299.5001,1.0,1.0,1.0
2.31,303.5003,1.0,1.0,1.0
2.33,305.9999,1.0,1.0,1.0
2.35,297.5003,1.0,1.0,1.0
2.37,268.5003,1.0,1.0,1.0
2.39,256.5002,1.0,1.0,1.0
2.41,235.4997,1.0,1.0,1.0
2.43,258.4999,1.0,1.0,1.0
2.45,203.4999,1.0,1.0,1.0
2.47,219.5001,1.0,1.0,1.0
2.49,226.5001,1.0,1.0,1.0
2.51,210.4998,1.0,1.0,1.0
2.53,196.9999,1.0,1.0,1.0
2.55,177.0002,1.0,1.0,1.0
2.57,154.9999,1.0,1.0,1.0
2.59,156.0,1.0,1.0,1.0
2.61,143.0001,1.0,1.0,1.0
2.63,156.0,1.0,1.0,1.0
2.65,167.0001,1.0,1.0,1.0
2.67,159.4999,1.0,1.0,1.0
2.69,129.4999,1.0,1.0,1.0
2.71,147.0,1.0,1.0,1.0
2.73,171.0,1.0,1.0,1.0
2.75,188.0002,1.0,1.0,1.0
2.77,203.0002,1.0,1.0,1.0
2.79,190.4999,1.0,1.0,1.0
2.81,181.9997,1.0,1.0,1.0
2.83,152.4998,1.0,1.0,1.0
2.85,160.5001,1.0,1.0,1.0
2.87,161.9999,1.0,1.0,1.0
2.89,151.4998,1.0,1.0,1.0
2.91,129.4999,1.0,1.0,1.0
2.93,123.5002,1.0,1.0,1.0
2.95,93.4998,1.0,1.0,1.0
2.97,99.9999,1.0,1.0,1.0
2.99,96.4999,1.0,1.0,1.0
3.01,126.9999,1.0,1.0,1.0
3.03,101.5001,1.0,1.0,1.0
3.05,82.0,1.0,1.0,1.0
3.07,116.9998,1.0,1.0,1.0
3.09,107.0,1.0,1.0,1.0
3.11,94.5001,1.0,1.0,1.0
3.13,89.0,1.0,1.0,1.0
3.15,91.4999,1.0,1.0,1.0
3.17,84.5001,1.0,1.0,1.0
3.19,110.4999,1.0,1.0,1.0
3.21,105.0,1.0,1.0,1.0
3.23,89.0001,1.0,1.0,1.0
3.25,116.4998,1.0,1.0,1.0
3.27,109.0001,1.0,1.0,1.0
3.29,157.5001,1.0,1.0,1.0
3.31,174.4999,1.0,1.0,1.0
3.33,167.9999,1.0,1.0,1.0
3.35,149.9999,1.0,1.0,1.0
3.37,186.9998,1.0,1.0,1.0
3.39,135.9999,1.0,1.0,1.0
3.41,123.5001,1.0,1.0,1.0
3.43,111.0003,1.0,1.0,1.0
3.45,96.4998,1.0,1.0,1.0
3.47,89.4998,1.0,1.0,1.0
3.49,113.4998,1.0,1.0,1.0
3.51,94.9999,1.0,1.0,1.0
3.53,72.5001,1.0,1.0,1.0
3.55,72.9999,1.0,1.0,1.0
3.57,70.5001,1.0,1.0,1.0
3.59,49.0,1.0,1.0,1.0
3.61,74.0001,1.0,1.0,1.0
3.63,60.0,1.0,1.0,1.0
3.65,93.5002,1.0,1.0,1.0
3.67,81.5001,1.0,1.0,1.0
3.69,74.9999,1.0,1.0,1.0
3.71,68.4999,1.0,1.0,1.0
3.73,57.4999,1.0,1.0,1.0
3.75,72.0001,1.0,1.0,1.0
3.77,72.9999,1.0,1.0,1.0
3.79,66.5001,1.0,1.0,1.0
3.81,60.0,1.0,1.0,1.0
3.83,82.4999,1.0,1.0,1.0
3.85,72.5001,1.0,1.0,1.0
3.87,76.0,1.0,1.0,1.0
3.89,53.0,1.0,1.0,1.0
3.91,84.9998,1.0,1.0,1.0
3.93,77.4999,1.0,1.0,1.0
3.95,64.9999,1.0,1.0,1.0
3.97,75.0,1.0,1.0,1.0
3.99,89.5002,1.0,1.0,1.0
4.01,97.4999,1.0,1.0,1.0
4.03,93.9999,1.0,1.0,1.0
4.05,46.0001,1.0,1.0,1.0
4.07,63.0001,1.0,1.0,1.0
4.09,76.0,1.0,1.0,1.0
4.11,72.5001,1.0,1.0,1.0
4.13,57.0001,1.0,1.0,1.0
4.15,56.5001,1.0,1.0,1.0
4.17,72.0001,1.0,1.0,1.0
4.19,74.5001,1.0,1.0,1.0
4.21,62.0001,1.0,1.0,1.0
4.23,68.0,1.0,1.0,1.0
4.25,69.5001,1.0,1.0,1.0
4.27,65.0,1.0,1.0,1.0
4.29,68.4999,1.0,1.0,1.0
4.31,70.5001,1.0,1.0,1.0
4.33,73.0,1.0,1.0,1.0
4.35,79.0,1.0,1.0,1.0
4.37,64.4999,1.0,1.0,1.0
4.39,48.4998,1.0,1.0,1.0
4.41,71.0001,1.0,1.0,1.0
4.43,67.4998,1.0,1.0,1.0
4.45,56.0001,1.0,1.0,1.0
4.47,52.0,1.0,1.0,1.0
4.49,62.0,1.0,1.0,1.0
4.5,43.0,1.0,1.0,1.0