File: XRD:XRR/STO/22074_STOD/22074_STOD_XRD.csv
#twotheta, yobs, ycal, bkg, diff
42.0,174.0,1.0,1.0,1.0
42.01,208.0111,1.0,1.0,1.0
42.02,171.5056,1.0,1.0,1.0
42.03,193.5056,1.0,1.0,1.0
42.04,161.4833,1.0,1.0,1.0
42.05,173.4833,1.0,1.0,1.0
42.06,150.5278,1.0,1.0,1.0
42.07,167.0,1.0,1.0,1.0
42.08,186.9889,1.0,1.0,1.0
42.09,149.5056,1.0,1.0,1.0
42.1,184.9889,1.0,1.0,1.0
42.11,213.0,1.0,1.0,1.0
42.12,183.4944,1.0,1.0,1.0
42.13,181.0111,1.0,1.0,1.0
42.14,166.4833,1.0,1.0,1.0
42.15,171.0222,1.0,1.0,1.0
42.16,163.0,1.0,1.0,1.0
42.17,149.4944,1.0,1.0,1.0
42.18,179.9889,1.0,1.0,1.0
42.19,165.0,1.0,1.0,1.0
42.2,167.0111,1.0,1.0,1.0
42.21,160.0,1.0,1.0,1.0
42.22,167.5056,1.0,1.0,1.0
42.23,192.5056,1.0,1.0,1.0
42.24,168.4833,1.0,1.0,1.0
42.25,169.4833,1.0,1.0,1.0
42.26,170.5278,1.0,1.0,1.0
42.27,169.5056,1.0,1.0,1.0
42.28,151.4833,1.0,1.0,1.0
42.29,188.4833,1.0,1.0,1.0
42.3,192.5167,1.0,1.0,1.0
42.31,170.0,1.0,1.0,1.0
42.32,164.4944,1.0,1.0,1.0
42.33,168.0,1.0,1.0,1.0
42.34,156.0222,1.0,1.0,1.0
42.35,199.5056,1.0,1.0,1.0
42.36,165.0,1.0,1.0,1.0
42.37,146.4944,1.0,1.0,1.0
42.38,174.4944,1.0,1.0,1.0
42.39,161.9889,1.0,1.0,1.0
42.4,174.5167,1.0,1.0,1.0
42.41,124.4833,1.0,1.0,1.0
42.42,150.5167,1.0,1.0,1.0
42.43,184.9667,1.0,1.0,1.0
42.44,165.0333,1.0,1.0,1.0
42.45,125.9667,1.0,1.0,1.0
42.46,148.0222,1.0,1.0,1.0
42.47,142.5056,1.0,1.0,1.0
42.48,197.4833,1.0,1.0,1.0
42.49,164.4944,1.0,1.0,1.0
42.5,155.5167,1.0,1.0,1.0
42.51,161.0,1.0,1.0,1.0
42.52,155.0,1.0,1.0,1.0
42.53,151.5056,1.0,1.0,1.0
42.54,146.4944,1.0,1.0,1.0
42.55,173.9778,1.0,1.0,1.0
42.56,172.0222,1.0,1.0,1.0
42.57,172.5056,1.0,1.0,1.0
42.58,138.4944,1.0,1.0,1.0
42.59,135.5056,1.0,1.0,1.0
42.6,133.4944,1.0,1.0,1.0
42.61,149.0,1.0,1.0,1.0
42.62,157.0,1.0,1.0,1.0
42.63,146.5056,1.0,1.0,1.0
42.64,174.9889,1.0,1.0,1.0
42.65,161.0111,1.0,1.0,1.0
42.66,129.9889,1.0,1.0,1.0
42.67,170.4833,1.0,1.0,1.0
42.68,161.0333,1.0,1.0,1.0
42.69,182.4833,1.0,1.0,1.0
42.7,170.5056,1.0,1.0,1.0
42.71,180.5167,1.0,1.0,1.0
42.72,159.9778,1.0,1.0,1.0
42.73,162.0,1.0,1.0,1.0
42.74,193.0111,1.0,1.0,1.0
42.75,196.4944,1.0,1.0,1.0
42.76,167.5056,1.0,1.0,1.0
42.77,190.9889,1.0,1.0,1.0
42.78,186.9667,1.0,1.0,1.0
42.79,178.0555,1.0,1.0,1.0
42.8,185.45,1.0,1.0,1.0
42.81,164.0111,1.0,1.0,1.0
42.82,212.5167,1.0,1.0,1.0
42.83,178.0111,1.0,1.0,1.0
42.84,158.4944,1.0,1.0,1.0
42.85,194.4833,1.0,1.0,1.0
42.86,206.0222,1.0,1.0,1.0
42.87,163.9778,1.0,1.0,1.0
42.88,198.0111,1.0,1.0,1.0
42.89,186.9889,1.0,1.0,1.0
42.9,206.4944,1.0,1.0,1.0
42.91,226.5056,1.0,1.0,1.0
42.92,213.0333,1.0,1.0,1.0
42.93,207.4833,1.0,1.0,1.0
42.94,182.0,1.0,1.0,1.0
42.95,205.0,1.0,1.0,1.0
42.96,200.9889,1.0,1.0,1.0
42.97,198.4833,1.0,1.0,1.0
42.98,210.0222,1.0,1.0,1.0
42.99,222.4833,1.0,1.0,1.0
43.0,216.5167,1.0,1.0,1.0
43.01,168.5056,1.0,1.0,1.0
43.02,203.4944,1.0,1.0,1.0
43.03,216.4833,1.0,1.0,1.0
43.04,195.0222,1.0,1.0,1.0
43.05,211.0,1.0,1.0,1.0
43.06,206.9778,1.0,1.0,1.0
43.07,255.5167,1.0,1.0,1.0
43.08,190.5056,1.0,1.0,1.0
43.09,227.4944,1.0,1.0,1.0
43.1,223.4944,1.0,1.0,1.0
43.11,199.5167,1.0,1.0,1.0
43.12,179.0,1.0,1.0,1.0
43.13,222.4944,1.0,1.0,1.0
43.14,209.0,1.0,1.0,1.0
43.15,194.9889,1.0,1.0,1.0
43.16,255.4944,1.0,1.0,1.0
43.17,216.4944,1.0,1.0,1.0
43.18,189.5167,1.0,1.0,1.0
43.19,185.0111,1.0,1.0,1.0
43.2,227.4833,1.0,1.0,1.0
43.21,203.0,1.0,1.0,1.0
43.22,208.0111,1.0,1.0,1.0
43.23,170.9889,1.0,1.0,1.0
43.24,189.5056,1.0,1.0,1.0
43.25,201.0111,1.0,1.0,1.0
43.26,211.9889,1.0,1.0,1.0
43.27,189.5056,1.0,1.0,1.0
43.28,181.4944,1.0,1.0,1.0
43.29,192.0,1.0,1.0,1.0
43.3,182.4944,1.0,1.0,1.0
43.31,188.5167,1.0,1.0,1.0
43.32,201.0,1.0,1.0,1.0
43.33,153.0,1.0,1.0,1.0
43.34,196.4944,1.0,1.0,1.0
43.35,138.4944,1.0,1.0,1.0
43.36,154.0111,1.0,1.0,1.0
43.37,154.0,1.0,1.0,1.0
43.38,150.9889,1.0,1.0,1.0
43.39,171.5167,1.0,1.0,1.0
43.4,199.9778,1.0,1.0,1.0
43.41,134.5056,1.0,1.0,1.0
43.42,145.5056,1.0,1.0,1.0
43.43,167.5167,1.0,1.0,1.0
43.44,156.4833,1.0,1.0,1.0
43.45,153.5056,1.0,1.0,1.0
43.46,148.4944,1.0,1.0,1.0
43.47,154.0,1.0,1.0,1.0
43.48,167.5056,1.0,1.0,1.0
43.49,141.9889,1.0,1.0,1.0
43.5,169.0,1.0,1.0,1.0
43.51,200.5056,1.0,1.0,1.0
43.52,148.5056,1.0,1.0,1.0
43.53,157.0,1.0,1.0,1.0
43.54,157.4833,1.0,1.0,1.0
43.55,173.4944,1.0,1.0,1.0
43.56,208.5056,1.0,1.0,1.0
43.57,173.0,1.0,1.0,1.0
43.58,151.0111,1.0,1.0,1.0
43.59,183.0111,1.0,1.0,1.0
43.6,183.4944,1.0,1.0,1.0
43.61,157.9889,1.0,1.0,1.0
43.62,155.5056,1.0,1.0,1.0
43.63,173.0,1.0,1.0,1.0
43.64,178.4944,1.0,1.0,1.0
43.65,192.0,1.0,1.0,1.0
43.66,210.4833,1.0,1.0,1.0
43.67,198.5278,1.0,1.0,1.0
43.68,185.4944,1.0,1.0,1.0
43.69,186.0,1.0,1.0,1.0
43.7,199.4833,1.0,1.0,1.0
43.71,216.5056,1.0,1.0,1.0
43.72,233.9889,1.0,1.0,1.0
43.73,208.5167,1.0,1.0,1.0
43.74,231.5056,1.0,1.0,1.0
43.75,238.9889,1.0,1.0,1.0
43.76,239.5056,1.0,1.0,1.0
43.77,224.0111,1.0,1.0,1.0
43.78,219.0,1.0,1.0,1.0
43.79,240.4944,1.0,1.0,1.0
43.8,246.4833,1.0,1.0,1.0
43.81,247.5167,1.0,1.0,1.0
43.82,261.0,1.0,1.0,1.0
43.83,256.0,1.0,1.0,1.0
43.84,244.4833,1.0,1.0,1.0
43.85,241.5167,1.0,1.0,1.0
43.86,245.4944,1.0,1.0,1.0
43.87,249.4944,1.0,1.0,1.0
43.88,321.5056,1.0,1.0,1.0
43.89,238.4944,1.0,1.0,1.0
43.9,296.0111,1.0,1.0,1.0
43.91,298.9889,1.0,1.0,1.0
43.92,228.5056,1.0,1.0,1.0
43.93,307.4722,1.0,1.0,1.0
43.94,273.5167,1.0,1.0,1.0
43.95,333.0,1.0,1.0,1.0
43.96,284.4944,1.0,1.0,1.0
43.97,257.9889,1.0,1.0,1.0
43.98,276.5389,1.0,1.0,1.0
43.99,271.0,1.0,1.0,1.0
44.0,293.4722,1.0,1.0,1.0
44.01,316.5056,1.0,1.0,1.0
44.02,275.0111,1.0,1.0,1.0
44.03,292.4833,1.0,1.0,1.0
44.04,269.4944,1.0,1.0,1.0
44.05,278.0333,1.0,1.0,1.0
44.06,288.4833,1.0,1.0,1.0
44.07,288.4944,1.0,1.0,1.0
44.08,268.4944,1.0,1.0,1.0
44.09,276.0222,1.0,1.0,1.0
44.1,263.4833,1.0,1.0,1.0
44.11,253.5056,1.0,1.0,1.0
44.12,275.4833,1.0,1.0,1.0
44.13,243.0,1.0,1.0,1.0
44.14,252.5278,1.0,1.0,1.0
44.15,264.4833,1.0,1.0,1.0
44.16,247.5056,1.0,1.0,1.0
44.17,240.4944,1.0,1.0,1.0
44.18,226.0,1.0,1.0,1.0
44.19,215.5167,1.0,1.0,1.0
44.2,238.4944,1.0,1.0,1.0
44.21,197.4833,1.0,1.0,1.0
44.22,250.5056,1.0,1.0,1.0
44.23,206.5056,1.0,1.0,1.0
44.24,209.4944,1.0,1.0,1.0
44.25,211.0222,1.0,1.0,1.0
44.26,223.9889,1.0,1.0,1.0
44.27,209.5056,1.0,1.0,1.0
44.28,201.4944,1.0,1.0,1.0
44.29,161.0111,1.0,1.0,1.0
44.3,203.9889,1.0,1.0,1.0
44.31,217.4944,1.0,1.0,1.0
44.32,188.0111,1.0,1.0,1.0
44.33,217.9556,1.0,1.0,1.0
44.34,172.0555,1.0,1.0,1.0
44.35,185.4833,1.0,1.0,1.0
44.36,205.4722,1.0,1.0,1.0
44.37,174.0333,1.0,1.0,1.0
44.38,182.0,1.0,1.0,1.0
44.39,168.5056,1.0,1.0,1.0
44.4,151.0,1.0,1.0,1.0
44.41,148.4722,1.0,1.0,1.0
44.42,190.0111,1.0,1.0,1.0
44.43,159.5167,1.0,1.0,1.0
44.44,196.9889,1.0,1.0,1.0
44.45,180.5056,1.0,1.0,1.0
44.46,187.0,1.0,1.0,1.0
44.47,180.0,1.0,1.0,1.0
44.48,189.0,1.0,1.0,1.0
44.49,208.0,1.0,1.0,1.0
44.5,236.9889,1.0,1.0,1.0
44.51,215.0,1.0,1.0,1.0
44.52,223.0222,1.0,1.0,1.0
44.53,239.4722,1.0,1.0,1.0
44.54,228.0222,1.0,1.0,1.0
44.55,241.4833,1.0,1.0,1.0
44.56,255.4944,1.0,1.0,1.0
44.57,255.0111,1.0,1.0,1.0
44.58,260.9889,1.0,1.0,1.0
44.59,268.4944,1.0,1.0,1.0
44.6,255.5167,1.0,1.0,1.0
44.61,300.9667,1.0,1.0,1.0
44.62,294.5278,1.0,1.0,1.0
44.63,280.9778,1.0,1.0,1.0
44.64,338.0222,1.0,1.0,1.0
44.65,339.4944,1.0,1.0,1.0
44.66,366.4944,1.0,1.0,1.0
44.67,342.4944,1.0,1.0,1.0
44.68,350.5167,1.0,1.0,1.0
44.69,379.9778,1.0,1.0,1.0
44.7,372.0222,1.0,1.0,1.0
44.71,367.4833,1.0,1.0,1.0
44.72,375.0333,1.0,1.0,1.0
44.73,387.4944,1.0,1.0,1.0
44.74,434.4389,1.0,1.0,1.0
44.75,397.55,1.0,1.0,1.0
44.76,454.9667,1.0,1.0,1.0
44.77,424.0333,1.0,1.0,1.0
44.78,436.9556,1.0,1.0,1.0
44.79,483.0111,1.0,1.0,1.0
44.8,420.5056,1.0,1.0,1.0
44.81,446.5167,1.0,1.0,1.0
44.82,470.4722,1.0,1.0,1.0
44.83,462.5167,1.0,1.0,1.0
44.84,521.5167,1.0,1.0,1.0
44.85,411.9667,1.0,1.0,1.0
44.86,482.0111,1.0,1.0,1.0
44.87,430.4944,1.0,1.0,1.0
44.88,520.4833,1.0,1.0,1.0
44.89,500.5056,1.0,1.0,1.0
44.9,552.5056,1.0,1.0,1.0
44.91,514.9778,1.0,1.0,1.0
44.92,490.55,1.0,1.0,1.0
44.93,498.4944,1.0,1.0,1.0
44.94,477.0,1.0,1.0,1.0
44.95,494.4833,1.0,1.0,1.0
44.96,491.9778,1.0,1.0,1.0
44.97,499.5389,1.0,1.0,1.0
44.98,480.4722,1.0,1.0,1.0
44.99,496.0111,1.0,1.0,1.0
45.0,453.4944,1.0,1.0,1.0
45.01,420.5056,1.0,1.0,1.0
45.02,440.9778,1.0,1.0,1.0
45.03,422.0555,1.0,1.0,1.0
45.04,438.9778,1.0,1.0,1.0
45.05,435.5278,1.0,1.0,1.0
45.06,428.9889,1.0,1.0,1.0
45.07,376.4944,1.0,1.0,1.0
45.08,396.0,1.0,1.0,1.0
45.09,383.0111,1.0,1.0,1.0
45.1,358.4833,1.0,1.0,1.0
45.11,349.5167,1.0,1.0,1.0
45.12,290.9889,1.0,1.0,1.0
45.13,348.0222,1.0,1.0,1.0
45.14,281.9778,1.0,1.0,1.0
45.15,311.0,1.0,1.0,1.0
45.16,295.0222,1.0,1.0,1.0
45.17,296.4833,1.0,1.0,1.0
45.18,278.5167,1.0,1.0,1.0
45.19,249.9889,1.0,1.0,1.0
45.2,238.5056,1.0,1.0,1.0
45.21,301.0,1.0,1.0,1.0
45.22,217.4944,1.0,1.0,1.0
45.23,247.0,1.0,1.0,1.0
45.24,218.5167,1.0,1.0,1.0
45.25,231.4833,1.0,1.0,1.0
45.26,224.5056,1.0,1.0,1.0
45.27,214.4722,1.0,1.0,1.0
45.28,221.0333,1.0,1.0,1.0
45.29,209.4944,1.0,1.0,1.0
45.3,214.0111,1.0,1.0,1.0
45.31,177.4944,1.0,1.0,1.0
45.32,224.0,1.0,1.0,1.0
45.33,258.4944,1.0,1.0,1.0
45.34,278.9667,1.0,1.0,1.0
45.35,283.5056,1.0,1.0,1.0
45.36,319.0222,1.0,1.0,1.0
45.37,289.4944,1.0,1.0,1.0
45.38,339.4944,1.0,1.0,1.0
45.39,372.4833,1.0,1.0,1.0
45.4,400.4833,1.0,1.0,1.0
45.41,408.5278,1.0,1.0,1.0
45.42,510.4722,1.0,1.0,1.0
45.43,457.0222,1.0,1.0,1.0
45.44,589.9667,1.0,1.0,1.0
45.45,643.5278,1.0,1.0,1.0
45.46,664.4389,1.0,1.0,1.0
45.47,737.5056,1.0,1.0,1.0
45.48,722.4722,1.0,1.0,1.0
45.49,886.55,1.0,1.0,1.0
45.5,906.4944,1.0,1.0,1.0
45.51,1005.54,1.0,1.0,1.0
45.52,1059.91,1.0,1.0,1.0
45.53,1148.52,1.0,1.0,1.0
45.54,1216.92,1.0,1.0,1.0
45.55,1270.06,1.0,1.0,1.0
45.56,1480.01,1.0,1.0,1.0
45.57,1533.46,1.0,1.0,1.0
45.58,1611.02,1.0,1.0,1.0
45.59,1709.9,1.0,1.0,1.0
45.6,1946.06,1.0,1.0,1.0
45.61,1969.53,1.0,1.0,1.0
45.62,2122.41,1.0,1.0,1.0
45.63,2202.03,1.0,1.0,1.0
45.64,2376.96,1.0,1.0,1.0
45.65,2532.49,1.0,1.0,1.0
45.66,2677.98,1.0,1.0,1.0
45.67,2768.41,1.0,1.0,1.0
45.68,2902.62,1.0,1.0,1.0
45.69,3115.47,1.0,1.0,1.0
45.7,3314.36,1.0,1.0,1.0
45.71,3507.57,1.0,1.0,1.0
45.72,3565.97,1.0,1.0,1.0
45.73,3722.04,1.0,1.0,1.0
45.74,3951.439,1.0,1.0,1.0
45.75,4087.39,1.0,1.0,1.0
45.76,4311.61,1.0,1.0,1.0
45.77,4574.02,1.0,1.0,1.0
45.78,4939.76,1.0,1.0,1.0
45.79,5056.1,1.0,1.0,1.0
45.8,5295.94,1.0,1.0,1.0
45.81,5670.98,1.0,1.0,1.0
45.82,5919.01,1.0,1.0,1.0
45.83,6224.9,1.0,1.0,1.0
45.84,6614.439,1.0,1.0,1.0
45.85,6944.03,1.0,1.0,1.0
45.86,7472.03,1.0,1.0,1.0
45.87,7892.82,1.0,1.0,1.0
45.88,8590.44,1.0,1.0,1.0
45.89,9279.47,1.0,1.0,1.0
45.9,10150.2,1.0,1.0,1.0
45.91,11169.9,1.0,1.0,1.0
45.92,12686.4,1.0,1.0,1.0
45.93,14376.2,1.0,1.0,1.0
45.94,16433.8,1.0,1.0,1.0
45.95,19341.9,1.0,1.0,1.0
45.96,23108.6,1.0,1.0,1.0
45.97,28249.8,1.0,1.0,1.0
45.98,35421,1.0,1.0,1.0
45.99,45819.7,1.0,1.0,1.0
46.0,60876.4,1.0,1.0,1.0
46.01,83797.1,1.0,1.0,1.0
46.02,121053,1.0,1.0,1.0
46.03,179332,1.0,1.0,1.0
46.04,278047,1.0,1.0,1.0
46.05,485475,1.0,1.0,1.0
46.06,1087581.5,1.0,1.0,1.0
46.07,5718424.5,1.0,1.0,1.0
46.08,89441816.0,1.0,1.0,1.0
46.09,35814352.0,1.0,1.0,1.0
46.1,2557107.0,1.0,1.0,1.0
46.11,931484,1.0,1.0,1.0
46.12,539590,1.0,1.0,1.0
46.13,381231.0,1.0,1.0,1.0
46.14,277960.25,1.0,1.0,1.0
46.15,200477,1.0,1.0,1.0
46.16,151267,1.0,1.0,1.0
46.17,123709,1.0,1.0,1.0
46.18,105283,1.0,1.0,1.0
46.19,92880.1,1.0,1.0,1.0
46.2,83952.2,1.0,1.0,1.0
46.21,76477.875,1.0,1.0,1.0
46.22,70379.7,1.0,1.0,1.0
46.23,65535.6,1.0,1.0,1.0
46.24,61612.4,1.0,1.0,1.0
46.25,57833.7,1.0,1.0,1.0
46.26,55359.543,1.0,1.0,1.0
46.27,52792.7,1.0,1.0,1.0
46.28,49947.4,1.0,1.0,1.0
46.29,48298.1,1.0,1.0,1.0
46.3,47132.2,1.0,1.0,1.0
46.31,45545.9,1.0,1.0,1.0
46.32,43825.1,1.0,1.0,1.0
46.33,42758.5,1.0,1.0,1.0
46.34,41468.668,1.0,1.0,1.0
46.35,40180.8,1.0,1.0,1.0
46.36,38952.3,1.0,1.0,1.0
46.37,38422.3,1.0,1.0,1.0
46.38,37718.3,1.0,1.0,1.0
46.39,36736.8,1.0,1.0,1.0
46.4,35758.4,1.0,1.0,1.0
46.41,35053.7,1.0,1.0,1.0
46.42,34836.9,1.0,1.0,1.0
46.43,34068.8,1.0,1.0,1.0
46.44,33346,1.0,1.0,1.0
46.45,33067.6,1.0,1.0,1.0
46.46,32416.4,1.0,1.0,1.0
46.47,31716.9,1.0,1.0,1.0
46.48,31260.9,1.0,1.0,1.0
46.49,30772.416,1.0,1.0,1.0
46.5,29903,1.0,1.0,1.0
46.51,29871,1.0,1.0,1.0
46.52,29180.7,1.0,1.0,1.0
46.53,28649.7,1.0,1.0,1.0
46.54,27847.1,1.0,1.0,1.0
46.55,27681.5,1.0,1.0,1.0
46.56,26919.5,1.0,1.0,1.0
46.57,26607.7,1.0,1.0,1.0
46.58,26121.0,1.0,1.0,1.0
46.59,25448,1.0,1.0,1.0
46.6,25301.9,1.0,1.0,1.0
46.61,24387.9,1.0,1.0,1.0
46.62,23895.8,1.0,1.0,1.0
46.63,24019.7,1.0,1.0,1.0
46.64,23201,1.0,1.0,1.0
46.65,22654.6,1.0,1.0,1.0
46.66,22132.5,1.0,1.0,1.0
46.67,21928.6,1.0,1.0,1.0
46.68,21353.3,1.0,1.0,1.0
46.69,20959.9,1.0,1.0,1.0
46.7,20464.6,1.0,1.0,1.0
46.71,20199.0,1.0,1.0,1.0
46.72,19551,1.0,1.0,1.0
46.73,19130.1,1.0,1.0,1.0
46.74,18655.5,1.0,1.0,1.0
46.75,18171,1.0,1.0,1.0
46.76,17547.2,1.0,1.0,1.0
46.77,16983.6,1.0,1.0,1.0
46.78,16771.6,1.0,1.0,1.0
46.79,16463.8,1.0,1.0,1.0
46.8,15869.7,1.0,1.0,1.0
46.81,15341.9,1.0,1.0,1.0
46.82,15233.1,1.0,1.0,1.0
46.83,14620.6,1.0,1.0,1.0
46.84,14397.5,1.0,1.0,1.0
46.85,13933.5,1.0,1.0,1.0
46.86,13365.1,1.0,1.0,1.0
46.87,13121.417,1.0,1.0,1.0
46.88,12474.5,1.0,1.0,1.0
46.89,12252.3,1.0,1.0,1.0
46.9,11739.5,1.0,1.0,1.0
46.91,11319.4,1.0,1.0,1.0
46.92,11026.5,1.0,1.0,1.0
46.93,10738,1.0,1.0,1.0
46.94,10116.1,1.0,1.0,1.0
46.95,9986.73,1.0,1.0,1.0
46.96,9585.0,1.0,1.0,1.0
46.97,9211.91,1.0,1.0,1.0
46.98,9029.53,1.0,1.0,1.0
46.99,8622.13,1.0,1.0,1.0
47.0,8340.37,1.0,1.0,1.0
47.01,7874.71,1.0,1.0,1.0
47.02,7587.0,1.0,1.0,1.0
47.03,7252.49,1.0,1.0,1.0
47.04,6963.189,1.0,1.0,1.0
47.05,6631.45,1.0,1.0,1.0
47.06,6578.89,1.0,1.0,1.0
47.07,6033.61,1.0,1.0,1.0
47.08,5703.12,1.0,1.0,1.0
47.09,5597.48,1.0,1.0,1.0
47.1,5325.57,1.0,1.0,1.0
47.11,5055.37,1.0,1.0,1.0
47.12,4886.54,1.0,1.0,1.0
47.13,4576.1,1.0,1.0,1.0
47.14,4319.53,1.0,1.0,1.0
47.15,4034.06,1.0,1.0,1.0
47.16,3965.0,1.0,1.0,1.0
47.17,3665.51,1.0,1.0,1.0
47.18,3593.66,1.0,1.0,1.0
47.19,3383.36,1.0,1.0,1.0
47.2,3127.55,1.0,1.0,1.0
47.21,2930.48,1.0,1.0,1.0
47.22,2840.0,1.0,1.0,1.0
47.23,2698.07,1.0,1.0,1.0
47.24,2436.49,1.0,1.0,1.0
47.25,2254.55,1.0,1.0,1.0
47.26,2122.55,1.0,1.0,1.0
47.27,2015.96,1.0,1.0,1.0
47.28,1913.02,1.0,1.0,1.0
47.29,1794.55,1.0,1.0,1.0
47.3,1649.06,1.0,1.0,1.0
47.31,1547.87,1.0,1.0,1.0
47.32,1451.14,1.0,1.0,1.0
47.33,1305.48,1.0,1.0,1.0
47.34,1256.48,1.0,1.0,1.0
47.35,1142.55,1.0,1.0,1.0
47.36,1067.98,1.0,1.0,1.0
47.37,1091.01,1.0,1.0,1.0
47.38,942.9889,1.0,1.0,1.0
47.39,850.4944,1.0,1.0,1.0
47.4,816.0333,1.0,1.0,1.0
47.41,748.0111,1.0,1.0,1.0
47.42,711.4944,1.0,1.0,1.0
47.43,596.5167,1.0,1.0,1.0
47.44,560.5056,1.0,1.0,1.0
47.45,481.4722,1.0,1.0,1.0
47.46,463.0333,1.0,1.0,1.0
47.47,432.0,1.0,1.0,1.0
47.48,432.4944,1.0,1.0,1.0
47.49,408.5167,1.0,1.0,1.0
47.5,357.0222,1.0,1.0,1.0
47.51,338.4944,1.0,1.0,1.0
47.52,298.4944,1.0,1.0,1.0
47.53,284.5056,1.0,1.0,1.0
47.54,239.0,1.0,1.0,1.0
47.55,248.9667,1.0,1.0,1.0
47.56,235.5389,1.0,1.0,1.0
47.57,283.4944,1.0,1.0,1.0
47.58,216.5056,1.0,1.0,1.0
47.59,223.5056,1.0,1.0,1.0
47.6,200.0,1.0,1.0,1.0
47.61,256.9778,1.0,1.0,1.0
47.62,226.5056,1.0,1.0,1.0
47.63,204.0,1.0,1.0,1.0
47.64,210.0222,1.0,1.0,1.0
47.65,226.4722,1.0,1.0,1.0
47.66,226.4944,1.0,1.0,1.0
47.67,252.5167,1.0,1.0,1.0
47.68,271.0,1.0,1.0,1.0
47.69,257.9889,1.0,1.0,1.0
47.7,229.4944,1.0,1.0,1.0
47.71,299.0111,1.0,1.0,1.0
47.72,249.0,1.0,1.0,1.0
47.73,267.4944,1.0,1.0,1.0
47.74,300.4833,1.0,1.0,1.0
47.75,300.4722,1.0,1.0,1.0
47.76,304.5611,1.0,1.0,1.0
47.77,281.9556,1.0,1.0,1.0
47.78,337.5278,1.0,1.0,1.0
47.79,308.9889,1.0,1.0,1.0
47.8,305.4722,1.0,1.0,1.0
47.81,335.55,1.0,1.0,1.0
47.82,345.9556,1.0,1.0,1.0
47.83,328.0333,1.0,1.0,1.0
47.84,364.5056,1.0,1.0,1.0
47.85,335.0,1.0,1.0,1.0
47.86,335.4944,1.0,1.0,1.0
47.87,392.4833,1.0,1.0,1.0
47.88,371.9889,1.0,1.0,1.0
47.89,450.5167,1.0,1.0,1.0
47.9,401.5056,1.0,1.0,1.0
47.91,394.9889,1.0,1.0,1.0
47.92,362.9667,1.0,1.0,1.0
47.93,398.5167,1.0,1.0,1.0
47.94,418.5056,1.0,1.0,1.0
47.95,394.0,1.0,1.0,1.0
47.96,404.0222,1.0,1.0,1.0
47.97,444.0,1.0,1.0,1.0
47.98,415.4833,1.0,1.0,1.0
47.99,431.5167,1.0,1.0,1.0
48.0,394.9778,1.0,1.0,1.0
48.01,449.0,1.0,1.0,1.0
48.02,443.0333,1.0,1.0,1.0
48.03,383.9778,1.0,1.0,1.0
48.04,404.5056,1.0,1.0,1.0
48.05,366.4944,1.0,1.0,1.0
48.06,339.0111,1.0,1.0,1.0
48.07,368.9778,1.0,1.0,1.0
48.08,370.0,1.0,1.0,1.0
48.09,346.5167,1.0,1.0,1.0
48.1,379.0111,1.0,1.0,1.0
48.11,348.9889,1.0,1.0,1.0
48.12,295.0,1.0,1.0,1.0
48.13,331.9889,1.0,1.0,1.0
48.14,346.4722,1.0,1.0,1.0
48.15,343.0667,1.0,1.0,1.0
48.16,316.9778,1.0,1.0,1.0
48.17,332.0,1.0,1.0,1.0
48.18,333.0111,1.0,1.0,1.0
48.19,327.4722,1.0,1.0,1.0
48.2,333.0333,1.0,1.0,1.0
48.21,333.9667,1.0,1.0,1.0
48.22,306.0222,1.0,1.0,1.0
48.23,306.0111,1.0,1.0,1.0
48.24,287.9889,1.0,1.0,1.0
48.25,274.5056,1.0,1.0,1.0
48.26,240.5056,1.0,1.0,1.0
48.27,236.5167,1.0,1.0,1.0
48.28,249.45,1.0,1.0,1.0
48.29,256.0444,1.0,1.0,1.0
48.3,251.9889,1.0,1.0,1.0
48.31,223.4944,1.0,1.0,1.0
48.32,216.4944,1.0,1.0,1.0
48.33,242.0111,1.0,1.0,1.0
48.34,230.5167,1.0,1.0,1.0
48.35,217.4611,1.0,1.0,1.0
48.36,218.0111,1.0,1.0,1.0
48.37,197.0,1.0,1.0,1.0
48.38,216.5056,1.0,1.0,1.0
48.39,186.4722,1.0,1.0,1.0
48.4,211.0111,1.0,1.0,1.0
48.41,187.0222,1.0,1.0,1.0
48.42,207.0,1.0,1.0,1.0
48.43,206.4944,1.0,1.0,1.0
48.44,184.0111,1.0,1.0,1.0
48.45,176.4944,1.0,1.0,1.0
48.46,179.4833,1.0,1.0,1.0
48.47,169.5167,1.0,1.0,1.0
48.48,166.5056,1.0,1.0,1.0
48.49,159.4944,1.0,1.0,1.0
48.5,157.5167,1.0,1.0,1.0
48.51,158.9778,1.0,1.0,1.0
48.52,175.0,1.0,1.0,1.0
48.53,159.5056,1.0,1.0,1.0
48.54,150.0,1.0,1.0,1.0
48.55,153.0,1.0,1.0,1.0
48.56,142.4944,1.0,1.0,1.0
48.57,164.4944,1.0,1.0,1.0
48.58,183.5056,1.0,1.0,1.0
48.59,180.0111,1.0,1.0,1.0
48.6,137.9889,1.0,1.0,1.0
48.61,190.0,1.0,1.0,1.0
48.62,155.5167,1.0,1.0,1.0
48.63,154.0,1.0,1.0,1.0
48.64,146.9778,1.0,1.0,1.0
48.65,153.5056,1.0,1.0,1.0
48.66,157.4944,1.0,1.0,1.0
48.67,187.0111,1.0,1.0,1.0
48.68,148.0111,1.0,1.0,1.0
48.69,141.9667,1.0,1.0,1.0
48.7,183.0333,1.0,1.0,1.0
48.71,180.4722,1.0,1.0,1.0
48.72,175.5167,1.0,1.0,1.0
48.73,177.4944,1.0,1.0,1.0
48.74,166.5056,1.0,1.0,1.0
48.75,166.0,1.0,1.0,1.0
48.76,186.9778,1.0,1.0,1.0
48.77,136.5167,1.0,1.0,1.0
48.78,179.5056,1.0,1.0,1.0
48.79,188.0,1.0,1.0,1.0
48.8,165.5056,1.0,1.0,1.0
48.81,171.9889,1.0,1.0,1.0
48.82,153.5167,1.0,1.0,1.0
48.83,172.4944,1.0,1.0,1.0
48.84,220.4944,1.0,1.0,1.0
48.85,169.0,1.0,1.0,1.0
48.86,211.0,1.0,1.0,1.0
48.87,164.4833,1.0,1.0,1.0
48.88,187.0,1.0,1.0,1.0
48.89,198.5167,1.0,1.0,1.0
48.9,182.4944,1.0,1.0,1.0
48.91,213.5056,1.0,1.0,1.0
48.92,185.9889,1.0,1.0,1.0
48.93,185.5056,1.0,1.0,1.0
48.94,164.5056,1.0,1.0,1.0
48.95,191.0,1.0,1.0,1.0
48.96,201.4833,1.0,1.0,1.0
48.97,208.0,1.0,1.0,1.0
48.98,155.0111,1.0,1.0,1.0
48.99,186.4944,1.0,1.0,1.0
49.0,188.5167,1.0,1.0,1.0
49.01,179.9556,1.0,1.0,1.0
49.02,193.5167,1.0,1.0,1.0
49.03,189.0222,1.0,1.0,1.0
49.04,177.4944,1.0,1.0,1.0
49.05,202.0,1.0,1.0,1.0
49.06,190.5167,1.0,1.0,1.0
49.07,194.9889,1.0,1.0,1.0
49.08,185.0,1.0,1.0,1.0
49.09,163.4944,1.0,1.0,1.0
49.1,135.0111,1.0,1.0,1.0
49.11,154.4611,1.0,1.0,1.0
49.12,181.5278,1.0,1.0,1.0
49.13,186.0111,1.0,1.0,1.0
49.14,161.4944,1.0,1.0,1.0
49.15,187.5167,1.0,1.0,1.0
49.16,156.4833,1.0,1.0,1.0
49.17,184.5056,1.0,1.0,1.0
49.18,186.4833,1.0,1.0,1.0
49.19,175.0111,1.0,1.0,1.0
49.2,174.4944,1.0,1.0,1.0
49.21,162.5056,1.0,1.0,1.0
49.22,184.0111,1.0,1.0,1.0
49.23,138.5056,1.0,1.0,1.0
49.24,143.4944,1.0,1.0,1.0
49.25,170.9667,1.0,1.0,1.0
49.26,160.0333,1.0,1.0,1.0
49.27,181.0,1.0,1.0,1.0
49.28,172.4611,1.0,1.0,1.0
49.29,177.0111,1.0,1.0,1.0
49.3,150.0,1.0,1.0,1.0
49.31,162.0,1.0,1.0,1.0
49.32,180.5278,1.0,1.0,1.0
49.33,175.4722,1.0,1.0,1.0
49.34,138.0222,1.0,1.0,1.0
49.35,145.5056,1.0,1.0,1.0
49.36,156.4833,1.0,1.0,1.0
49.37,138.5056,1.0,1.0,1.0
49.38,118.5167,1.0,1.0,1.0
49.39,136.9889,1.0,1.0,1.0
49.4,169.5056,1.0,1.0,1.0
49.41,158.9889,1.0,1.0,1.0
49.42,152.5056,1.0,1.0,1.0
49.43,141.0,1.0,1.0,1.0
49.44,149.0,1.0,1.0,1.0
49.45,133.0111,1.0,1.0,1.0
49.46,169.9778,1.0,1.0,1.0
49.47,108.5167,1.0,1.0,1.0
49.48,119.0,1.0,1.0,1.0
49.49,149.9889,1.0,1.0,1.0
49.5,155.5056,1.0,1.0,1.0
49.51,136.0,1.0,1.0,1.0
49.52,149.0,1.0,1.0,1.0
49.53,142.0,1.0,1.0,1.0
49.54,149.0,1.0,1.0,1.0
49.55,156.0111,1.0,1.0,1.0
49.56,150.9889,1.0,1.0,1.0
49.57,160.0111,1.0,1.0,1.0
49.58,142.9778,1.0,1.0,1.0
49.59,169.9778,1.0,1.0,1.0
49.6,170.0333,1.0,1.0,1.0
49.61,167.4944,1.0,1.0,1.0
49.62,147.4944,1.0,1.0,1.0
49.63,126.5056,1.0,1.0,1.0
49.64,155.4944,1.0,1.0,1.0
49.65,130.9889,1.0,1.0,1.0
49.66,120.5056,1.0,1.0,1.0
49.67,139.5167,1.0,1.0,1.0
49.68,168.5056,1.0,1.0,1.0
49.69,139.4833,1.0,1.0,1.0
49.7,133.0222,1.0,1.0,1.0
49.71,163.9778,1.0,1.0,1.0
49.72,133.0111,1.0,1.0,1.0
49.73,153.9778,1.0,1.0,1.0
49.74,159.0222,1.0,1.0,1.0
49.75,145.0,1.0,1.0,1.0
49.76,151.4944,1.0,1.0,1.0
49.77,140.4944,1.0,1.0,1.0
49.78,123.5167,1.0,1.0,1.0
49.79,154.0,1.0,1.0,1.0
49.8,177.4944,1.0,1.0,1.0
49.81,131.4944,1.0,1.0,1.0
49.82,130.5056,1.0,1.0,1.0
49.83,145.0,1.0,1.0,1.0
49.84,131.4944,1.0,1.0,1.0
49.85,142.5056,1.0,1.0,1.0
49.86,152.0,1.0,1.0,1.0
49.87,147.4722,1.0,1.0,1.0
49.88,150.0222,1.0,1.0,1.0
49.89,160.9889,1.0,1.0,1.0
49.9,177.4944,1.0,1.0,1.0
49.91,166.5056,1.0,1.0,1.0
49.92,152.4944,1.0,1.0,1.0
49.93,155.5278,1.0,1.0,1.0
49.94,146.9889,1.0,1.0,1.0
49.95,148.0,1.0,1.0,1.0
49.96,180.5056,1.0,1.0,1.0
49.97,130.0111,1.0,1.0,1.0
49.98,162.4722,1.0,1.0,1.0
49.99,142.5056,1.0,1.0,1.0
50.0,135.0222,1.0,1.0,1.0
50.01,142.9778,1.0,1.0,1.0
50.02,164.4833,1.0,1.0,1.0
50.03,165.5278,1.0,1.0,1.0
50.04,143.5056,1.0,1.0,1.0
50.05,109.4833,1.0,1.0,1.0
50.06,153.0,1.0,1.0,1.0
50.07,162.0222,1.0,1.0,1.0
50.08,148.9889,1.0,1.0,1.0
50.09,163.9889,1.0,1.0,1.0
50.1,122.9889,1.0,1.0,1.0
50.11,177.5278,1.0,1.0,1.0
50.12,146.4944,1.0,1.0,1.0
50.13,150.4944,1.0,1.0,1.0
50.14,158.5056,1.0,1.0,1.0
50.15,149.5056,1.0,1.0,1.0
50.16,131.0,1.0,1.0,1.0
50.17,164.0,1.0,1.0,1.0
50.18,143.4833,1.0,1.0,1.0
50.19,173.5167,1.0,1.0,1.0
50.2,130.4833,1.0,1.0,1.0
50.21,126.4944,1.0,1.0,1.0
50.22,135.0222,1.0,1.0,1.0
50.23,133.4944,1.0,1.0,1.0
50.24,139.4944,1.0,1.0,1.0
50.25,127.4944,1.0,1.0,1.0
50.26,157.5167,1.0,1.0,1.0
50.27,132.9889,1.0,1.0,1.0
50.28,156.5056,1.0,1.0,1.0
50.29,156.0111,1.0,1.0,1.0
50.3,140.0,1.0,1.0,1.0
50.31,124.9889,1.0,1.0,1.0
50.32,181.4944,1.0,1.0,1.0
50.33,174.0,1.0,1.0,1.0
50.34,124.0,1.0,1.0,1.0
50.35,135.0111,1.0,1.0,1.0
50.36,143.0,1.0,1.0,1.0
50.37,131.0,1.0,1.0,1.0
50.38,143.0,1.0,1.0,1.0
50.39,150.0,1.0,1.0,1.0
50.4,148.4944,1.0,1.0,1.0
50.41,142.5056,1.0,1.0,1.0
50.42,154.4944,1.0,1.0,1.0
50.43,165.4944,1.0,1.0,1.0
50.44,129.5056,1.0,1.0,1.0
50.45,138.9889,1.0,1.0,1.0
50.46,160.5056,1.0,1.0,1.0
50.47,147.4944,1.0,1.0,1.0
50.48,124.0,1.0,1.0,1.0
50.49,128.4944,1.0,1.0,1.0
50.5,159.0111,1.0,1.0,1.0
50.51,130.0111,1.0,1.0,1.0
50.52,130.5056,1.0,1.0,1.0
50.53,119.4722,1.0,1.0,1.0
50.54,135.0222,1.0,1.0,1.0
50.55,152.4722,1.0,1.0,1.0
50.56,170.0111,1.0,1.0,1.0
50.57,141.0,1.0,1.0,1.0
50.58,147.0,1.0,1.0,1.0
50.59,122.0111,1.0,1.0,1.0
50.6,109.5056,1.0,1.0,1.0
50.61,149.9778,1.0,1.0,1.0
50.62,137.5056,1.0,1.0,1.0
50.63,120.5167,1.0,1.0,1.0
50.64,137.9778,1.0,1.0,1.0
50.65,141.5056,1.0,1.0,1.0
50.66,141.4944,1.0,1.0,1.0
50.67,142.0111,1.0,1.0,1.0
50.68,134.0,1.0,1.0,1.0
50.69,140.5056,1.0,1.0,1.0
50.7,134.4944,1.0,1.0,1.0
50.71,150.5056,1.0,1.0,1.0
50.72,135.0,1.0,1.0,1.0
50.73,153.9889,1.0,1.0,1.0
50.74,117.0,1.0,1.0,1.0
50.75,117.0,1.0,1.0,1.0
50.76,123.4944,1.0,1.0,1.0
50.77,138.5278,1.0,1.0,1.0
50.78,131.4833,1.0,1.0,1.0
50.79,130.4944,1.0,1.0,1.0
50.8,128.5167,1.0,1.0,1.0
50.81,162.4944,1.0,1.0,1.0
50.82,136.4944,1.0,1.0,1.0
50.83,171.0111,1.0,1.0,1.0
50.84,143.9889,1.0,1.0,1.0
50.85,137.0,1.0,1.0,1.0
50.86,163.9889,1.0,1.0,1.0
50.87,164.5167,1.0,1.0,1.0
50.88,169.9889,1.0,1.0,1.0
50.89,150.5056,1.0,1.0,1.0
50.9,134.9889,1.0,1.0,1.0
50.91,121.5167,1.0,1.0,1.0
50.92,148.4944,1.0,1.0,1.0
50.93,143.9778,1.0,1.0,1.0
50.94,131.5389,1.0,1.0,1.0
50.95,136.9889,1.0,1.0,1.0
50.96,139.0111,1.0,1.0,1.0
50.97,147.9778,1.0,1.0,1.0
50.98,152.4944,1.0,1.0,1.0
50.99,148.5167,1.0,1.0,1.0
51.0,147.4833,1.0,1.0,1.0
51.01,145.4944,1.0,1.0,1.0
51.02,150.0222,1.0,1.0,1.0
51.03,168.4944,1.0,1.0,1.0
51.04,146.5056,1.0,1.0,1.0
51.05,143.5056,1.0,1.0,1.0
51.06,126.9889,1.0,1.0,1.0
51.07,139.5056,1.0,1.0,1.0
51.08,135.0,1.0,1.0,1.0
51.09,126.4944,1.0,1.0,1.0
51.1,139.0,1.0,1.0,1.0
51.11,121.9889,1.0,1.0,1.0
51.12,144.5167,1.0,1.0,1.0
51.13,139.9889,1.0,1.0,1.0
51.14,149.5056,1.0,1.0,1.0
51.15,133.9889,1.0,1.0,1.0
51.16,143.0111,1.0,1.0,1.0
51.17,140.5167,1.0,1.0,1.0
51.18,118.4833,1.0,1.0,1.0
51.19,142.5056,1.0,1.0,1.0
51.2,147.9889,1.0,1.0,1.0
51.21,171.0111,1.0,1.0,1.0
51.22,155.9889,1.0,1.0,1.0
51.23,131.0,1.0,1.0,1.0
51.24,137.5056,1.0,1.0,1.0
51.25,147.5056,1.0,1.0,1.0
51.26,143.4944,1.0,1.0,1.0
51.27,144.9889,1.0,1.0,1.0
51.28,121.0222,1.0,1.0,1.0
51.29,146.9889,1.0,1.0,1.0
51.3,137.4944,1.0,1.0,1.0
51.31,119.5056,1.0,1.0,1.0
51.32,158.4944,1.0,1.0,1.0
51.33,123.0222,1.0,1.0,1.0
51.34,152.4722,1.0,1.0,1.0
51.35,166.0,1.0,1.0,1.0
51.36,135.0222,1.0,1.0,1.0
51.37,139.9889,1.0,1.0,1.0
51.38,146.0,1.0,1.0,1.0
51.39,157.5056,1.0,1.0,1.0
51.4,163.4944,1.0,1.0,1.0
51.41,146.4944,1.0,1.0,1.0
51.42,154.5167,1.0,1.0,1.0
51.43,146.9889,1.0,1.0,1.0
51.44,117.0111,1.0,1.0,1.0
51.45,157.9778,1.0,1.0,1.0
51.46,130.0111,1.0,1.0,1.0
51.47,136.0,1.0,1.0,1.0
51.48,142.0111,1.0,1.0,1.0
51.49,130.4944,1.0,1.0,1.0
51.5,142.4944,1.0,1.0,1.0
51.51,149.4833,1.0,1.0,1.0
51.52,162.0111,1.0,1.0,1.0
51.53,144.5167,1.0,1.0,1.0
51.54,135.4944,1.0,1.0,1.0
51.55,138.5056,1.0,1.0,1.0
51.56,138.4944,1.0,1.0,1.0
51.57,133.4833,1.0,1.0,1.0
51.58,158.0222,1.0,1.0,1.0
51.59,112.9889,1.0,1.0,1.0
51.6,143.5056,1.0,1.0,1.0
51.61,133.4944,1.0,1.0,1.0
51.62,145.4944,1.0,1.0,1.0
51.63,141.5167,1.0,1.0,1.0
51.64,145.9889,1.0,1.0,1.0
51.65,137.0,1.0,1.0,1.0
51.66,129.0111,1.0,1.0,1.0
51.67,136.0,1.0,1.0,1.0
51.68,149.4944,1.0,1.0,1.0
51.69,143.9889,1.0,1.0,1.0
51.7,142.4944,1.0,1.0,1.0
51.71,141.4944,1.0,1.0,1.0
51.72,135.4944,1.0,1.0,1.0
51.73,136.5278,1.0,1.0,1.0
51.74,140.0111,1.0,1.0,1.0
51.75,141.9889,1.0,1.0,1.0
51.76,170.0111,1.0,1.0,1.0
51.77,135.9889,1.0,1.0,1.0
51.78,149.4944,1.0,1.0,1.0
51.79,108.5167,1.0,1.0,1.0
51.8,134.9778,1.0,1.0,1.0
51.81,128.0111,1.0,1.0,1.0
51.82,134.9889,1.0,1.0,1.0
51.83,165.5056,1.0,1.0,1.0
51.84,160.5056,1.0,1.0,1.0
51.85,133.0,1.0,1.0,1.0
51.86,142.5056,1.0,1.0,1.0
51.87,139.0,1.0,1.0,1.0
51.88,133.4944,1.0,1.0,1.0
51.89,149.9889,1.0,1.0,1.0
51.9,139.0111,1.0,1.0,1.0
51.91,130.0,1.0,1.0,1.0
51.92,152.0,1.0,1.0,1.0
51.93,137.0,1.0,1.0,1.0
51.94,123.0,1.0,1.0,1.0
51.95,156.5056,1.0,1.0,1.0
51.96,157.9889,1.0,1.0,1.0
51.97,143.0111,1.0,1.0,1.0
51.98,132.4833,1.0,1.0,1.0
51.99,140.5056,1.0,1.0,1.0
52.0,139.5056,1.0,1.0,1.0