File: XRD:XRR/SCO/22102_S(CT)OL/22102_S(CT)OL_XRD_notAnn_001.csv
#twotheta, yobs, ycal, bkg, diff
16.0,0.0,1.0,1.0,1.0
16.02,1.0,1.0,1.0,1.0
16.04,0.0,1.0,1.0,1.0
16.06,5.0,1.0,1.0,1.0
16.08,3.0,1.0,1.0,1.0
16.1,0.0,1.0,1.0,1.0
16.12,0.0,1.0,1.0,1.0
16.14,0.0,1.0,1.0,1.0
16.16,13.0,1.0,1.0,1.0
16.18,0.0,1.0,1.0,1.0
16.2,2.0,1.0,1.0,1.0
16.22,2.0,1.0,1.0,1.0
16.24,1.0,1.0,1.0,1.0
16.26,2.0,1.0,1.0,1.0
16.28,2.0,1.0,1.0,1.0
16.3,0.0,1.0,1.0,1.0
16.32,0.0,1.0,1.0,1.0
16.34,0.0,1.0,1.0,1.0
16.36,0.0,1.0,1.0,1.0
16.38,0.0,1.0,1.0,1.0
16.4,0.0,1.0,1.0,1.0
16.42,4.0,1.0,1.0,1.0
16.44,2.0,1.0,1.0,1.0
16.46,0.0,1.0,1.0,1.0
16.48,0.0,1.0,1.0,1.0
16.5,51.0,1.0,1.0,1.0
16.52,2.0,1.0,1.0,1.0
16.54,0.0,1.0,1.0,1.0
16.56,4.0,1.0,1.0,1.0
16.58,0.0,1.0,1.0,1.0
16.6,4.0,1.0,1.0,1.0
16.62,1.5008,1.0,1.0,1.0
16.64,0.0,1.0,1.0,1.0
16.66,0.0,1.0,1.0,1.0
16.68,2.0,1.0,1.0,1.0
16.7,2.0,1.0,1.0,1.0
16.72,2.0,1.0,1.0,1.0
16.74,0.0,1.0,1.0,1.0
16.76,0.0,1.0,1.0,1.0
16.78,3.0,1.0,1.0,1.0
16.8,0.0,1.0,1.0,1.0
16.82,0.0,1.0,1.0,1.0
16.84,2.0,1.0,1.0,1.0
16.86,0.0,1.0,1.0,1.0
16.88,2.0,1.0,1.0,1.0
16.9,0.0,1.0,1.0,1.0
16.92,0.0,1.0,1.0,1.0
16.94,2.0,1.0,1.0,1.0
16.96,2.0,1.0,1.0,1.0
16.98,2.0,1.0,1.0,1.0
17.0,6.0,1.0,1.0,1.0
17.02,5.0,1.0,1.0,1.0
17.04,0.0,1.0,1.0,1.0
17.06,0.0,1.0,1.0,1.0
17.08,0.0,1.0,1.0,1.0
17.1,2.0,1.0,1.0,1.0
17.12,2.0,1.0,1.0,1.0
17.14,1.0,1.0,1.0,1.0
17.16,2.0,1.0,1.0,1.0
17.18,4.0,1.0,1.0,1.0
17.2,3.0,1.0,1.0,1.0
17.22,0.0,1.0,1.0,1.0
17.24,0.0,1.0,1.0,1.0
17.26,2.0,1.0,1.0,1.0
17.28,2.0,1.0,1.0,1.0
17.3,0.0,1.0,1.0,1.0
17.32,0.0,1.0,1.0,1.0
17.34,2.0,1.0,1.0,1.0
17.36,0.0,1.0,1.0,1.0
17.38,2.0,1.0,1.0,1.0
17.4,0.0,1.0,1.0,1.0
17.42,2.0,1.0,1.0,1.0
17.44,0.0,1.0,1.0,1.0
17.46,2.4992,1.0,1.0,1.0
17.48,4.0,1.0,1.0,1.0
17.5,2.0,1.0,1.0,1.0
17.52,4.0,1.0,1.0,1.0
17.54,4.0,1.0,1.0,1.0
17.56,5.5024,1.0,1.0,1.0
17.58,11.0,1.0,1.0,1.0
17.6,4.4992,1.0,1.0,1.0
17.62,3.0,1.0,1.0,1.0
17.64,0.0,1.0,1.0,1.0
17.66,2.0,1.0,1.0,1.0
17.68,2.0,1.0,1.0,1.0
17.7,4.0,1.0,1.0,1.0
17.72,5.0,1.0,1.0,1.0
17.74,2.0,1.0,1.0,1.0
17.76,2.0,1.0,1.0,1.0
17.78,0.0,1.0,1.0,1.0
17.8,4.0,1.0,1.0,1.0
17.82,2.0,1.0,1.0,1.0
17.84,1.0,1.0,1.0,1.0
17.86,4.0,1.0,1.0,1.0
17.88,0.0,1.0,1.0,1.0
17.9,0.0,1.0,1.0,1.0
17.92,2.0,1.0,1.0,1.0
17.94,0.0,1.0,1.0,1.0
17.96,2.5008,1.0,1.0,1.0
17.98,0.0,1.0,1.0,1.0
18.0,2.0,1.0,1.0,1.0
18.02,0.0,1.0,1.0,1.0
18.04,3.0,1.0,1.0,1.0
18.06,0.0,1.0,1.0,1.0
18.08,2.0,1.0,1.0,1.0
18.1,0.0,1.0,1.0,1.0
18.12,6.0,1.0,1.0,1.0
18.14,0.0,1.0,1.0,1.0
18.16,0.0,1.0,1.0,1.0
18.18,0.0,1.0,1.0,1.0
18.2,3.0,1.0,1.0,1.0
18.22,0.0,1.0,1.0,1.0
18.24,0.0,1.0,1.0,1.0
18.26,2.0,1.0,1.0,1.0
18.28,3.0,1.0,1.0,1.0
18.3,0.0,1.0,1.0,1.0
18.32,3.0,1.0,1.0,1.0
18.34,0.0,1.0,1.0,1.0
18.36,4.0,1.0,1.0,1.0
18.38,0.0,1.0,1.0,1.0
18.4,0.0,1.0,1.0,1.0
18.42,0.0,1.0,1.0,1.0
18.44,0.0,1.0,1.0,1.0
18.46,1.0,1.0,1.0,1.0
18.48,2.0,1.0,1.0,1.0
18.5,2.0,1.0,1.0,1.0
18.52,0.0,1.0,1.0,1.0
18.54,0.0,1.0,1.0,1.0
18.56,0.0,1.0,1.0,1.0
18.58,2.0,1.0,1.0,1.0
18.6,0.0,1.0,1.0,1.0
18.62,0.0,1.0,1.0,1.0
18.64,0.0,1.0,1.0,1.0
18.66,1.4992,1.0,1.0,1.0
18.68,7.0,1.0,1.0,1.0
18.7,0.0,1.0,1.0,1.0
18.72,0.0,1.0,1.0,1.0
18.74,0.0,1.0,1.0,1.0
18.76,4.0,1.0,1.0,1.0
18.78,0.0,1.0,1.0,1.0
18.8,7.0,1.0,1.0,1.0
18.82,4.0,1.0,1.0,1.0
18.84,2.0,1.0,1.0,1.0
18.86,3.0,1.0,1.0,1.0
18.88,2.0,1.0,1.0,1.0
18.9,2.0,1.0,1.0,1.0
18.92,9.0,1.0,1.0,1.0
18.94,0.0,1.0,1.0,1.0
18.96,5.5008,1.0,1.0,1.0
18.98,6.0,1.0,1.0,1.0
19.0,2.0,1.0,1.0,1.0
19.02,4.0,1.0,1.0,1.0
19.04,1.4992,1.0,1.0,1.0
19.06,0.0,1.0,1.0,1.0
19.08,2.0,1.0,1.0,1.0
19.1,2.0,1.0,1.0,1.0
19.12,0.0,1.0,1.0,1.0
19.14,0.0,1.0,1.0,1.0
19.16,0.0,1.0,1.0,1.0
19.18,2.0,1.0,1.0,1.0
19.2,0.0,1.0,1.0,1.0
19.22,0.0,1.0,1.0,1.0
19.24,0.0,1.0,1.0,1.0
19.26,2.0,1.0,1.0,1.0
19.28,0.0,1.0,1.0,1.0
19.3,2.5008,1.0,1.0,1.0
19.32,0.0,1.0,1.0,1.0
19.34,2.0,1.0,1.0,1.0
19.36,2.0,1.0,1.0,1.0
19.38,0.0,1.0,1.0,1.0
19.4,1.0,1.0,1.0,1.0
19.42,2.0,1.0,1.0,1.0
19.44,0.0,1.0,1.0,1.0
19.46,5.0,1.0,1.0,1.0
19.48,5.0,1.0,1.0,1.0
19.5,5.0,1.0,1.0,1.0
19.52,0.0,1.0,1.0,1.0
19.54,0.0,1.0,1.0,1.0
19.56,9.0,1.0,1.0,1.0
19.58,5.0,1.0,1.0,1.0
19.6,2.0,1.0,1.0,1.0
19.62,4.0,1.0,1.0,1.0
19.64,0.0,1.0,1.0,1.0
19.66,0.0,1.0,1.0,1.0
19.68,0.0,1.0,1.0,1.0
19.7,0.0,1.0,1.0,1.0
19.72,3.0,1.0,1.0,1.0
19.74,5.0,1.0,1.0,1.0
19.76,0.0,1.0,1.0,1.0
19.78,1.4992,1.0,1.0,1.0
19.8,6.0,1.0,1.0,1.0
19.82,4.0,1.0,1.0,1.0
19.84,4.0,1.0,1.0,1.0
19.86,0.0,1.0,1.0,1.0
19.88,2.4992,1.0,1.0,1.0
19.9,0.0,1.0,1.0,1.0
19.92,0.0,1.0,1.0,1.0
19.94,2.0,1.0,1.0,1.0
19.96,0.0,1.0,1.0,1.0
19.98,2.0,1.0,1.0,1.0
20.0,2.0,1.0,1.0,1.0
20.02,5.0,1.0,1.0,1.0
20.04,3.0,1.0,1.0,1.0
20.06,0.0,1.0,1.0,1.0
20.08,7.4992,1.0,1.0,1.0
20.1,0.0,1.0,1.0,1.0
20.12,2.0,1.0,1.0,1.0
20.14,3.0,1.0,1.0,1.0
20.16,0.0,1.0,1.0,1.0
20.18,2.0,1.0,1.0,1.0
20.2,0.0,1.0,1.0,1.0
20.22,9.0,1.0,1.0,1.0
20.24,3.0,1.0,1.0,1.0
20.26,1.5008,1.0,1.0,1.0
20.28,0.0,1.0,1.0,1.0
20.3,0.0,1.0,1.0,1.0
20.32,3.0,1.0,1.0,1.0
20.34,0.0,1.0,1.0,1.0
20.36,0.0,1.0,1.0,1.0
20.38,4.0,1.0,1.0,1.0
20.4,0.0,1.0,1.0,1.0
20.42,2.0,1.0,1.0,1.0
20.44,0.0,1.0,1.0,1.0
20.46,0.0,1.0,1.0,1.0
20.48,1.0,1.0,1.0,1.0
20.5,0.4992,1.0,1.0,1.0
20.52,2.0,1.0,1.0,1.0
20.54,4.0,1.0,1.0,1.0
20.56,3.0,1.0,1.0,1.0
20.58,6.0,1.0,1.0,1.0
20.6,2.0,1.0,1.0,1.0
20.62,1.4992,1.0,1.0,1.0
20.64,2.0,1.0,1.0,1.0
20.66,2.0,1.0,1.0,1.0
20.68,2.0,1.0,1.0,1.0
20.7,3.0,1.0,1.0,1.0
20.72,6.0,1.0,1.0,1.0
20.74,0.0,1.0,1.0,1.0
20.76,4.0,1.0,1.0,1.0
20.78,0.0,1.0,1.0,1.0
20.8,0.0,1.0,1.0,1.0
20.82,0.0,1.0,1.0,1.0
20.84,0.0,1.0,1.0,1.0
20.86,5.0,1.0,1.0,1.0
20.88,5.0,1.0,1.0,1.0
20.9,5.0,1.0,1.0,1.0
20.92,0.0,1.0,1.0,1.0
20.94,3.0,1.0,1.0,1.0
20.96,0.0,1.0,1.0,1.0
20.98,0.0,1.0,1.0,1.0
21.0,3.5008,1.0,1.0,1.0
21.02,2.0,1.0,1.0,1.0
21.04,4.0,1.0,1.0,1.0
21.06,2.0,1.0,1.0,1.0
21.08,7.0,1.0,1.0,1.0
21.1,7.0,1.0,1.0,1.0
21.12,2.0,1.0,1.0,1.0
21.14,0.0,1.0,1.0,1.0
21.16,3.0,1.0,1.0,1.0
21.18,0.0,1.0,1.0,1.0
21.2,1.0,1.0,1.0,1.0
21.22,0.0,1.0,1.0,1.0
21.24,2.4992,1.0,1.0,1.0
21.26,0.0,1.0,1.0,1.0
21.28,0.0,1.0,1.0,1.0
21.3,2.0,1.0,1.0,1.0
21.32,1.4992,1.0,1.0,1.0
21.34,2.0,1.0,1.0,1.0
21.36,0.0,1.0,1.0,1.0
21.38,0.0,1.0,1.0,1.0
21.4,2.4992,1.0,1.0,1.0
21.42,7.0,1.0,1.0,1.0
21.44,4.0,1.0,1.0,1.0
21.46,4.0,1.0,1.0,1.0
21.48,2.0,1.0,1.0,1.0
21.5,10.0,1.0,1.0,1.0
21.52,8.0,1.0,1.0,1.0
21.54,7.0,1.0,1.0,1.0
21.56,5.0,1.0,1.0,1.0
21.58,9.0016,1.0,1.0,1.0
21.6,11.0,1.0,1.0,1.0
21.62,2.9984,1.0,1.0,1.0
21.64,8.0,1.0,1.0,1.0
21.66,15.0,1.0,1.0,1.0
21.68,12.0,1.0,1.0,1.0
21.7,6.0,1.0,1.0,1.0
21.72,10.9984,1.0,1.0,1.0
21.74,14.0,1.0,1.0,1.0
21.76,5.0,1.0,1.0,1.0
21.78,12.0,1.0,1.0,1.0
21.8,13.0,1.0,1.0,1.0
21.82,4.0,1.0,1.0,1.0
21.84,13.0,1.0,1.0,1.0
21.86,13.0,1.0,1.0,1.0
21.88,3.0,1.0,1.0,1.0
21.9,10.9984,1.0,1.0,1.0
21.92,6.0,1.0,1.0,1.0
21.94,8.5008,1.0,1.0,1.0
21.96,9.4992,1.0,1.0,1.0
21.98,2.0,1.0,1.0,1.0
22.0,8.4992,1.0,1.0,1.0
22.02,12.0,1.0,1.0,1.0
22.04,9.0,1.0,1.0,1.0
22.06,3.0,1.0,1.0,1.0
22.08,2.0,1.0,1.0,1.0
22.1,11.0,1.0,1.0,1.0
22.12,16.0,1.0,1.0,1.0
22.14,30.0,1.0,1.0,1.0
22.16,18.5024,1.0,1.0,1.0
22.18,24.0,1.0,1.0,1.0
22.2,8.0,1.0,1.0,1.0
22.22,13.5008,1.0,1.0,1.0
22.24,5.0,1.0,1.0,1.0
22.26,13.0,1.0,1.0,1.0
22.28,16.0,1.0,1.0,1.0
22.3,15.5008,1.0,1.0,1.0
22.32,15.0,1.0,1.0,1.0
22.34,23.4992,1.0,1.0,1.0
22.36,33.0016,1.0,1.0,1.0
22.38,35.0,1.0,1.0,1.0
22.4,42.4992,1.0,1.0,1.0
22.42,70.0,1.0,1.0,1.0
22.44,87.4992,1.0,1.0,1.0
22.46,67.0,1.0,1.0,1.0
22.48,151.4976,1.0,1.0,1.0
22.5,139.0016,1.0,1.0,1.0
22.52,197.4961,1.0,1.0,1.0
22.54,187.0016,1.0,1.0,1.0
22.56,239.9984,1.0,1.0,1.0
22.58,282.9937,1.0,1.0,1.0
22.6,259.9984,1.0,1.0,1.0
22.62,277.9984,1.0,1.0,1.0
22.64,280.0016,1.0,1.0,1.0
22.66,335.5008,1.0,1.0,1.0
22.68,329.9969,1.0,1.0,1.0
22.7,308.0016,1.0,1.0,1.0
22.72,286.9969,1.0,1.0,1.0
22.74,330.9984,1.0,1.0,1.0
22.76,278.0,1.0,1.0,1.0
22.78,277.9984,1.0,1.0,1.0
22.8,223.0047,1.0,1.0,1.0
22.82,208.9969,1.0,1.0,1.0
22.84,166.5039,1.0,1.0,1.0
22.86,167.9984,1.0,1.0,1.0
22.88,185.4992,1.0,1.0,1.0
22.9,145.4976,1.0,1.0,1.0
22.92,140.9969,1.0,1.0,1.0
22.94,135.4992,1.0,1.0,1.0
22.96,159.0,1.0,1.0,1.0
22.98,129.4992,1.0,1.0,1.0
23.0,178.4976,1.0,1.0,1.0
23.02,165.9984,1.0,1.0,1.0
23.04,185.9969,1.0,1.0,1.0
23.06,206.5024,1.0,1.0,1.0
23.08,271.0,1.0,1.0,1.0
23.1,243.4992,1.0,1.0,1.0
23.12,331.4992,1.0,1.0,1.0
23.14,399.9937,1.0,1.0,1.0
23.16,415.0,1.0,1.0,1.0
23.18,429.0094,1.0,1.0,1.0
23.2,519.5039,1.0,1.0,1.0
23.22,489.5023,1.0,1.0,1.0
23.24,623.4976,1.0,1.0,1.0
23.26,743.9984,1.0,1.0,1.0
23.28,1032.51,1.0,1.0,1.0
23.3,1361.99,1.0,1.0,1.0
23.32,1948.99,1.0,1.0,1.0
23.34,3350.98,1.0,1.0,1.0
23.36,6061.96,1.0,1.0,1.0
23.38,13858.9,1.0,1.0,1.0
23.4,43666.4,1.0,1.0,1.0
23.42,1094773.875,1.0,1.0,1.0
23.44,1911988.125,1.0,1.0,1.0
23.46,4014274.75,1.0,1.0,1.0
23.48,5233420.0,1.0,1.0,1.0
23.5,1640876.875,1.0,1.0,1.0
23.52,168230,1.0,1.0,1.0
23.54,55145.9,1.0,1.0,1.0
23.56,21815.7,1.0,1.0,1.0
23.58,9699.05,1.0,1.0,1.0
23.6,4839.03,1.0,1.0,1.0
23.62,2886.51,1.0,1.0,1.0
23.64,1740,1.0,1.0,1.0
23.66,1299,1.0,1.0,1.0
23.68,945.9968,1.0,1.0,1.0
23.7,682.0047,1.0,1.0,1.0
23.72,615.0016,1.0,1.0,1.0
23.74,432.9953,1.0,1.0,1.0
23.76,364.4977,1.0,1.0,1.0
23.78,307.0063,1.0,1.0,1.0
23.8,260.9984,1.0,1.0,1.0
23.82,252.0031,1.0,1.0,1.0
23.84,211.0,1.0,1.0,1.0
23.86,161.5024,1.0,1.0,1.0
23.88,136.0016,1.0,1.0,1.0
23.9,142.4976,1.0,1.0,1.0
23.92,100.9984,1.0,1.0,1.0
23.94,119.0,1.0,1.0,1.0
23.96,97.4976,1.0,1.0,1.0
23.98,87.4992,1.0,1.0,1.0
24.0,70.0016,1.0,1.0,1.0
24.02,92.0016,1.0,1.0,1.0
24.04,68.0,1.0,1.0,1.0
24.06,68.4992,1.0,1.0,1.0
24.08,82.0,1.0,1.0,1.0
24.1,69.0,1.0,1.0,1.0
24.12,42.0,1.0,1.0,1.0
24.14,46.4992,1.0,1.0,1.0
24.16,49.0,1.0,1.0,1.0
24.18,56.4992,1.0,1.0,1.0
24.2,22.4992,1.0,1.0,1.0
24.22,7.0,1.0,1.0,1.0
24.24,26.0,1.0,1.0,1.0
24.26,21.0,1.0,1.0,1.0
24.28,32.5008,1.0,1.0,1.0
24.3,26.5008,1.0,1.0,1.0
24.32,27.0,1.0,1.0,1.0
24.34,13.9984,1.0,1.0,1.0
24.36,28.4992,1.0,1.0,1.0
24.38,28.0,1.0,1.0,1.0
24.4,24.9984,1.0,1.0,1.0
24.42,18.0,1.0,1.0,1.0
24.44,17.5008,1.0,1.0,1.0
24.46,16.0,1.0,1.0,1.0
24.48,23.4992,1.0,1.0,1.0
24.5,13.0,1.0,1.0,1.0
24.52,23.0,1.0,1.0,1.0
24.54,10.4992,1.0,1.0,1.0
24.56,11.9984,1.0,1.0,1.0
24.58,6.0,1.0,1.0,1.0
24.6,17.0,1.0,1.0,1.0
24.62,6.5008,1.0,1.0,1.0
24.64,5.4992,1.0,1.0,1.0
24.66,12.0,1.0,1.0,1.0
24.68,8.0,1.0,1.0,1.0
24.7,7.0,1.0,1.0,1.0
24.72,17.4992,1.0,1.0,1.0
24.74,19.0,1.0,1.0,1.0
24.76,2.0,1.0,1.0,1.0
24.78,10.0,1.0,1.0,1.0
24.8,2.0,1.0,1.0,1.0
24.82,5.0,1.0,1.0,1.0
24.84,16.0,1.0,1.0,1.0
24.86,0.0,1.0,1.0,1.0
24.88,2.0,1.0,1.0,1.0
24.9,2.0,1.0,1.0,1.0
24.92,4.0,1.0,1.0,1.0
24.94,11.0,1.0,1.0,1.0
24.96,4.0,1.0,1.0,1.0
24.98,6.0,1.0,1.0,1.0
25.0,6.0,1.0,1.0,1.0
25.02,9.0,1.0,1.0,1.0
25.04,5.0,1.0,1.0,1.0
25.06,5.4992,1.0,1.0,1.0
25.08,3.0,1.0,1.0,1.0
25.1,9.0,1.0,1.0,1.0
25.12,0.0,1.0,1.0,1.0
25.14,0.0,1.0,1.0,1.0
25.16,2.0,1.0,1.0,1.0
25.18,6.0,1.0,1.0,1.0
25.2,0.0,1.0,1.0,1.0
25.22,3.0,1.0,1.0,1.0
25.24,21.0,1.0,1.0,1.0
25.26,6.0,1.0,1.0,1.0
25.28,3.0,1.0,1.0,1.0
25.3,7.0,1.0,1.0,1.0
25.32,10.0,1.0,1.0,1.0
25.34,0.0,1.0,1.0,1.0
25.36,0.0,1.0,1.0,1.0
25.38,6.0,1.0,1.0,1.0
25.4,11.0,1.0,1.0,1.0
25.42,2.0,1.0,1.0,1.0
25.44,0.0,1.0,1.0,1.0
25.46,4.0,1.0,1.0,1.0
25.48,5.0,1.0,1.0,1.0
25.5,4.0,1.0,1.0,1.0
25.52,5.0,1.0,1.0,1.0
25.54,2.0,1.0,1.0,1.0
25.56,2.0,1.0,1.0,1.0
25.58,2.0,1.0,1.0,1.0
25.6,3.5008,1.0,1.0,1.0
25.62,0.0,1.0,1.0,1.0
25.64,0.0,1.0,1.0,1.0
25.66,2.0,1.0,1.0,1.0
25.68,0.0,1.0,1.0,1.0
25.7,3.0,1.0,1.0,1.0
25.72,2.0,1.0,1.0,1.0
25.74,5.0016,1.0,1.0,1.0
25.76,6.0,1.0,1.0,1.0
25.78,0.0,1.0,1.0,1.0
25.8,5.0,1.0,1.0,1.0
25.82,1.0,1.0,1.0,1.0
25.84,2.0,1.0,1.0,1.0
25.86,3.0,1.0,1.0,1.0
25.88,8.0,1.0,1.0,1.0
25.9,0.0,1.0,1.0,1.0
25.92,1.0,1.0,1.0,1.0
25.94,2.0,1.0,1.0,1.0
25.96,12.0016,1.0,1.0,1.0
25.98,3.0,1.0,1.0,1.0
26.0,2.0,1.0,1.0,1.0
26.02,2.0,1.0,1.0,1.0
26.04,6.0,1.0,1.0,1.0
26.06,0.0,1.0,1.0,1.0
26.08,3.0,1.0,1.0,1.0
26.1,2.0,1.0,1.0,1.0
26.12,0.0,1.0,1.0,1.0
26.14,0.0,1.0,1.0,1.0
26.16,0.0,1.0,1.0,1.0
26.18,5.0,1.0,1.0,1.0
26.2,6.4992,1.0,1.0,1.0
26.22,0.0,1.0,1.0,1.0
26.24,0.0,1.0,1.0,1.0
26.26,2.0,1.0,1.0,1.0
26.28,4.0,1.0,1.0,1.0
26.3,5.0,1.0,1.0,1.0
26.32,0.0,1.0,1.0,1.0
26.34,1.0,1.0,1.0,1.0
26.36,1.0,1.0,1.0,1.0
26.38,0.0,1.0,1.0,1.0
26.4,0.0,1.0,1.0,1.0
26.42,0.0,1.0,1.0,1.0
26.44,1.0,1.0,1.0,1.0
26.46,2.0,1.0,1.0,1.0
26.48,0.0,1.0,1.0,1.0
26.5,0.0,1.0,1.0,1.0
26.52,0.0,1.0,1.0,1.0
26.54,4.0,1.0,1.0,1.0
26.56,0.0,1.0,1.0,1.0
26.58,5.0,1.0,1.0,1.0
26.6,3.0,1.0,1.0,1.0
26.62,2.0,1.0,1.0,1.0
26.64,0.0,1.0,1.0,1.0
26.66,5.0,1.0,1.0,1.0
26.68,8.0,1.0,1.0,1.0
26.7,4.0,1.0,1.0,1.0
26.72,2.0,1.0,1.0,1.0
26.74,0.0,1.0,1.0,1.0
26.76,1.0,1.0,1.0,1.0
26.78,1.0,1.0,1.0,1.0
26.8,0.0,1.0,1.0,1.0
26.82,2.5008,1.0,1.0,1.0
26.84,2.0,1.0,1.0,1.0
26.86,2.0,1.0,1.0,1.0
26.88,0.0,1.0,1.0,1.0
26.9,7.0,1.0,1.0,1.0
26.92,0.5008,1.0,1.0,1.0
26.94,0.0,1.0,1.0,1.0
26.96,0.0,1.0,1.0,1.0
26.98,2.0,1.0,1.0,1.0
27.0,0.0,1.0,1.0,1.0
27.02,0.0,1.0,1.0,1.0
27.04,0.0,1.0,1.0,1.0
27.06,2.0,1.0,1.0,1.0
27.08,0.0,1.0,1.0,1.0
27.1,2.0,1.0,1.0,1.0
27.12,0.0,1.0,1.0,1.0
27.14,0.5008,1.0,1.0,1.0
27.16,7.0,1.0,1.0,1.0
27.18,3.0,1.0,1.0,1.0
27.2,0.0,1.0,1.0,1.0
27.22,6.0,1.0,1.0,1.0
27.24,5.0,1.0,1.0,1.0
27.26,5.0,1.0,1.0,1.0
27.28,6.0,1.0,1.0,1.0
27.3,0.0,1.0,1.0,1.0
27.32,2.0,1.0,1.0,1.0
27.34,8.0,1.0,1.0,1.0
27.36,2.0,1.0,1.0,1.0
27.38,4.0,1.0,1.0,1.0
27.4,6.0,1.0,1.0,1.0
27.42,2.0,1.0,1.0,1.0
27.44,0.0,1.0,1.0,1.0
27.46,3.0,1.0,1.0,1.0
27.48,2.0,1.0,1.0,1.0
27.5,2.0,1.0,1.0,1.0
27.52,3.0,1.0,1.0,1.0
27.54,0.0,1.0,1.0,1.0
27.56,6.0,1.0,1.0,1.0
27.58,1.0,1.0,1.0,1.0
27.6,2.0,1.0,1.0,1.0
27.62,0.0,1.0,1.0,1.0
27.64,2.0,1.0,1.0,1.0
27.66,2.0,1.0,1.0,1.0
27.68,2.0,1.0,1.0,1.0
27.7,0.0,1.0,1.0,1.0
27.72,0.0,1.0,1.0,1.0
27.74,2.0,1.0,1.0,1.0
27.76,5.0,1.0,1.0,1.0
27.78,6.0,1.0,1.0,1.0
27.8,3.0,1.0,1.0,1.0
27.82,0.0,1.0,1.0,1.0
27.84,2.0,1.0,1.0,1.0
27.86,0.0,1.0,1.0,1.0
27.88,3.0,1.0,1.0,1.0
27.9,4.0,1.0,1.0,1.0
27.92,0.5008,1.0,1.0,1.0
27.94,0.0,1.0,1.0,1.0
27.96,0.5008,1.0,1.0,1.0
27.98,0.0,1.0,1.0,1.0
28.0,0.0,1.0,1.0,1.0
28.02,2.0,1.0,1.0,1.0
28.04,4.0,1.0,1.0,1.0
28.06,0.0,1.0,1.0,1.0
28.08,0.0,1.0,1.0,1.0
28.1,0.0,1.0,1.0,1.0
28.12,0.0,1.0,1.0,1.0
28.14,2.0,1.0,1.0,1.0
28.16,0.0,1.0,1.0,1.0
28.18,2.0,1.0,1.0,1.0
28.2,0.0,1.0,1.0,1.0
28.22,0.0,1.0,1.0,1.0
28.24,2.0,1.0,1.0,1.0
28.26,0.0,1.0,1.0,1.0
28.28,0.0,1.0,1.0,1.0
28.3,4.5008,1.0,1.0,1.0
28.32,6.0,1.0,1.0,1.0
28.34,2.0,1.0,1.0,1.0
28.36,2.0,1.0,1.0,1.0
28.38,0.0,1.0,1.0,1.0
28.4,0.0,1.0,1.0,1.0
28.42,0.0,1.0,1.0,1.0
28.44,1.0,1.0,1.0,1.0
28.46,2.0,1.0,1.0,1.0
28.48,0.0,1.0,1.0,1.0
28.5,0.0,1.0,1.0,1.0
28.52,2.4992,1.0,1.0,1.0
28.54,0.0,1.0,1.0,1.0
28.56,2.0,1.0,1.0,1.0
28.58,2.0,1.0,1.0,1.0
28.6,2.0,1.0,1.0,1.0
28.62,6.0,1.0,1.0,1.0
28.64,2.5008,1.0,1.0,1.0
28.66,2.4992,1.0,1.0,1.0
28.68,0.0,1.0,1.0,1.0
28.7,0.0,1.0,1.0,1.0
28.72,0.0,1.0,1.0,1.0
28.74,0.0,1.0,1.0,1.0
28.76,6.0,1.0,1.0,1.0
28.78,2.0,1.0,1.0,1.0
28.8,1.0,1.0,1.0,1.0
28.82,5.0,1.0,1.0,1.0
28.84,5.0,1.0,1.0,1.0
28.86,2.0,1.0,1.0,1.0
28.88,0.0,1.0,1.0,1.0
28.9,0.0,1.0,1.0,1.0
28.92,2.0,1.0,1.0,1.0
28.94,2.0,1.0,1.0,1.0
28.96,0.0,1.0,1.0,1.0
28.98,2.0,1.0,1.0,1.0
29.0,0.0,1.0,1.0,1.0
29.02,2.0,1.0,1.0,1.0
29.04,0.0,1.0,1.0,1.0
29.06,2.0,1.0,1.0,1.0
29.08,0.0,1.0,1.0,1.0
29.1,2.0,1.0,1.0,1.0
29.12,0.0,1.0,1.0,1.0
29.14,0.0,1.0,1.0,1.0
29.16,5.0,1.0,1.0,1.0
29.18,3.0,1.0,1.0,1.0
29.2,2.0,1.0,1.0,1.0
29.22,0.0,1.0,1.0,1.0
29.24,0.0,1.0,1.0,1.0
29.26,0.0,1.0,1.0,1.0
29.28,0.0,1.0,1.0,1.0
29.3,9.0,1.0,1.0,1.0
29.32,6.0,1.0,1.0,1.0
29.34,2.0,1.0,1.0,1.0
29.36,2.0,1.0,1.0,1.0
29.38,0.5008,1.0,1.0,1.0
29.4,0.0,1.0,1.0,1.0
29.42,2.0,1.0,1.0,1.0
29.44,5.0,1.0,1.0,1.0
29.46,2.0,1.0,1.0,1.0
29.48,1.0,1.0,1.0,1.0
29.5,2.0,1.0,1.0,1.0
29.52,0.0,1.0,1.0,1.0
29.54,0.0,1.0,1.0,1.0
29.56,1.4976,1.0,1.0,1.0
29.58,0.0,1.0,1.0,1.0
29.6,0.0,1.0,1.0,1.0
29.62,4.0,1.0,1.0,1.0
29.64,7.0,1.0,1.0,1.0
29.66,0.0,1.0,1.0,1.0
29.68,5.0,1.0,1.0,1.0
29.7,4.0,1.0,1.0,1.0
29.72,4.0,1.0,1.0,1.0
29.74,0.0,1.0,1.0,1.0
29.76,0.0,1.0,1.0,1.0
29.78,0.0,1.0,1.0,1.0
29.8,4.0,1.0,1.0,1.0
29.82,2.0,1.0,1.0,1.0
29.84,1.0,1.0,1.0,1.0
29.86,0.4992,1.0,1.0,1.0
29.88,0.0,1.0,1.0,1.0
29.9,2.0,1.0,1.0,1.0
29.92,0.0,1.0,1.0,1.0
29.94,0.0,1.0,1.0,1.0
29.96,3.0,1.0,1.0,1.0
29.98,2.0,1.0,1.0,1.0
30.0,3.0,1.0,1.0,1.0
30.02,3.0,1.0,1.0,1.0
30.04,4.0,1.0,1.0,1.0
30.06,0.0,1.0,1.0,1.0
30.08,2.0,1.0,1.0,1.0
30.1,0.0,1.0,1.0,1.0
30.12,2.0,1.0,1.0,1.0
30.14,2.0,1.0,1.0,1.0
30.16,0.0,1.0,1.0,1.0
30.18,0.0,1.0,1.0,1.0
30.2,2.4992,1.0,1.0,1.0
30.22,0.0,1.0,1.0,1.0
30.24,0.0,1.0,1.0,1.0
30.26,0.0,1.0,1.0,1.0
30.28,0.0,1.0,1.0,1.0
30.3,0.0,1.0,1.0,1.0
30.32,0.0,1.0,1.0,1.0
30.34,0.0,1.0,1.0,1.0
30.36,0.0,1.0,1.0,1.0
30.38,0.4992,1.0,1.0,1.0
30.4,0.0,1.0,1.0,1.0
30.42,0.0,1.0,1.0,1.0
30.44,0.0,1.0,1.0,1.0
30.46,0.0,1.0,1.0,1.0
30.48,0.0,1.0,1.0,1.0
30.5,3.0,1.0,1.0,1.0
30.52,0.0,1.0,1.0,1.0
30.54,0.0,1.0,1.0,1.0
30.56,0.0,1.0,1.0,1.0
30.58,0.0,1.0,1.0,1.0
30.6,3.0,1.0,1.0,1.0
30.62,0.0,1.0,1.0,1.0
30.64,0.0,1.0,1.0,1.0
30.66,0.0,1.0,1.0,1.0
30.68,1.0,1.0,1.0,1.0
30.7,0.0,1.0,1.0,1.0
30.72,0.0,1.0,1.0,1.0
30.74,4.0,1.0,1.0,1.0
30.76,0.0,1.0,1.0,1.0
30.78,0.0,1.0,1.0,1.0
30.8,0.0,1.0,1.0,1.0
30.82,4.0,1.0,1.0,1.0
30.84,0.0,1.0,1.0,1.0
30.86,2.0,1.0,1.0,1.0
30.88,0.0,1.0,1.0,1.0
30.9,0.0,1.0,1.0,1.0
30.92,2.0,1.0,1.0,1.0
30.94,0.0,1.0,1.0,1.0
30.96,0.0,1.0,1.0,1.0
30.98,0.0,1.0,1.0,1.0
31.0,0.0,1.0,1.0,1.0