File: XRD:XRR/SCO/22102_S(CT)OL/22102_S(CT)OL_002_XRD_Ann.csv
#twotheta, yobs, ycal, bkg, diff
42.0,11.0,1.0,1.0,1.0
42.01,5.0,1.0,1.0,1.0
42.02,13.0,1.0,1.0,1.0
42.03,6.4944,1.0,1.0,1.0
42.04,14.5056,1.0,1.0,1.0
42.05,8.0,1.0,1.0,1.0
42.06,4.9889,1.0,1.0,1.0
42.07,11.0111,1.0,1.0,1.0
42.08,10.0,1.0,1.0,1.0
42.09,10.0,1.0,1.0,1.0
42.1,8.0,1.0,1.0,1.0
42.11,2.0,1.0,1.0,1.0
42.12,4.0,1.0,1.0,1.0
42.13,4.4944,1.0,1.0,1.0
42.14,16.0,1.0,1.0,1.0
42.15,3.5056,1.0,1.0,1.0
42.16,3.0,1.0,1.0,1.0
42.17,7.0,1.0,1.0,1.0
42.18,9.0,1.0,1.0,1.0
42.19,6.0,1.0,1.0,1.0
42.2,7.4944,1.0,1.0,1.0
42.21,10.5056,1.0,1.0,1.0
42.22,2.0,1.0,1.0,1.0
42.23,10.0,1.0,1.0,1.0
42.24,19.0,1.0,1.0,1.0
42.25,12.0,1.0,1.0,1.0
42.26,8.0,1.0,1.0,1.0
42.27,12.0,1.0,1.0,1.0
42.28,6.0,1.0,1.0,1.0
42.29,7.0,1.0,1.0,1.0
42.3,4.0,1.0,1.0,1.0
42.31,15.0,1.0,1.0,1.0
42.32,7.0,1.0,1.0,1.0
42.33,15.0,1.0,1.0,1.0
42.34,7.0,1.0,1.0,1.0
42.35,1.0,1.0,1.0,1.0
42.36,8.0,1.0,1.0,1.0
42.37,21.0,1.0,1.0,1.0
42.38,14.9889,1.0,1.0,1.0
42.39,8.0111,1.0,1.0,1.0
42.4,3.0,1.0,1.0,1.0
42.41,4.0,1.0,1.0,1.0
42.42,2.0,1.0,1.0,1.0
42.43,40.0,1.0,1.0,1.0
42.44,8.4944,1.0,1.0,1.0
42.45,4.5056,1.0,1.0,1.0
42.46,4.0,1.0,1.0,1.0
42.47,28.4944,1.0,1.0,1.0
42.48,4.5056,1.0,1.0,1.0
42.49,2.0,1.0,1.0,1.0
42.5,10.0,1.0,1.0,1.0
42.51,5.4944,1.0,1.0,1.0
42.52,8.5056,1.0,1.0,1.0
42.53,3.0,1.0,1.0,1.0
42.54,9.0,1.0,1.0,1.0
42.55,7.0,1.0,1.0,1.0
42.56,16.0,1.0,1.0,1.0
42.57,13.0,1.0,1.0,1.0
42.58,10.0,1.0,1.0,1.0
42.59,15.0,1.0,1.0,1.0
42.6,11.4944,1.0,1.0,1.0
42.61,7.5056,1.0,1.0,1.0
42.62,13.0,1.0,1.0,1.0
42.63,7.0,1.0,1.0,1.0
42.64,2.0,1.0,1.0,1.0
42.65,8.0,1.0,1.0,1.0
42.66,17.0,1.0,1.0,1.0
42.67,7.0,1.0,1.0,1.0
42.68,9.0,1.0,1.0,1.0
42.69,8.0,1.0,1.0,1.0
42.7,13.0,1.0,1.0,1.0
42.71,5.0,1.0,1.0,1.0
42.72,8.0,1.0,1.0,1.0
42.73,20.0,1.0,1.0,1.0
42.74,12.0,1.0,1.0,1.0
42.75,5.0,1.0,1.0,1.0
42.76,13.4944,1.0,1.0,1.0
42.77,3.5056,1.0,1.0,1.0
42.78,13.0,1.0,1.0,1.0
42.79,12.0,1.0,1.0,1.0
42.8,11.0,1.0,1.0,1.0
42.81,13.0,1.0,1.0,1.0
42.82,10.0,1.0,1.0,1.0
42.83,9.0,1.0,1.0,1.0
42.84,12.0,1.0,1.0,1.0
42.85,14.0,1.0,1.0,1.0
42.86,0.0,1.0,1.0,1.0
42.87,2.0,1.0,1.0,1.0
42.88,4.0,1.0,1.0,1.0
42.89,4.0,1.0,1.0,1.0
42.9,5.0,1.0,1.0,1.0
42.91,13.0,1.0,1.0,1.0
42.92,15.0,1.0,1.0,1.0
42.93,8.0,1.0,1.0,1.0
42.94,8.4944,1.0,1.0,1.0
42.95,18.5056,1.0,1.0,1.0
42.96,12.0,1.0,1.0,1.0
42.97,15.0,1.0,1.0,1.0
42.98,16.4944,1.0,1.0,1.0
42.99,3.0,1.0,1.0,1.0
43.0,11.0,1.0,1.0,1.0
43.01,14.5056,1.0,1.0,1.0
43.02,7.0,1.0,1.0,1.0
43.03,5.9889,1.0,1.0,1.0
43.04,11.5056,1.0,1.0,1.0
43.05,13.5056,1.0,1.0,1.0
43.06,8.0,1.0,1.0,1.0
43.07,19.0,1.0,1.0,1.0
43.08,17.0,1.0,1.0,1.0
43.09,14.0,1.0,1.0,1.0
43.1,19.0,1.0,1.0,1.0
43.11,10.0,1.0,1.0,1.0
43.12,9.0,1.0,1.0,1.0
43.13,15.0,1.0,1.0,1.0
43.14,6.0,1.0,1.0,1.0
43.15,9.0,1.0,1.0,1.0
43.16,14.0,1.0,1.0,1.0
43.17,13.0,1.0,1.0,1.0
43.18,12.0,1.0,1.0,1.0
43.19,11.0,1.0,1.0,1.0
43.2,11.4944,1.0,1.0,1.0
43.21,18.5056,1.0,1.0,1.0
43.22,19.0,1.0,1.0,1.0
43.23,12.0,1.0,1.0,1.0
43.24,20.4944,1.0,1.0,1.0
43.25,14.5056,1.0,1.0,1.0
43.26,15.0,1.0,1.0,1.0
43.27,27.0,1.0,1.0,1.0
43.28,8.0,1.0,1.0,1.0
43.29,15.4944,1.0,1.0,1.0
43.3,14.0,1.0,1.0,1.0
43.31,8.5056,1.0,1.0,1.0
43.32,13.0,1.0,1.0,1.0
43.33,12.0,1.0,1.0,1.0
43.34,14.0,1.0,1.0,1.0
43.35,7.0,1.0,1.0,1.0
43.36,10.0,1.0,1.0,1.0
43.37,11.0,1.0,1.0,1.0
43.38,9.0,1.0,1.0,1.0
43.39,14.9889,1.0,1.0,1.0
43.4,16.0111,1.0,1.0,1.0
43.41,13.0,1.0,1.0,1.0
43.42,17.9889,1.0,1.0,1.0
43.43,22.0111,1.0,1.0,1.0
43.44,18.0,1.0,1.0,1.0
43.45,20.4944,1.0,1.0,1.0
43.46,20.5056,1.0,1.0,1.0
43.47,9.0,1.0,1.0,1.0
43.48,2.0,1.0,1.0,1.0
43.49,10.4944,1.0,1.0,1.0
43.5,22.5056,1.0,1.0,1.0
43.51,18.0,1.0,1.0,1.0
43.52,13.0,1.0,1.0,1.0
43.53,16.0,1.0,1.0,1.0
43.54,13.4944,1.0,1.0,1.0
43.55,14.5056,1.0,1.0,1.0
43.56,20.4944,1.0,1.0,1.0
43.57,18.5056,1.0,1.0,1.0
43.58,31.0,1.0,1.0,1.0
43.59,12.9889,1.0,1.0,1.0
43.6,15.0111,1.0,1.0,1.0
43.61,21.0,1.0,1.0,1.0
43.62,20.0,1.0,1.0,1.0
43.63,17.0,1.0,1.0,1.0
43.64,21.4944,1.0,1.0,1.0
43.65,19.0,1.0,1.0,1.0
43.66,13.5056,1.0,1.0,1.0
43.67,20.0,1.0,1.0,1.0
43.68,18.4944,1.0,1.0,1.0
43.69,25.0,1.0,1.0,1.0
43.7,21.5056,1.0,1.0,1.0
43.71,31.0,1.0,1.0,1.0
43.72,19.9889,1.0,1.0,1.0
43.73,19.5056,1.0,1.0,1.0
43.74,20.0,1.0,1.0,1.0
43.75,18.0,1.0,1.0,1.0
43.76,16.5056,1.0,1.0,1.0
43.77,31.0,1.0,1.0,1.0
43.78,27.4944,1.0,1.0,1.0
43.79,44.5056,1.0,1.0,1.0
43.8,17.0,1.0,1.0,1.0
43.81,31.0,1.0,1.0,1.0
43.82,34.4944,1.0,1.0,1.0
43.83,17.5056,1.0,1.0,1.0
43.84,20.4833,1.0,1.0,1.0
43.85,27.0,1.0,1.0,1.0
43.86,34.5167,1.0,1.0,1.0
43.87,34.4944,1.0,1.0,1.0
43.88,33.0,1.0,1.0,1.0
43.89,36.5056,1.0,1.0,1.0
43.9,20.0,1.0,1.0,1.0
43.91,22.4944,1.0,1.0,1.0
43.92,29.0,1.0,1.0,1.0
43.93,29.5056,1.0,1.0,1.0
43.94,27.4944,1.0,1.0,1.0
43.95,27.5056,1.0,1.0,1.0
43.96,30.4944,1.0,1.0,1.0
43.97,27.4944,1.0,1.0,1.0
43.98,23.0111,1.0,1.0,1.0
43.99,30.0,1.0,1.0,1.0
44.0,25.4944,1.0,1.0,1.0
44.01,24.5056,1.0,1.0,1.0
44.02,36.0,1.0,1.0,1.0
44.03,32.4944,1.0,1.0,1.0
44.04,30.0,1.0,1.0,1.0
44.05,50.4944,1.0,1.0,1.0
44.06,28.0,1.0,1.0,1.0
44.07,41.4944,1.0,1.0,1.0
44.08,44.5167,1.0,1.0,1.0
44.09,29.0,1.0,1.0,1.0
44.1,26.0,1.0,1.0,1.0
44.11,23.0,1.0,1.0,1.0
44.12,22.0,1.0,1.0,1.0
44.13,40.4944,1.0,1.0,1.0
44.14,62.5056,1.0,1.0,1.0
44.15,29.4944,1.0,1.0,1.0
44.16,49.5056,1.0,1.0,1.0
44.17,35.9889,1.0,1.0,1.0
44.18,47.0111,1.0,1.0,1.0
44.19,45.9889,1.0,1.0,1.0
44.2,56.0111,1.0,1.0,1.0
44.21,34.4944,1.0,1.0,1.0
44.22,40.0,1.0,1.0,1.0
44.23,36.9889,1.0,1.0,1.0
44.24,35.0111,1.0,1.0,1.0
44.25,38.5056,1.0,1.0,1.0
44.26,51.9889,1.0,1.0,1.0
44.27,47.5056,1.0,1.0,1.0
44.28,51.0,1.0,1.0,1.0
44.29,52.5056,1.0,1.0,1.0
44.3,39.4944,1.0,1.0,1.0
44.31,51.4944,1.0,1.0,1.0
44.32,43.0111,1.0,1.0,1.0
44.33,60.4944,1.0,1.0,1.0
44.34,40.0,1.0,1.0,1.0
44.35,66.4944,1.0,1.0,1.0
44.36,60.0,1.0,1.0,1.0
44.37,55.0111,1.0,1.0,1.0
44.38,71.4944,1.0,1.0,1.0
44.39,58.4944,1.0,1.0,1.0
44.4,62.5056,1.0,1.0,1.0
44.41,66.5056,1.0,1.0,1.0
44.42,62.0,1.0,1.0,1.0
44.43,65.4944,1.0,1.0,1.0
44.44,77.0,1.0,1.0,1.0
44.45,72.4944,1.0,1.0,1.0
44.46,82.5056,1.0,1.0,1.0
44.47,77.9889,1.0,1.0,1.0
44.48,115.4944,1.0,1.0,1.0
44.49,98.5167,1.0,1.0,1.0
44.5,88.0,1.0,1.0,1.0
44.51,86.0,1.0,1.0,1.0
44.52,87.0,1.0,1.0,1.0
44.53,104.0,1.0,1.0,1.0
44.54,108.9889,1.0,1.0,1.0
44.55,102.5167,1.0,1.0,1.0
44.56,70.9889,1.0,1.0,1.0
44.57,102.0,1.0,1.0,1.0
44.58,93.4944,1.0,1.0,1.0
44.59,110.4944,1.0,1.0,1.0
44.6,119.5167,1.0,1.0,1.0
44.61,126.4944,1.0,1.0,1.0
44.62,92.4944,1.0,1.0,1.0
44.63,123.5056,1.0,1.0,1.0
44.64,125.4944,1.0,1.0,1.0
44.65,137.4944,1.0,1.0,1.0
44.66,91.5056,1.0,1.0,1.0
44.67,132.5056,1.0,1.0,1.0
44.68,111.4944,1.0,1.0,1.0
44.69,124.0111,1.0,1.0,1.0
44.7,131.0,1.0,1.0,1.0
44.71,131.4833,1.0,1.0,1.0
44.72,134.0111,1.0,1.0,1.0
44.73,139.9889,1.0,1.0,1.0
44.74,141.5056,1.0,1.0,1.0
44.75,128.4944,1.0,1.0,1.0
44.76,149.0,1.0,1.0,1.0
44.77,125.0222,1.0,1.0,1.0
44.78,168.9889,1.0,1.0,1.0
44.79,149.9778,1.0,1.0,1.0
44.8,145.5278,1.0,1.0,1.0
44.81,187.9889,1.0,1.0,1.0
44.82,148.9889,1.0,1.0,1.0
44.83,202.5056,1.0,1.0,1.0
44.84,200.0111,1.0,1.0,1.0
44.85,200.4944,1.0,1.0,1.0
44.86,196.4833,1.0,1.0,1.0
44.87,192.0111,1.0,1.0,1.0
44.88,159.0,1.0,1.0,1.0
44.89,213.5167,1.0,1.0,1.0
44.9,183.4611,1.0,1.0,1.0
44.91,226.0222,1.0,1.0,1.0
44.92,218.4833,1.0,1.0,1.0
44.93,214.5167,1.0,1.0,1.0
44.94,217.4944,1.0,1.0,1.0
44.95,211.5056,1.0,1.0,1.0
44.96,256.0,1.0,1.0,1.0
44.97,238.0111,1.0,1.0,1.0
44.98,224.9889,1.0,1.0,1.0
44.99,270.0,1.0,1.0,1.0
45.0,215.0,1.0,1.0,1.0
45.01,259.5056,1.0,1.0,1.0
45.02,265.4944,1.0,1.0,1.0
45.03,234.9778,1.0,1.0,1.0
45.04,222.0111,1.0,1.0,1.0
45.05,242.4944,1.0,1.0,1.0
45.06,273.0111,1.0,1.0,1.0
45.07,277.5056,1.0,1.0,1.0
45.08,260.4833,1.0,1.0,1.0
45.09,279.0333,1.0,1.0,1.0
45.1,288.4611,1.0,1.0,1.0
45.11,303.0111,1.0,1.0,1.0
45.12,282.0111,1.0,1.0,1.0
45.13,267.4944,1.0,1.0,1.0
45.14,275.9778,1.0,1.0,1.0
45.15,300.5167,1.0,1.0,1.0
45.16,288.0,1.0,1.0,1.0
45.17,276.0111,1.0,1.0,1.0
45.18,242.0,1.0,1.0,1.0
45.19,262.4944,1.0,1.0,1.0
45.2,250.0,1.0,1.0,1.0
45.21,241.5167,1.0,1.0,1.0
45.22,276.4611,1.0,1.0,1.0
45.23,266.0222,1.0,1.0,1.0
45.24,267.4944,1.0,1.0,1.0
45.25,273.0,1.0,1.0,1.0
45.26,276.0,1.0,1.0,1.0
45.27,262.4833,1.0,1.0,1.0
45.28,230.0333,1.0,1.0,1.0
45.29,275.4833,1.0,1.0,1.0
45.3,241.0222,1.0,1.0,1.0
45.31,231.4833,1.0,1.0,1.0
45.32,199.9778,1.0,1.0,1.0
45.33,251.0111,1.0,1.0,1.0
45.34,256.5056,1.0,1.0,1.0
45.35,293.5167,1.0,1.0,1.0
45.36,236.4833,1.0,1.0,1.0
45.37,251.0,1.0,1.0,1.0
45.38,249.4944,1.0,1.0,1.0
45.39,258.0111,1.0,1.0,1.0
45.4,258.0222,1.0,1.0,1.0
45.41,279.4722,1.0,1.0,1.0
45.42,268.0222,1.0,1.0,1.0
45.43,278.4722,1.0,1.0,1.0
45.44,241.9889,1.0,1.0,1.0
45.45,260.5167,1.0,1.0,1.0
45.46,257.0222,1.0,1.0,1.0
45.47,289.9778,1.0,1.0,1.0
45.48,333.9778,1.0,1.0,1.0
45.49,323.0111,1.0,1.0,1.0
45.5,327.0111,1.0,1.0,1.0
45.51,314.0,1.0,1.0,1.0
45.52,336.5167,1.0,1.0,1.0
45.53,386.9889,1.0,1.0,1.0
45.54,371.4833,1.0,1.0,1.0
45.55,348.5278,1.0,1.0,1.0
45.56,373.4833,1.0,1.0,1.0
45.57,385.5056,1.0,1.0,1.0
45.58,405.4833,1.0,1.0,1.0
45.59,377.5056,1.0,1.0,1.0
45.6,436.0111,1.0,1.0,1.0
45.61,430.45,1.0,1.0,1.0
45.62,471.5278,1.0,1.0,1.0
45.63,442.0111,1.0,1.0,1.0
45.64,455.4833,1.0,1.0,1.0
45.65,493.5167,1.0,1.0,1.0
45.66,465.9778,1.0,1.0,1.0
45.67,492.5278,1.0,1.0,1.0
45.68,543.9889,1.0,1.0,1.0
45.69,525.9667,1.0,1.0,1.0
45.7,495.5167,1.0,1.0,1.0
45.71,524.5056,1.0,1.0,1.0
45.72,540.4722,1.0,1.0,1.0
45.73,533.0111,1.0,1.0,1.0
45.74,573.5056,1.0,1.0,1.0
45.75,555.0333,1.0,1.0,1.0
45.76,572.4833,1.0,1.0,1.0
45.77,545.9778,1.0,1.0,1.0
45.78,607.4944,1.0,1.0,1.0
45.79,593.0222,1.0,1.0,1.0
45.8,586.0,1.0,1.0,1.0
45.81,574.0,1.0,1.0,1.0
45.82,596.0,1.0,1.0,1.0
45.83,645.4722,1.0,1.0,1.0
45.84,657.55,1.0,1.0,1.0
45.85,657.4722,1.0,1.0,1.0
45.86,614.5056,1.0,1.0,1.0
45.87,669.9667,1.0,1.0,1.0
45.88,691.0222,1.0,1.0,1.0
45.89,668.9556,1.0,1.0,1.0
45.9,671.0444,1.0,1.0,1.0
45.91,670.5056,1.0,1.0,1.0
45.92,676.4722,1.0,1.0,1.0
45.93,749.5278,1.0,1.0,1.0
45.94,745.9778,1.0,1.0,1.0
45.95,725.5056,1.0,1.0,1.0
45.96,721.0,1.0,1.0,1.0
45.97,831.4833,1.0,1.0,1.0
45.98,789.0222,1.0,1.0,1.0
45.99,805.4833,1.0,1.0,1.0
46.0,809.0,1.0,1.0,1.0
46.01,794.5056,1.0,1.0,1.0
46.02,895.4611,1.0,1.0,1.0
46.03,918.4944,1.0,1.0,1.0
46.04,958.5278,1.0,1.0,1.0
46.05,976.9778,1.0,1.0,1.0
46.06,910.0111,1.0,1.0,1.0
46.07,991.5278,1.0,1.0,1.0
46.08,1118.96,1.0,1.0,1.0
46.09,1085.01,1.0,1.0,1.0
46.1,1126.0,1.0,1.0,1.0
46.11,1151.01,1.0,1.0,1.0
46.12,1134.52,1.0,1.0,1.0
46.13,1121.49,1.0,1.0,1.0
46.14,1220.98,1.0,1.0,1.0
46.15,1255.92,1.0,1.0,1.0
46.16,1309.51,1.0,1.0,1.0
46.17,1262.56,1.0,1.0,1.0
46.18,1349.98,1.0,1.0,1.0
46.19,1343.98,1.0,1.0,1.0
46.2,1435.04,1.0,1.0,1.0
46.21,1409.01,1.0,1.0,1.0
46.22,1468.96,1.0,1.0,1.0
46.23,1576.01,1.0,1.0,1.0
46.24,1560.03,1.0,1.0,1.0
46.25,1534.46,1.0,1.0,1.0
46.26,1552.99,1.0,1.0,1.0
46.27,1606.51,1.0,1.0,1.0
46.28,1543.46,1.0,1.0,1.0
46.29,1668.51,1.0,1.0,1.0
46.3,1624.54,1.0,1.0,1.0
46.31,1592.49,1.0,1.0,1.0
46.32,1682.45,1.0,1.0,1.0
46.33,1720.57,1.0,1.0,1.0
46.34,1694.94,1.0,1.0,1.0
46.35,1661.01,1.0,1.0,1.0
46.36,1620.04,1.0,1.0,1.0
46.37,1607.44,1.0,1.0,1.0
46.38,1576.07,1.0,1.0,1.0
46.39,1555.43,1.0,1.0,1.0
46.4,1577.49,1.0,1.0,1.0
46.41,1552.55,1.0,1.0,1.0
46.42,1568.52,1.0,1.0,1.0
46.43,1574.91,1.0,1.0,1.0
46.44,1452.63,1.0,1.0,1.0
46.45,1504.9,1.0,1.0,1.0
46.46,1527.06,1.0,1.0,1.0
46.47,1538.49,1.0,1.0,1.0
46.48,1371.01,1.0,1.0,1.0
46.49,1351.98,1.0,1.0,1.0
46.5,1438.01,1.0,1.0,1.0
46.51,1404.01,1.0,1.0,1.0
46.52,1373.49,1.0,1.0,1.0
46.53,1319.01,1.0,1.0,1.0
46.54,1353.02,1.0,1.0,1.0
46.55,1249.01,1.0,1.0,1.0
46.56,1161.53,1.0,1.0,1.0
46.57,1231.94,1.0,1.0,1.0
46.58,1154.0,1.0,1.0,1.0
46.59,1144.51,1.0,1.0,1.0
46.6,1063.52,1.0,1.0,1.0
46.61,1036.51,1.0,1.0,1.0
46.62,980.9333,1.0,1.0,1.0
46.63,972.55,1.0,1.0,1.0
46.64,929.9889,1.0,1.0,1.0
46.65,958.0444,1.0,1.0,1.0
46.66,868.0,1.0,1.0,1.0
46.67,881.4722,1.0,1.0,1.0
46.68,806.9778,1.0,1.0,1.0
46.69,744.0444,1.0,1.0,1.0
46.7,777.5389,1.0,1.0,1.0
46.71,752.9889,1.0,1.0,1.0
46.72,709.9889,1.0,1.0,1.0
46.73,625.0333,1.0,1.0,1.0
46.74,673.4722,1.0,1.0,1.0
46.75,648.4833,1.0,1.0,1.0
46.76,608.5389,1.0,1.0,1.0
46.77,662.0,1.0,1.0,1.0
46.78,608.9889,1.0,1.0,1.0
46.79,563.4833,1.0,1.0,1.0
46.8,495.5611,1.0,1.0,1.0
46.81,480.9333,1.0,1.0,1.0
46.82,487.5389,1.0,1.0,1.0
46.83,442.4611,1.0,1.0,1.0
46.84,424.0555,1.0,1.0,1.0
46.85,377.9889,1.0,1.0,1.0
46.86,427.4944,1.0,1.0,1.0
46.87,401.0111,1.0,1.0,1.0
46.88,381.4833,1.0,1.0,1.0
46.89,339.9889,1.0,1.0,1.0
46.9,345.5389,1.0,1.0,1.0
46.91,344.4944,1.0,1.0,1.0
46.92,341.4944,1.0,1.0,1.0
46.93,346.4833,1.0,1.0,1.0
46.94,317.5278,1.0,1.0,1.0
46.95,315.0,1.0,1.0,1.0
46.96,281.0,1.0,1.0,1.0
46.97,287.9889,1.0,1.0,1.0
46.98,263.4833,1.0,1.0,1.0
46.99,283.0222,1.0,1.0,1.0
47.0,287.9889,1.0,1.0,1.0
47.01,287.0,1.0,1.0,1.0
47.02,244.0111,1.0,1.0,1.0
47.03,261.4833,1.0,1.0,1.0
47.04,285.5167,1.0,1.0,1.0
47.05,232.9889,1.0,1.0,1.0
47.06,227.5167,1.0,1.0,1.0
47.07,260.5056,1.0,1.0,1.0
47.08,269.9889,1.0,1.0,1.0
47.09,226.4944,1.0,1.0,1.0
47.1,230.5056,1.0,1.0,1.0
47.11,260.0,1.0,1.0,1.0
47.12,253.9778,1.0,1.0,1.0
47.13,243.5278,1.0,1.0,1.0
47.14,254.0,1.0,1.0,1.0
47.15,233.4944,1.0,1.0,1.0
47.16,232.0,1.0,1.0,1.0
47.17,283.9222,1.0,1.0,1.0
47.18,269.0889,1.0,1.0,1.0
47.19,214.5056,1.0,1.0,1.0
47.2,256.5056,1.0,1.0,1.0
47.21,240.9556,1.0,1.0,1.0
47.22,242.5167,1.0,1.0,1.0
47.23,275.0,1.0,1.0,1.0
47.24,230.5167,1.0,1.0,1.0
47.25,393.9778,1.0,1.0,1.0
47.26,295.0,1.0,1.0,1.0
47.27,283.0111,1.0,1.0,1.0
47.28,309.9889,1.0,1.0,1.0
47.29,324.4944,1.0,1.0,1.0
47.3,334.5056,1.0,1.0,1.0
47.31,352.9889,1.0,1.0,1.0
47.32,379.4944,1.0,1.0,1.0
47.33,396.0,1.0,1.0,1.0
47.34,434.9667,1.0,1.0,1.0
47.35,416.5611,1.0,1.0,1.0
47.36,436.9778,1.0,1.0,1.0
47.37,501.9889,1.0,1.0,1.0
47.38,499.0111,1.0,1.0,1.0
47.39,526.4944,1.0,1.0,1.0
47.4,538.4722,1.0,1.0,1.0
47.41,509.0111,1.0,1.0,1.0
47.42,612.0111,1.0,1.0,1.0
47.43,627.4944,1.0,1.0,1.0
47.44,585.9889,1.0,1.0,1.0
47.45,665.5056,1.0,1.0,1.0
47.46,681.9667,1.0,1.0,1.0
47.47,694.0222,1.0,1.0,1.0
47.48,740.4833,1.0,1.0,1.0
47.49,712.9778,1.0,1.0,1.0
47.5,762.0667,1.0,1.0,1.0
47.51,812.9556,1.0,1.0,1.0
47.52,720.5278,1.0,1.0,1.0
47.53,826.0111,1.0,1.0,1.0
47.54,787.9667,1.0,1.0,1.0
47.55,861.9556,1.0,1.0,1.0
47.56,784.0667,1.0,1.0,1.0
47.57,868.5167,1.0,1.0,1.0
47.58,836.9222,1.0,1.0,1.0
47.59,875.0333,1.0,1.0,1.0
47.6,962.5056,1.0,1.0,1.0
47.61,993.9889,1.0,1.0,1.0
47.62,1030.99,1.0,1.0,1.0
47.63,1087.52,1.0,1.0,1.0
47.64,1135.97,1.0,1.0,1.0
47.65,1208.02,1.0,1.0,1.0
47.66,1247.94,1.0,1.0,1.0
47.67,1445.99,1.0,1.0,1.0
47.68,1533.94,1.0,1.0,1.0
47.69,1679.59,1.0,1.0,1.0
47.7,1712.89,1.0,1.0,1.0
47.71,1988.04,1.0,1.0,1.0
47.72,2228.99,1.0,1.0,1.0
47.73,2422.9,1.0,1.0,1.0
47.74,2872.98,1.0,1.0,1.0
47.75,3279.48,1.0,1.0,1.0
47.76,3834.84,1.0,1.0,1.0
47.77,4790.88,1.0,1.0,1.0
47.78,5803.43,1.0,1.0,1.0
47.79,6963.13,1.0,1.0,1.0
47.8,8657.56,1.0,1.0,1.0
47.81,10983.7,1.0,1.0,1.0
47.82,13797.9,1.0,1.0,1.0
47.83,18384.1,1.0,1.0,1.0
47.84,24124.4,1.0,1.0,1.0
47.85,33148.4,1.0,1.0,1.0
47.86,46568.2,1.0,1.0,1.0
47.87,58630.7,1.0,1.0,1.0
47.88,77839,1.0,1.0,1.0
47.89,101658,1.0,1.0,1.0
47.9,126445,1.0,1.0,1.0
47.91,145792,1.0,1.0,1.0
47.92,157120,1.0,1.0,1.0
47.93,159788,1.0,1.0,1.0
47.94,158631,1.0,1.0,1.0
47.95,157269,1.0,1.0,1.0
47.96,163294,1.0,1.0,1.0
47.97,172077,1.0,1.0,1.0
47.98,168203,1.0,1.0,1.0
47.99,156568,1.0,1.0,1.0
48.0,144103,1.0,1.0,1.0
48.01,133995,1.0,1.0,1.0
48.02,123962,1.0,1.0,1.0
48.03,121142,1.0,1.0,1.0
48.04,124761,1.0,1.0,1.0
48.05,119396,1.0,1.0,1.0
48.06,78260.2,1.0,1.0,1.0
48.07,49634.6,1.0,1.0,1.0
48.08,37653.8,1.0,1.0,1.0
48.09,31082.8,1.0,1.0,1.0
48.1,25344.1,1.0,1.0,1.0
48.11,20492.3,1.0,1.0,1.0
48.12,16590.9,1.0,1.0,1.0
48.13,13402.3,1.0,1.0,1.0
48.14,10445.8,1.0,1.0,1.0
48.15,8407.68,1.0,1.0,1.0
48.16,6775.65,1.0,1.0,1.0
48.17,5525.03,1.0,1.0,1.0
48.18,4466.16,1.0,1.0,1.0
48.19,3680.72,1.0,1.0,1.0
48.2,2970.53,1.0,1.0,1.0
48.21,2491.51,1.0,1.0,1.0
48.22,2100.04,1.0,1.0,1.0
48.23,1840.02,1.0,1.0,1.0
48.24,1497.02,1.0,1.0,1.0
48.25,1315.0,1.0,1.0,1.0
48.26,1047.57,1.0,1.0,1.0
48.27,1015.47,1.0,1.0,1.0
48.28,885.5278,1.0,1.0,1.0
48.29,736.55,1.0,1.0,1.0
48.3,680.5056,1.0,1.0,1.0
48.31,621.9445,1.0,1.0,1.0
48.32,596.0444,1.0,1.0,1.0
48.33,555.4944,1.0,1.0,1.0
48.34,539.0111,1.0,1.0,1.0
48.35,489.9778,1.0,1.0,1.0
48.36,473.5056,1.0,1.0,1.0
48.37,455.0333,1.0,1.0,1.0
48.38,456.4722,1.0,1.0,1.0
48.39,411.0222,1.0,1.0,1.0
48.4,388.4944,1.0,1.0,1.0
48.41,402.0,1.0,1.0,1.0
48.42,408.9889,1.0,1.0,1.0
48.43,402.9889,1.0,1.0,1.0
48.44,412.0111,1.0,1.0,1.0
48.45,354.0222,1.0,1.0,1.0
48.46,339.4722,1.0,1.0,1.0
48.47,370.0333,1.0,1.0,1.0
48.48,354.9778,1.0,1.0,1.0
48.49,353.0111,1.0,1.0,1.0
48.5,317.9889,1.0,1.0,1.0
48.51,315.9889,1.0,1.0,1.0
48.52,346.0222,1.0,1.0,1.0
48.53,312.5167,1.0,1.0,1.0
48.54,293.4833,1.0,1.0,1.0
48.55,307.0,1.0,1.0,1.0
48.56,311.0111,1.0,1.0,1.0
48.57,256.5056,1.0,1.0,1.0
48.58,244.0111,1.0,1.0,1.0
48.59,220.4833,1.0,1.0,1.0
48.6,260.5056,1.0,1.0,1.0
48.61,243.5056,1.0,1.0,1.0
48.62,214.4722,1.0,1.0,1.0
48.63,206.5167,1.0,1.0,1.0
48.64,232.5278,1.0,1.0,1.0
48.65,198.9778,1.0,1.0,1.0
48.66,168.5056,1.0,1.0,1.0
48.67,171.5056,1.0,1.0,1.0
48.68,140.4833,1.0,1.0,1.0
48.69,144.5056,1.0,1.0,1.0
48.7,159.9889,1.0,1.0,1.0
48.71,167.5278,1.0,1.0,1.0
48.72,128.9889,1.0,1.0,1.0
48.73,134.0111,1.0,1.0,1.0
48.74,140.4944,1.0,1.0,1.0
48.75,121.0,1.0,1.0,1.0
48.76,118.9889,1.0,1.0,1.0
48.77,138.5056,1.0,1.0,1.0
48.78,134.5056,1.0,1.0,1.0
48.79,179.5056,1.0,1.0,1.0
48.8,117.9778,1.0,1.0,1.0
48.81,108.5056,1.0,1.0,1.0
48.82,109.0,1.0,1.0,1.0
48.83,101.5167,1.0,1.0,1.0
48.84,103.9889,1.0,1.0,1.0
48.85,100.4944,1.0,1.0,1.0
48.86,107.5056,1.0,1.0,1.0
48.87,114.5167,1.0,1.0,1.0
48.88,98.4833,1.0,1.0,1.0
48.89,111.0,1.0,1.0,1.0
48.9,88.5056,1.0,1.0,1.0
48.91,92.5056,1.0,1.0,1.0
48.92,96.0,1.0,1.0,1.0
48.93,89.5056,1.0,1.0,1.0
48.94,96.4944,1.0,1.0,1.0
48.95,93.0,1.0,1.0,1.0
48.96,65.0,1.0,1.0,1.0
48.97,87.0,1.0,1.0,1.0
48.98,72.0,1.0,1.0,1.0
48.99,50.4944,1.0,1.0,1.0
49.0,74.0111,1.0,1.0,1.0
49.01,80.9778,1.0,1.0,1.0
49.02,43.0222,1.0,1.0,1.0
49.03,69.0,1.0,1.0,1.0
49.04,66.9889,1.0,1.0,1.0
49.05,82.0111,1.0,1.0,1.0
49.06,61.0,1.0,1.0,1.0
49.07,45.9889,1.0,1.0,1.0
49.08,61.0,1.0,1.0,1.0
49.09,25.5056,1.0,1.0,1.0
49.1,49.0,1.0,1.0,1.0
49.11,41.5056,1.0,1.0,1.0
49.12,74.9889,1.0,1.0,1.0
49.13,46.5056,1.0,1.0,1.0
49.14,47.0,1.0,1.0,1.0
49.15,54.5056,1.0,1.0,1.0
49.16,40.4833,1.0,1.0,1.0
49.17,61.5167,1.0,1.0,1.0
49.18,42.0,1.0,1.0,1.0
49.19,46.0,1.0,1.0,1.0
49.2,53.0,1.0,1.0,1.0
49.21,47.4944,1.0,1.0,1.0
49.22,27.5056,1.0,1.0,1.0
49.23,32.4833,1.0,1.0,1.0
49.24,57.5167,1.0,1.0,1.0
49.25,32.4944,1.0,1.0,1.0
49.26,40.5056,1.0,1.0,1.0
49.27,45.4944,1.0,1.0,1.0
49.28,38.0,1.0,1.0,1.0
49.29,32.5056,1.0,1.0,1.0
49.3,51.0,1.0,1.0,1.0
49.31,19.9889,1.0,1.0,1.0
49.32,30.0,1.0,1.0,1.0
49.33,32.0111,1.0,1.0,1.0
49.34,50.0,1.0,1.0,1.0
49.35,41.0,1.0,1.0,1.0
49.36,31.0,1.0,1.0,1.0
49.37,33.0,1.0,1.0,1.0
49.38,50.0,1.0,1.0,1.0
49.39,40.9778,1.0,1.0,1.0
49.4,37.0222,1.0,1.0,1.0
49.41,33.0,1.0,1.0,1.0
49.42,42.4944,1.0,1.0,1.0
49.43,17.5056,1.0,1.0,1.0
49.44,28.0,1.0,1.0,1.0
49.45,21.0,1.0,1.0,1.0
49.46,31.0,1.0,1.0,1.0
49.47,24.0,1.0,1.0,1.0
49.48,24.0,1.0,1.0,1.0
49.49,43.4944,1.0,1.0,1.0
49.5,35.0,1.0,1.0,1.0
49.51,18.5056,1.0,1.0,1.0
49.52,24.9889,1.0,1.0,1.0
49.53,41.0111,1.0,1.0,1.0
49.54,26.0,1.0,1.0,1.0
49.55,24.4944,1.0,1.0,1.0
49.56,30.0,1.0,1.0,1.0
49.57,32.5056,1.0,1.0,1.0
49.58,26.4944,1.0,1.0,1.0
49.59,21.5056,1.0,1.0,1.0
49.6,33.0,1.0,1.0,1.0
49.61,21.0,1.0,1.0,1.0
49.62,16.0,1.0,1.0,1.0
49.63,14.0,1.0,1.0,1.0
49.64,10.0,1.0,1.0,1.0
49.65,20.4944,1.0,1.0,1.0
49.66,14.5056,1.0,1.0,1.0
49.67,16.4944,1.0,1.0,1.0
49.68,28.0,1.0,1.0,1.0
49.69,25.0,1.0,1.0,1.0
49.7,15.5056,1.0,1.0,1.0
49.71,9.9889,1.0,1.0,1.0
49.72,30.5056,1.0,1.0,1.0
49.73,26.0,1.0,1.0,1.0
49.74,31.5056,1.0,1.0,1.0
49.75,25.0,1.0,1.0,1.0
49.76,29.4944,1.0,1.0,1.0
49.77,22.5056,1.0,1.0,1.0
49.78,28.9889,1.0,1.0,1.0
49.79,26.0111,1.0,1.0,1.0
49.8,21.0,1.0,1.0,1.0
49.81,26.0,1.0,1.0,1.0
49.82,20.9889,1.0,1.0,1.0
49.83,22.0111,1.0,1.0,1.0
49.84,27.0,1.0,1.0,1.0
49.85,30.0,1.0,1.0,1.0
49.86,28.0,1.0,1.0,1.0
49.87,14.0,1.0,1.0,1.0
49.88,19.0,1.0,1.0,1.0
49.89,8.0,1.0,1.0,1.0
49.9,8.0,1.0,1.0,1.0
49.91,11.4944,1.0,1.0,1.0
49.92,19.5056,1.0,1.0,1.0
49.93,6.0,1.0,1.0,1.0
49.94,8.4944,1.0,1.0,1.0
49.95,34.5056,1.0,1.0,1.0
49.96,18.0,1.0,1.0,1.0
49.97,24.0,1.0,1.0,1.0
49.98,15.4944,1.0,1.0,1.0
49.99,11.5056,1.0,1.0,1.0
50.0,14.0,1.0,1.0,1.0
50.01,14.0,1.0,1.0,1.0
50.02,30.9889,1.0,1.0,1.0
50.03,27.5056,1.0,1.0,1.0
50.04,8.5056,1.0,1.0,1.0
50.05,11.0,1.0,1.0,1.0
50.06,15.4944,1.0,1.0,1.0
50.07,14.5056,1.0,1.0,1.0
50.08,9.9889,1.0,1.0,1.0
50.09,10.0111,1.0,1.0,1.0
50.1,10.0,1.0,1.0,1.0
50.11,13.0,1.0,1.0,1.0
50.12,13.0,1.0,1.0,1.0
50.13,14.0,1.0,1.0,1.0
50.14,11.0,1.0,1.0,1.0
50.15,13.0,1.0,1.0,1.0
50.16,9.0,1.0,1.0,1.0
50.17,6.0,1.0,1.0,1.0
50.18,15.0,1.0,1.0,1.0
50.19,6.0,1.0,1.0,1.0
50.2,6.0,1.0,1.0,1.0
50.21,13.0,1.0,1.0,1.0
50.22,6.0,1.0,1.0,1.0
50.23,7.9889,1.0,1.0,1.0
50.24,10.0111,1.0,1.0,1.0
50.25,15.0,1.0,1.0,1.0
50.26,7.0,1.0,1.0,1.0
50.27,13.0,1.0,1.0,1.0
50.28,14.0,1.0,1.0,1.0
50.29,13.4944,1.0,1.0,1.0
50.3,9.5056,1.0,1.0,1.0
50.31,7.0,1.0,1.0,1.0
50.32,7.4944,1.0,1.0,1.0
50.33,19.4944,1.0,1.0,1.0
50.34,8.0111,1.0,1.0,1.0
50.35,7.0,1.0,1.0,1.0
50.36,4.0,1.0,1.0,1.0
50.37,10.0,1.0,1.0,1.0
50.38,6.4944,1.0,1.0,1.0
50.39,3.5056,1.0,1.0,1.0
50.4,10.9889,1.0,1.0,1.0
50.41,16.0111,1.0,1.0,1.0
50.42,7.0,1.0,1.0,1.0
50.43,13.0,1.0,1.0,1.0
50.44,6.0,1.0,1.0,1.0
50.45,21.4833,1.0,1.0,1.0
50.46,9.5167,1.0,1.0,1.0
50.47,8.0,1.0,1.0,1.0
50.48,14.0,1.0,1.0,1.0
50.49,5.0,1.0,1.0,1.0
50.5,12.0,1.0,1.0,1.0
50.51,4.0,1.0,1.0,1.0
50.52,3.0,1.0,1.0,1.0
50.53,7.0,1.0,1.0,1.0
50.54,23.0,1.0,1.0,1.0
50.55,2.0,1.0,1.0,1.0
50.56,17.0,1.0,1.0,1.0
50.57,0.0,1.0,1.0,1.0
50.58,9.0,1.0,1.0,1.0
50.59,12.9889,1.0,1.0,1.0
50.6,11.0111,1.0,1.0,1.0
50.61,11.0,1.0,1.0,1.0
50.62,7.0,1.0,1.0,1.0
50.63,8.0,1.0,1.0,1.0
50.64,2.0,1.0,1.0,1.0
50.65,10.0,1.0,1.0,1.0
50.66,7.9889,1.0,1.0,1.0
50.67,21.5056,1.0,1.0,1.0
50.68,18.5056,1.0,1.0,1.0
50.69,9.0,1.0,1.0,1.0
50.7,7.0,1.0,1.0,1.0
50.71,14.0,1.0,1.0,1.0
50.72,7.0,1.0,1.0,1.0
50.73,5.0,1.0,1.0,1.0
50.74,2.0,1.0,1.0,1.0
50.75,7.0,1.0,1.0,1.0
50.76,13.0,1.0,1.0,1.0
50.77,11.0,1.0,1.0,1.0
50.78,4.4944,1.0,1.0,1.0
50.79,10.5056,1.0,1.0,1.0
50.8,18.0,1.0,1.0,1.0
50.81,11.0,1.0,1.0,1.0
50.82,9.0,1.0,1.0,1.0
50.83,0.0,1.0,1.0,1.0
50.84,4.0,1.0,1.0,1.0
50.85,9.0,1.0,1.0,1.0
50.86,8.9889,1.0,1.0,1.0
50.87,16.0111,1.0,1.0,1.0
50.88,18.0,1.0,1.0,1.0
50.89,9.0,1.0,1.0,1.0
50.9,7.0,1.0,1.0,1.0
50.91,14.0,1.0,1.0,1.0
50.92,9.0,1.0,1.0,1.0
50.93,15.0,1.0,1.0,1.0
50.94,6.0,1.0,1.0,1.0
50.95,0.0,1.0,1.0,1.0
50.96,9.0,1.0,1.0,1.0
50.97,7.0,1.0,1.0,1.0
50.98,10.0,1.0,1.0,1.0
50.99,14.0,1.0,1.0,1.0
51.0,19.0,1.0,1.0,1.0
51.01,13.0,1.0,1.0,1.0
51.02,8.4944,1.0,1.0,1.0
51.03,18.5056,1.0,1.0,1.0
51.04,6.0,1.0,1.0,1.0
51.05,11.0,1.0,1.0,1.0
51.06,19.0,1.0,1.0,1.0
51.07,16.0,1.0,1.0,1.0
51.08,4.0,1.0,1.0,1.0
51.09,2.0,1.0,1.0,1.0
51.1,2.0,1.0,1.0,1.0
51.11,11.4944,1.0,1.0,1.0
51.12,9.5056,1.0,1.0,1.0
51.13,9.0,1.0,1.0,1.0
51.14,13.0,1.0,1.0,1.0
51.15,10.0,1.0,1.0,1.0
51.16,7.0,1.0,1.0,1.0
51.17,11.0,1.0,1.0,1.0
51.18,5.4944,1.0,1.0,1.0
51.19,5.5056,1.0,1.0,1.0
51.2,0.0,1.0,1.0,1.0
51.21,10.0,1.0,1.0,1.0
51.22,5.0,1.0,1.0,1.0
51.23,8.0,1.0,1.0,1.0
51.24,10.0,1.0,1.0,1.0
51.25,7.4944,1.0,1.0,1.0
51.26,10.5056,1.0,1.0,1.0
51.27,3.0,1.0,1.0,1.0
51.28,3.0,1.0,1.0,1.0
51.29,5.0,1.0,1.0,1.0
51.3,6.4944,1.0,1.0,1.0
51.31,8.0,1.0,1.0,1.0
51.32,9.5056,1.0,1.0,1.0
51.33,11.0,1.0,1.0,1.0
51.34,4.0,1.0,1.0,1.0
51.35,5.0,1.0,1.0,1.0
51.36,9.4944,1.0,1.0,1.0
51.37,5.5056,1.0,1.0,1.0
51.38,9.9889,1.0,1.0,1.0
51.39,13.0111,1.0,1.0,1.0
51.4,9.0,1.0,1.0,1.0
51.41,7.0,1.0,1.0,1.0
51.42,8.0,1.0,1.0,1.0
51.43,6.0,1.0,1.0,1.0
51.44,7.0,1.0,1.0,1.0
51.45,3.0,1.0,1.0,1.0
51.46,5.9889,1.0,1.0,1.0
51.47,9.0111,1.0,1.0,1.0
51.48,10.0,1.0,1.0,1.0
51.49,2.0,1.0,1.0,1.0
51.5,4.9889,1.0,1.0,1.0
51.51,8.0111,1.0,1.0,1.0
51.52,0.0,1.0,1.0,1.0
51.53,9.9889,1.0,1.0,1.0
51.54,17.5056,1.0,1.0,1.0
51.55,5.5056,1.0,1.0,1.0
51.56,13.0,1.0,1.0,1.0
51.57,2.0,1.0,1.0,1.0
51.58,11.0,1.0,1.0,1.0
51.59,8.0,1.0,1.0,1.0
51.6,8.0,1.0,1.0,1.0
51.61,5.0,1.0,1.0,1.0
51.62,2.0,1.0,1.0,1.0
51.63,7.4944,1.0,1.0,1.0
51.64,6.5056,1.0,1.0,1.0
51.65,6.0,1.0,1.0,1.0
51.66,7.0,1.0,1.0,1.0
51.67,17.0,1.0,1.0,1.0
51.68,4.0,1.0,1.0,1.0
51.69,10.0,1.0,1.0,1.0
51.7,13.0,1.0,1.0,1.0
51.71,28.0,1.0,1.0,1.0
51.72,4.0,1.0,1.0,1.0
51.73,7.0,1.0,1.0,1.0
51.74,5.0,1.0,1.0,1.0
51.75,12.0,1.0,1.0,1.0
51.76,5.0,1.0,1.0,1.0
51.77,11.0,1.0,1.0,1.0
51.78,2.0,1.0,1.0,1.0
51.79,12.0,1.0,1.0,1.0
51.8,9.0,1.0,1.0,1.0
51.81,8.0,1.0,1.0,1.0
51.82,10.0,1.0,1.0,1.0
51.83,20.0,1.0,1.0,1.0
51.84,58.0,1.0,1.0,1.0
51.85,10.4944,1.0,1.0,1.0
51.86,4.5056,1.0,1.0,1.0
51.87,13.0,1.0,1.0,1.0
51.88,7.0,1.0,1.0,1.0
51.89,3.0,1.0,1.0,1.0
51.9,8.0,1.0,1.0,1.0
51.91,5.0,1.0,1.0,1.0
51.92,16.0,1.0,1.0,1.0
51.93,3.0,1.0,1.0,1.0
51.94,10.0,1.0,1.0,1.0
51.95,2.0,1.0,1.0,1.0
51.96,7.0,1.0,1.0,1.0
51.97,6.0,1.0,1.0,1.0
51.98,11.0,1.0,1.0,1.0
51.99,0.0,1.0,1.0,1.0
52.0,4.0,1.0,1.0,1.0