File: XRD:XRR/SCO/22102_S(CT)OL/22102_S(CT)OL_XRD_notAnn.csv
#twotheta, yobs, ycal, bkg, diff
42.0,27.4944,1.0,1.0,1.0
42.01,30.5056,1.0,1.0,1.0
42.02,20.4944,1.0,1.0,1.0
42.03,21.5056,1.0,1.0,1.0
42.04,20.0,1.0,1.0,1.0
42.05,23.4944,1.0,1.0,1.0
42.06,31.0,1.0,1.0,1.0
42.07,33.5056,1.0,1.0,1.0
42.08,12.0,1.0,1.0,1.0
42.09,16.4944,1.0,1.0,1.0
42.1,10.5056,1.0,1.0,1.0
42.11,15.4944,1.0,1.0,1.0
42.12,16.0,1.0,1.0,1.0
42.13,30.0,1.0,1.0,1.0
42.14,20.5056,1.0,1.0,1.0
42.15,35.0,1.0,1.0,1.0
42.16,29.0,1.0,1.0,1.0
42.17,22.0,1.0,1.0,1.0
42.18,14.0,1.0,1.0,1.0
42.19,34.0,1.0,1.0,1.0
42.2,10.0,1.0,1.0,1.0
42.21,12.0,1.0,1.0,1.0
42.22,27.0,1.0,1.0,1.0
42.23,16.4944,1.0,1.0,1.0
42.24,17.0,1.0,1.0,1.0
42.25,20.5056,1.0,1.0,1.0
42.26,14.0,1.0,1.0,1.0
42.27,15.0,1.0,1.0,1.0
42.28,21.0,1.0,1.0,1.0
42.29,27.9889,1.0,1.0,1.0
42.3,14.0111,1.0,1.0,1.0
42.31,29.0,1.0,1.0,1.0
42.32,26.0,1.0,1.0,1.0
42.33,24.0,1.0,1.0,1.0
42.34,38.4944,1.0,1.0,1.0
42.35,26.5056,1.0,1.0,1.0
42.36,27.4944,1.0,1.0,1.0
42.37,20.5056,1.0,1.0,1.0
42.38,21.4944,1.0,1.0,1.0
42.39,20.4944,1.0,1.0,1.0
42.4,11.0,1.0,1.0,1.0
42.41,25.0111,1.0,1.0,1.0
42.42,7.4944,1.0,1.0,1.0
42.43,23.0,1.0,1.0,1.0
42.44,15.0,1.0,1.0,1.0
42.45,27.5056,1.0,1.0,1.0
42.46,14.0,1.0,1.0,1.0
42.47,31.0,1.0,1.0,1.0
42.48,18.0,1.0,1.0,1.0
42.49,13.0,1.0,1.0,1.0
42.5,13.0,1.0,1.0,1.0
42.51,21.0,1.0,1.0,1.0
42.52,34.0,1.0,1.0,1.0
42.53,22.4944,1.0,1.0,1.0
42.54,25.5056,1.0,1.0,1.0
42.55,29.4944,1.0,1.0,1.0
42.56,41.4944,1.0,1.0,1.0
42.57,20.0111,1.0,1.0,1.0
42.58,17.0,1.0,1.0,1.0
42.59,16.0,1.0,1.0,1.0
42.6,31.0,1.0,1.0,1.0
42.61,30.0,1.0,1.0,1.0
42.62,25.0,1.0,1.0,1.0
42.63,12.0,1.0,1.0,1.0
42.64,16.0,1.0,1.0,1.0
42.65,28.0,1.0,1.0,1.0
42.66,13.0,1.0,1.0,1.0
42.67,27.4944,1.0,1.0,1.0
42.68,13.5056,1.0,1.0,1.0
42.69,34.0,1.0,1.0,1.0
42.7,31.9889,1.0,1.0,1.0
42.71,30.5056,1.0,1.0,1.0
42.72,25.5056,1.0,1.0,1.0
42.73,22.4944,1.0,1.0,1.0
42.74,21.5056,1.0,1.0,1.0
42.75,31.0,1.0,1.0,1.0
42.76,22.0,1.0,1.0,1.0
42.77,25.4944,1.0,1.0,1.0
42.78,22.0,1.0,1.0,1.0
42.79,33.0,1.0,1.0,1.0
42.8,26.5056,1.0,1.0,1.0
42.81,31.4944,1.0,1.0,1.0
42.82,10.5056,1.0,1.0,1.0
42.83,69.4944,1.0,1.0,1.0
42.84,23.5056,1.0,1.0,1.0
42.85,26.4944,1.0,1.0,1.0
42.86,39.0,1.0,1.0,1.0
42.87,27.5056,1.0,1.0,1.0
42.88,25.0,1.0,1.0,1.0
42.89,38.0,1.0,1.0,1.0
42.9,8.0,1.0,1.0,1.0
42.91,21.0,1.0,1.0,1.0
42.92,14.0,1.0,1.0,1.0
42.93,21.0,1.0,1.0,1.0
42.94,15.0,1.0,1.0,1.0
42.95,20.9889,1.0,1.0,1.0
42.96,25.5056,1.0,1.0,1.0
42.97,16.5056,1.0,1.0,1.0
42.98,27.0,1.0,1.0,1.0
42.99,31.0,1.0,1.0,1.0
43.0,20.0,1.0,1.0,1.0
43.01,27.0,1.0,1.0,1.0
43.02,36.0,1.0,1.0,1.0
43.03,35.0,1.0,1.0,1.0
43.04,24.0,1.0,1.0,1.0
43.05,18.0,1.0,1.0,1.0
43.06,29.9889,1.0,1.0,1.0
43.07,24.5056,1.0,1.0,1.0
43.08,30.0,1.0,1.0,1.0
43.09,25.5056,1.0,1.0,1.0
43.1,28.4944,1.0,1.0,1.0
43.11,33.4944,1.0,1.0,1.0
43.12,27.0111,1.0,1.0,1.0
43.13,22.9889,1.0,1.0,1.0
43.14,24.0111,1.0,1.0,1.0
43.15,40.4944,1.0,1.0,1.0
43.16,25.5056,1.0,1.0,1.0
43.17,18.0,1.0,1.0,1.0
43.18,18.0,1.0,1.0,1.0
43.19,25.4944,1.0,1.0,1.0
43.2,32.5056,1.0,1.0,1.0
43.21,27.0,1.0,1.0,1.0
43.22,31.0,1.0,1.0,1.0
43.23,36.4944,1.0,1.0,1.0
43.24,21.5056,1.0,1.0,1.0
43.25,21.0,1.0,1.0,1.0
43.26,30.0,1.0,1.0,1.0
43.27,18.9889,1.0,1.0,1.0
43.28,24.0111,1.0,1.0,1.0
43.29,47.0,1.0,1.0,1.0
43.3,26.0,1.0,1.0,1.0
43.31,33.0,1.0,1.0,1.0
43.32,30.0,1.0,1.0,1.0
43.33,44.9889,1.0,1.0,1.0
43.34,41.0111,1.0,1.0,1.0
43.35,42.4944,1.0,1.0,1.0
43.36,48.0,1.0,1.0,1.0
43.37,41.5056,1.0,1.0,1.0
43.38,31.4944,1.0,1.0,1.0
43.39,39.5056,1.0,1.0,1.0
43.4,44.4944,1.0,1.0,1.0
43.41,37.5056,1.0,1.0,1.0
43.42,29.4944,1.0,1.0,1.0
43.43,27.5056,1.0,1.0,1.0
43.44,40.4944,1.0,1.0,1.0
43.45,49.5056,1.0,1.0,1.0
43.46,27.0,1.0,1.0,1.0
43.47,37.4944,1.0,1.0,1.0
43.48,47.5056,1.0,1.0,1.0
43.49,50.0,1.0,1.0,1.0
43.5,37.4944,1.0,1.0,1.0
43.51,33.0,1.0,1.0,1.0
43.52,31.0,1.0,1.0,1.0
43.53,34.9889,1.0,1.0,1.0
43.54,49.0111,1.0,1.0,1.0
43.55,56.0,1.0,1.0,1.0
43.56,60.0,1.0,1.0,1.0
43.57,26.0,1.0,1.0,1.0
43.58,32.5056,1.0,1.0,1.0
43.59,41.0,1.0,1.0,1.0
43.6,54.9889,1.0,1.0,1.0
43.61,61.0111,1.0,1.0,1.0
43.62,53.4944,1.0,1.0,1.0
43.63,56.9889,1.0,1.0,1.0
43.64,60.0111,1.0,1.0,1.0
43.65,52.4944,1.0,1.0,1.0
43.66,41.5056,1.0,1.0,1.0
43.67,38.0,1.0,1.0,1.0
43.68,48.5056,1.0,1.0,1.0
43.69,51.4944,1.0,1.0,1.0
43.7,70.4944,1.0,1.0,1.0
43.71,45.5056,1.0,1.0,1.0
43.72,59.5056,1.0,1.0,1.0
43.73,59.9889,1.0,1.0,1.0
43.74,51.0,1.0,1.0,1.0
43.75,53.0111,1.0,1.0,1.0
43.76,58.4944,1.0,1.0,1.0
43.77,51.5056,1.0,1.0,1.0
43.78,67.4944,1.0,1.0,1.0
43.79,48.5056,1.0,1.0,1.0
43.8,74.4944,1.0,1.0,1.0
43.81,61.4944,1.0,1.0,1.0
43.82,52.0111,1.0,1.0,1.0
43.83,53.9889,1.0,1.0,1.0
43.84,46.5056,1.0,1.0,1.0
43.85,43.0,1.0,1.0,1.0
43.86,61.5056,1.0,1.0,1.0
43.87,65.9889,1.0,1.0,1.0
43.88,68.0,1.0,1.0,1.0
43.89,47.5056,1.0,1.0,1.0
43.9,75.0,1.0,1.0,1.0
43.91,63.9889,1.0,1.0,1.0
43.92,62.0,1.0,1.0,1.0
43.93,77.4944,1.0,1.0,1.0
43.94,58.5167,1.0,1.0,1.0
43.95,70.4944,1.0,1.0,1.0
43.96,67.5056,1.0,1.0,1.0
43.97,72.4944,1.0,1.0,1.0
43.98,69.5056,1.0,1.0,1.0
43.99,66.0,1.0,1.0,1.0
44.0,71.5056,1.0,1.0,1.0
44.01,74.9889,1.0,1.0,1.0
44.02,86.0111,1.0,1.0,1.0
44.03,67.9778,1.0,1.0,1.0
44.04,62.5167,1.0,1.0,1.0
44.05,70.4833,1.0,1.0,1.0
44.06,79.0111,1.0,1.0,1.0
44.07,97.4944,1.0,1.0,1.0
44.08,65.5056,1.0,1.0,1.0
44.09,117.5056,1.0,1.0,1.0
44.1,86.9889,1.0,1.0,1.0
44.11,64.0,1.0,1.0,1.0
44.12,91.0111,1.0,1.0,1.0
44.13,98.5056,1.0,1.0,1.0
44.14,95.9889,1.0,1.0,1.0
44.15,84.0111,1.0,1.0,1.0
44.16,98.9889,1.0,1.0,1.0
44.17,88.4833,1.0,1.0,1.0
44.18,85.0,1.0,1.0,1.0
44.19,91.5167,1.0,1.0,1.0
44.2,85.5056,1.0,1.0,1.0
44.21,68.9889,1.0,1.0,1.0
44.22,112.4944,1.0,1.0,1.0
44.23,109.0222,1.0,1.0,1.0
44.24,126.4833,1.0,1.0,1.0
44.25,137.4944,1.0,1.0,1.0
44.26,136.5167,1.0,1.0,1.0
44.27,119.4944,1.0,1.0,1.0
44.28,172.0,1.0,1.0,1.0
44.29,113.4833,1.0,1.0,1.0
44.3,139.5167,1.0,1.0,1.0
44.31,140.4833,1.0,1.0,1.0
44.32,154.0,1.0,1.0,1.0
44.33,148.0222,1.0,1.0,1.0
44.34,154.9889,1.0,1.0,1.0
44.35,183.0111,1.0,1.0,1.0
44.36,145.9889,1.0,1.0,1.0
44.37,202.4944,1.0,1.0,1.0
44.38,182.0111,1.0,1.0,1.0
44.39,161.9889,1.0,1.0,1.0
44.4,195.0,1.0,1.0,1.0
44.41,184.5056,1.0,1.0,1.0
44.42,222.9889,1.0,1.0,1.0
44.43,177.0222,1.0,1.0,1.0
44.44,182.4833,1.0,1.0,1.0
44.45,235.0,1.0,1.0,1.0
44.46,187.9889,1.0,1.0,1.0
44.47,236.5167,1.0,1.0,1.0
44.48,200.5056,1.0,1.0,1.0
44.49,217.4833,1.0,1.0,1.0
44.5,231.5056,1.0,1.0,1.0
44.51,197.9778,1.0,1.0,1.0
44.52,266.0111,1.0,1.0,1.0
44.53,221.0,1.0,1.0,1.0
44.54,265.0111,1.0,1.0,1.0
44.55,235.4722,1.0,1.0,1.0
44.56,222.55,1.0,1.0,1.0
44.57,217.4833,1.0,1.0,1.0
44.58,262.0,1.0,1.0,1.0
44.59,251.4833,1.0,1.0,1.0
44.6,247.0,1.0,1.0,1.0
44.61,244.9889,1.0,1.0,1.0
44.62,222.0111,1.0,1.0,1.0
44.63,237.4944,1.0,1.0,1.0
44.64,215.5056,1.0,1.0,1.0
44.65,248.0222,1.0,1.0,1.0
44.66,262.9889,1.0,1.0,1.0
44.67,265.5167,1.0,1.0,1.0
44.68,258.9667,1.0,1.0,1.0
44.69,289.0222,1.0,1.0,1.0
44.7,310.4944,1.0,1.0,1.0
44.71,299.9667,1.0,1.0,1.0
44.72,256.0333,1.0,1.0,1.0
44.73,315.4833,1.0,1.0,1.0
44.74,336.9889,1.0,1.0,1.0
44.75,327.0,1.0,1.0,1.0
44.76,321.0,1.0,1.0,1.0
44.77,320.0222,1.0,1.0,1.0
44.78,362.0,1.0,1.0,1.0
44.79,336.5056,1.0,1.0,1.0
44.8,300.9778,1.0,1.0,1.0
44.81,337.5389,1.0,1.0,1.0
44.82,366.9667,1.0,1.0,1.0
44.83,366.4944,1.0,1.0,1.0
44.84,370.4944,1.0,1.0,1.0
44.85,380.0222,1.0,1.0,1.0
44.86,322.9889,1.0,1.0,1.0
44.87,385.0,1.0,1.0,1.0
44.88,380.0222,1.0,1.0,1.0
44.89,349.4611,1.0,1.0,1.0
44.9,323.5278,1.0,1.0,1.0
44.91,337.5056,1.0,1.0,1.0
44.92,350.4722,1.0,1.0,1.0
44.93,333.0333,1.0,1.0,1.0
44.94,335.4611,1.0,1.0,1.0
44.95,334.0222,1.0,1.0,1.0
44.96,326.0222,1.0,1.0,1.0
44.97,334.4722,1.0,1.0,1.0
44.98,322.0111,1.0,1.0,1.0
44.99,330.9667,1.0,1.0,1.0
45.0,333.0222,1.0,1.0,1.0
45.01,323.9889,1.0,1.0,1.0
45.02,324.5056,1.0,1.0,1.0
45.03,300.5056,1.0,1.0,1.0
45.04,287.0,1.0,1.0,1.0
45.05,283.5056,1.0,1.0,1.0
45.06,282.0,1.0,1.0,1.0
45.07,328.9889,1.0,1.0,1.0
45.08,348.5278,1.0,1.0,1.0
45.09,308.5056,1.0,1.0,1.0
45.1,373.4611,1.0,1.0,1.0
45.11,358.9889,1.0,1.0,1.0
45.12,365.5389,1.0,1.0,1.0
45.13,357.5056,1.0,1.0,1.0
45.14,426.9667,1.0,1.0,1.0
45.15,407.5056,1.0,1.0,1.0
45.16,429.4722,1.0,1.0,1.0
45.17,454.55,1.0,1.0,1.0
45.18,468.4944,1.0,1.0,1.0
45.19,500.4611,1.0,1.0,1.0
45.2,498.4611,1.0,1.0,1.0
45.21,559.55,1.0,1.0,1.0
45.22,598.4944,1.0,1.0,1.0
45.23,622.0111,1.0,1.0,1.0
45.24,699.9778,1.0,1.0,1.0
45.25,618.5167,1.0,1.0,1.0
45.26,613.45,1.0,1.0,1.0
45.27,741.0333,1.0,1.0,1.0
45.28,758.5167,1.0,1.0,1.0
45.29,763.4833,1.0,1.0,1.0
45.3,751.9889,1.0,1.0,1.0
45.31,864.9556,1.0,1.0,1.0
45.32,897.5611,1.0,1.0,1.0
45.33,906.9778,1.0,1.0,1.0
45.34,882.0111,1.0,1.0,1.0
45.35,904.9222,1.0,1.0,1.0
45.36,999.5389,1.0,1.0,1.0
45.37,949.0667,1.0,1.0,1.0
45.38,895.9556,1.0,1.0,1.0
45.39,1013.52,1.0,1.0,1.0
45.4,1006.0,1.0,1.0,1.0
45.41,1035.48,1.0,1.0,1.0
45.42,1031.98,1.0,1.0,1.0
45.43,991.5278,1.0,1.0,1.0
45.44,969.0333,1.0,1.0,1.0
45.45,1064.45,1.0,1.0,1.0
45.46,1055.99,1.0,1.0,1.0
45.47,1040.03,1.0,1.0,1.0
45.48,1059.97,1.0,1.0,1.0
45.49,1022.51,1.0,1.0,1.0
45.5,1045.45,1.0,1.0,1.0
45.51,1185.57,1.0,1.0,1.0
45.52,1054.47,1.0,1.0,1.0
45.53,1068.49,1.0,1.0,1.0
45.54,1056.01,1.0,1.0,1.0
45.55,1084.52,1.0,1.0,1.0
45.56,1056.99,1.0,1.0,1.0
45.57,1104.46,1.0,1.0,1.0
45.58,1106.06,1.0,1.0,1.0
45.59,1084.51,1.0,1.0,1.0
45.6,1121.51,1.0,1.0,1.0
45.61,1106.99,1.0,1.0,1.0
45.62,1090.43,1.0,1.0,1.0
45.63,1217.54,1.0,1.0,1.0
45.64,1204.49,1.0,1.0,1.0
45.65,1225.49,1.0,1.0,1.0
45.66,1263.53,1.0,1.0,1.0
45.67,1331.94,1.0,1.0,1.0
45.68,1302.56,1.0,1.0,1.0
45.69,1431.97,1.0,1.0,1.0
45.7,1540.47,1.0,1.0,1.0
45.71,1550.49,1.0,1.0,1.0
45.72,1608.48,1.0,1.0,1.0
45.73,1682.0,1.0,1.0,1.0
45.74,1711.04,1.0,1.0,1.0
45.75,1810.92,1.0,1.0,1.0
45.76,1954.98,1.0,1.0,1.0
45.77,1970.0,1.0,1.0,1.0
45.78,2081.08,1.0,1.0,1.0
45.79,2242.45,1.0,1.0,1.0
45.8,2314.96,1.0,1.0,1.0
45.81,2614.49,1.0,1.0,1.0
45.82,2623.02,1.0,1.0,1.0
45.83,2750.42,1.0,1.0,1.0
45.84,2934.47,1.0,1.0,1.0
45.85,3121.45,1.0,1.0,1.0
45.86,3143.49,1.0,1.0,1.0
45.87,3410.98,1.0,1.0,1.0
45.88,3416.55,1.0,1.0,1.0
45.89,3592.46,1.0,1.0,1.0
45.9,3817.45,1.0,1.0,1.0
45.91,4009.03,1.0,1.0,1.0
45.92,4188.47,1.0,1.0,1.0
45.93,4252.52,1.0,1.0,1.0
45.94,4299.99,1.0,1.0,1.0
45.95,4507.51,1.0,1.0,1.0
45.96,4740.99,1.0,1.0,1.0
45.97,4700.439,1.0,1.0,1.0
45.98,4886.55,1.0,1.0,1.0
45.99,4859.96,1.0,1.0,1.0
46.0,5173.45,1.0,1.0,1.0
46.01,5291.02,1.0,1.0,1.0
46.02,5258.49,1.0,1.0,1.0
46.03,5399.91,1.0,1.0,1.0
46.04,5599.03,1.0,1.0,1.0
46.05,5546.92,1.0,1.0,1.0
46.06,5602.63,1.0,1.0,1.0
46.07,5351.45,1.0,1.0,1.0
46.08,5516.53,1.0,1.0,1.0
46.09,5612.01,1.0,1.0,1.0
46.1,5503.49,1.0,1.0,1.0
46.11,5363.41,1.0,1.0,1.0
46.12,5286.63,1.0,1.0,1.0
46.13,5527.83,1.0,1.0,1.0
46.14,5387.74,1.0,1.0,1.0
46.15,5295.43,1.0,1.0,1.0
46.16,5238.98,1.0,1.0,1.0
46.17,5192.96,1.0,1.0,1.0
46.18,5190.48,1.0,1.0,1.0
46.19,5004.47,1.0,1.0,1.0
46.2,4871.71,1.0,1.0,1.0
46.21,4712.26,1.0,1.0,1.0
46.22,4514.18,1.0,1.0,1.0
46.23,4460.03,1.0,1.0,1.0
46.24,4329.04,1.0,1.0,1.0
46.25,4172.0,1.0,1.0,1.0
46.26,4007.51,1.0,1.0,1.0
46.27,3814.55,1.0,1.0,1.0
46.28,3722.93,1.0,1.0,1.0
46.29,3693.561,1.0,1.0,1.0
46.3,3488.96,1.0,1.0,1.0
46.31,3355.13,1.0,1.0,1.0
46.32,3227.92,1.0,1.0,1.0
46.33,3143.439,1.0,1.0,1.0
46.34,3062.12,1.0,1.0,1.0
46.35,2821.97,1.0,1.0,1.0
46.36,2835.51,1.0,1.0,1.0
46.37,2679.47,1.0,1.0,1.0
46.38,2495.64,1.0,1.0,1.0
46.39,2476.78,1.0,1.0,1.0
46.4,2423.62,1.0,1.0,1.0
46.41,2268.57,1.0,1.0,1.0
46.42,2155.54,1.0,1.0,1.0
46.43,2148.02,1.0,1.0,1.0
46.44,2024.0,1.0,1.0,1.0
46.45,2035.0,1.0,1.0,1.0
46.46,1835.97,1.0,1.0,1.0
46.47,1928.02,1.0,1.0,1.0
46.48,1671.57,1.0,1.0,1.0
46.49,1718.47,1.0,1.0,1.0
46.5,1666.0,1.0,1.0,1.0
46.51,1634.45,1.0,1.0,1.0
46.52,1570.56,1.0,1.0,1.0
46.53,1406.45,1.0,1.0,1.0
46.54,1434.51,1.0,1.0,1.0
46.55,1327.61,1.0,1.0,1.0
46.56,1281.42,1.0,1.0,1.0
46.57,1233.49,1.0,1.0,1.0
46.58,1197.0,1.0,1.0,1.0
46.59,1084.57,1.0,1.0,1.0
46.6,1072.99,1.0,1.0,1.0
46.61,1043.0,1.0,1.0,1.0
46.62,984.9889,1.0,1.0,1.0
46.63,1039.53,1.0,1.0,1.0
46.64,894.5278,1.0,1.0,1.0
46.65,872.9667,1.0,1.0,1.0
46.66,831.5056,1.0,1.0,1.0
46.67,812.5056,1.0,1.0,1.0
46.68,775.4611,1.0,1.0,1.0
46.69,688.5722,1.0,1.0,1.0
46.7,704.4833,1.0,1.0,1.0
46.71,650.5056,1.0,1.0,1.0
46.72,598.4833,1.0,1.0,1.0
46.73,587.0667,1.0,1.0,1.0
46.74,562.9889,1.0,1.0,1.0
46.75,526.4833,1.0,1.0,1.0
46.76,503.5278,1.0,1.0,1.0
46.77,482.4833,1.0,1.0,1.0
46.78,442.9778,1.0,1.0,1.0
46.79,456.4944,1.0,1.0,1.0
46.8,402.5389,1.0,1.0,1.0
46.81,362.0,1.0,1.0,1.0
46.82,376.9556,1.0,1.0,1.0
46.83,572.0333,1.0,1.0,1.0
46.84,330.4944,1.0,1.0,1.0
46.85,368.9889,1.0,1.0,1.0
46.86,348.0111,1.0,1.0,1.0
46.87,331.0333,1.0,1.0,1.0
46.88,335.4611,1.0,1.0,1.0
46.89,297.5056,1.0,1.0,1.0
46.9,286.0333,1.0,1.0,1.0
46.91,343.4722,1.0,1.0,1.0
46.92,357.9778,1.0,1.0,1.0
46.93,314.5389,1.0,1.0,1.0
46.94,318.4944,1.0,1.0,1.0
46.95,310.4944,1.0,1.0,1.0
46.96,279.9889,1.0,1.0,1.0
46.97,306.5278,1.0,1.0,1.0
46.98,322.9445,1.0,1.0,1.0
46.99,324.0333,1.0,1.0,1.0
47.0,343.0111,1.0,1.0,1.0
47.01,366.9778,1.0,1.0,1.0
47.02,363.0,1.0,1.0,1.0
47.03,378.0111,1.0,1.0,1.0
47.04,406.9667,1.0,1.0,1.0
47.05,419.5278,1.0,1.0,1.0
47.06,428.0111,1.0,1.0,1.0
47.07,468.4722,1.0,1.0,1.0
47.08,479.5389,1.0,1.0,1.0
47.09,586.4611,1.0,1.0,1.0
47.1,553.9889,1.0,1.0,1.0
47.11,589.5056,1.0,1.0,1.0
47.12,600.0,1.0,1.0,1.0
47.13,693.4944,1.0,1.0,1.0
47.14,633.9778,1.0,1.0,1.0
47.15,696.5278,1.0,1.0,1.0
47.16,735.5278,1.0,1.0,1.0
47.17,803.45,1.0,1.0,1.0
47.18,855.5167,1.0,1.0,1.0
47.19,822.0111,1.0,1.0,1.0
47.2,860.9445,1.0,1.0,1.0
47.21,909.5167,1.0,1.0,1.0
47.22,857.4944,1.0,1.0,1.0
47.23,922.4833,1.0,1.0,1.0
47.24,968.0333,1.0,1.0,1.0
47.25,956.4833,1.0,1.0,1.0
47.26,988.5278,1.0,1.0,1.0
47.27,1022.93,1.0,1.0,1.0
47.28,1046.07,1.0,1.0,1.0
47.29,1196.46,1.0,1.0,1.0
47.3,986.5278,1.0,1.0,1.0
47.31,976.45,1.0,1.0,1.0
47.32,1016.59,1.0,1.0,1.0
47.33,971.9333,1.0,1.0,1.0
47.34,1027.99,1.0,1.0,1.0
47.35,1030.52,1.0,1.0,1.0
47.36,982.4833,1.0,1.0,1.0
47.37,976.5056,1.0,1.0,1.0
47.38,941.5056,1.0,1.0,1.0
47.39,897.0111,1.0,1.0,1.0
47.4,934.4833,1.0,1.0,1.0
47.41,931.0,1.0,1.0,1.0
47.42,918.0111,1.0,1.0,1.0
47.43,882.0333,1.0,1.0,1.0
47.44,857.9778,1.0,1.0,1.0
47.45,858.55,1.0,1.0,1.0
47.46,849.9445,1.0,1.0,1.0
47.47,910.4611,1.0,1.0,1.0
47.48,877.5167,1.0,1.0,1.0
47.49,865.5056,1.0,1.0,1.0
47.5,911.5167,1.0,1.0,1.0
47.51,891.5389,1.0,1.0,1.0
47.52,937.4611,1.0,1.0,1.0
47.53,950.0111,1.0,1.0,1.0
47.54,1031.97,1.0,1.0,1.0
47.55,1067.01,1.0,1.0,1.0
47.56,1016.98,1.0,1.0,1.0
47.57,1022.47,1.0,1.0,1.0
47.58,1070.54,1.0,1.0,1.0
47.59,1226.51,1.0,1.0,1.0
47.6,1246.98,1.0,1.0,1.0
47.61,1387.51,1.0,1.0,1.0
47.62,1417.94,1.0,1.0,1.0
47.63,1490.55,1.0,1.0,1.0
47.64,1666.93,1.0,1.0,1.0
47.65,1761.98,1.0,1.0,1.0
47.66,1872.54,1.0,1.0,1.0
47.67,2121.94,1.0,1.0,1.0
47.68,2282.52,1.0,1.0,1.0
47.69,2478.39,1.0,1.0,1.0
47.7,2740.49,1.0,1.0,1.0
47.71,3105.58,1.0,1.0,1.0
47.72,3444.32,1.0,1.0,1.0
47.73,3984.561,1.0,1.0,1.0
47.74,4602.37,1.0,1.0,1.0
47.75,5277.35,1.0,1.0,1.0
47.76,6374.01,1.0,1.0,1.0
47.77,7446.21,1.0,1.0,1.0
47.78,8721.33,1.0,1.0,1.0
47.79,10576.3,1.0,1.0,1.0
47.8,12785.1,1.0,1.0,1.0
47.81,15927.2,1.0,1.0,1.0
47.82,19453.1,1.0,1.0,1.0
47.83,24170.6,1.0,1.0,1.0
47.84,30331.1,1.0,1.0,1.0
47.85,37651.3,1.0,1.0,1.0
47.86,46347.7,1.0,1.0,1.0
47.87,56176.3,1.0,1.0,1.0
47.88,68326.2,1.0,1.0,1.0
47.89,83333.2,1.0,1.0,1.0
47.9,100864.375,1.0,1.0,1.0
47.91,122029,1.0,1.0,1.0
47.92,156664,1.0,1.0,1.0
47.93,204489.125,1.0,1.0,1.0
47.94,246972,1.0,1.0,1.0
47.95,281203,1.0,1.0,1.0
47.96,313333,1.0,1.0,1.0
47.97,348965.75,1.0,1.0,1.0
47.98,392140,1.0,1.0,1.0
47.99,442962,1.0,1.0,1.0
48.0,504857,1.0,1.0,1.0
48.01,609204.5,1.0,1.0,1.0
48.02,968736,1.0,1.0,1.0
48.03,2774365.75,1.0,1.0,1.0
48.04,3312740.0,1.0,1.0,1.0
48.05,3748480.25,1.0,1.0,1.0
48.06,3871958.5,1.0,1.0,1.0
48.07,1976400.375,1.0,1.0,1.0
48.08,1145459.375,1.0,1.0,1.0
48.09,611733,1.0,1.0,1.0
48.1,319601,1.0,1.0,1.0
48.11,186702.125,1.0,1.0,1.0
48.12,109430,1.0,1.0,1.0
48.13,62103.9,1.0,1.0,1.0
48.14,43332.2,1.0,1.0,1.0
48.15,31991.8,1.0,1.0,1.0
48.16,24470.834,1.0,1.0,1.0
48.17,18860.6,1.0,1.0,1.0
48.18,14793.3,1.0,1.0,1.0
48.19,11826.5,1.0,1.0,1.0
48.2,9535.65,1.0,1.0,1.0
48.21,7647.12,1.0,1.0,1.0
48.22,6267.59,1.0,1.0,1.0
48.23,5460.08,1.0,1.0,1.0
48.24,4437.17,1.0,1.0,1.0
48.25,3861.52,1.0,1.0,1.0
48.26,3351.189,1.0,1.0,1.0
48.27,2895.46,1.0,1.0,1.0
48.28,2617.43,1.0,1.0,1.0
48.29,2329.11,1.0,1.0,1.0
48.3,2036.47,1.0,1.0,1.0
48.31,1869.08,1.0,1.0,1.0
48.32,1734.02,1.0,1.0,1.0
48.33,1525.91,1.0,1.0,1.0
48.34,1467.62,1.0,1.0,1.0
48.35,1310.53,1.0,1.0,1.0
48.36,1205.99,1.0,1.0,1.0
48.37,1149.52,1.0,1.0,1.0
48.38,1103.48,1.0,1.0,1.0
48.39,930.0222,1.0,1.0,1.0
48.4,836.0111,1.0,1.0,1.0
48.41,856.5389,1.0,1.0,1.0
48.42,786.4389,1.0,1.0,1.0
48.43,729.0222,1.0,1.0,1.0
48.44,683.5278,1.0,1.0,1.0
48.45,622.5167,1.0,1.0,1.0
48.46,578.4833,1.0,1.0,1.0
48.47,588.9889,1.0,1.0,1.0
48.48,502.5167,1.0,1.0,1.0
48.49,491.9778,1.0,1.0,1.0
48.5,434.0333,1.0,1.0,1.0
48.51,390.9667,1.0,1.0,1.0
48.52,415.5389,1.0,1.0,1.0
48.53,404.9778,1.0,1.0,1.0
48.54,406.0,1.0,1.0,1.0
48.55,375.5389,1.0,1.0,1.0
48.56,354.4944,1.0,1.0,1.0
48.57,316.9889,1.0,1.0,1.0
48.58,316.9889,1.0,1.0,1.0
48.59,347.5278,1.0,1.0,1.0
48.6,370.9667,1.0,1.0,1.0
48.61,311.5167,1.0,1.0,1.0
48.62,297.0111,1.0,1.0,1.0
48.63,335.4833,1.0,1.0,1.0
48.64,289.0,1.0,1.0,1.0
48.65,301.9889,1.0,1.0,1.0
48.66,339.0111,1.0,1.0,1.0
48.67,273.0222,1.0,1.0,1.0
48.68,259.9778,1.0,1.0,1.0
48.69,301.0111,1.0,1.0,1.0
48.7,215.9778,1.0,1.0,1.0
48.71,298.0111,1.0,1.0,1.0
48.72,284.0111,1.0,1.0,1.0
48.73,248.0111,1.0,1.0,1.0
48.74,232.9667,1.0,1.0,1.0
48.75,276.0111,1.0,1.0,1.0
48.76,278.0111,1.0,1.0,1.0
48.77,222.0,1.0,1.0,1.0
48.78,183.4833,1.0,1.0,1.0
48.79,220.5389,1.0,1.0,1.0
48.8,221.9778,1.0,1.0,1.0
48.81,177.5278,1.0,1.0,1.0
48.82,173.4944,1.0,1.0,1.0
48.83,165.4833,1.0,1.0,1.0
48.84,189.0111,1.0,1.0,1.0
48.85,166.4944,1.0,1.0,1.0
48.86,167.0,1.0,1.0,1.0
48.87,155.4944,1.0,1.0,1.0
48.88,141.5056,1.0,1.0,1.0
48.89,136.4833,1.0,1.0,1.0
48.9,150.5056,1.0,1.0,1.0
48.91,129.5278,1.0,1.0,1.0
48.92,159.9778,1.0,1.0,1.0
48.93,157.4944,1.0,1.0,1.0
48.94,113.5278,1.0,1.0,1.0
48.95,125.9889,1.0,1.0,1.0
48.96,169.0,1.0,1.0,1.0
48.97,139.9778,1.0,1.0,1.0
48.98,140.5278,1.0,1.0,1.0
48.99,154.0,1.0,1.0,1.0
49.0,136.4944,1.0,1.0,1.0
49.01,152.4944,1.0,1.0,1.0
49.02,120.9889,1.0,1.0,1.0
49.03,142.5167,1.0,1.0,1.0
49.04,124.9778,1.0,1.0,1.0
49.05,154.0222,1.0,1.0,1.0
49.06,133.9778,1.0,1.0,1.0
49.07,128.5167,1.0,1.0,1.0
49.08,139.5056,1.0,1.0,1.0
49.09,126.0,1.0,1.0,1.0
49.1,132.0,1.0,1.0,1.0
49.11,140.4833,1.0,1.0,1.0
49.12,126.0111,1.0,1.0,1.0
49.13,126.0111,1.0,1.0,1.0
49.14,135.4944,1.0,1.0,1.0
49.15,102.5056,1.0,1.0,1.0
49.16,118.9778,1.0,1.0,1.0
49.17,97.0111,1.0,1.0,1.0
49.18,133.0111,1.0,1.0,1.0
49.19,123.4833,1.0,1.0,1.0
49.2,122.0222,1.0,1.0,1.0
49.21,96.4944,1.0,1.0,1.0
49.22,84.4944,1.0,1.0,1.0
49.23,108.5056,1.0,1.0,1.0
49.24,111.9889,1.0,1.0,1.0
49.25,102.5056,1.0,1.0,1.0
49.26,94.0111,1.0,1.0,1.0
49.27,62.4833,1.0,1.0,1.0
49.28,77.5167,1.0,1.0,1.0
49.29,99.4944,1.0,1.0,1.0
49.3,60.0,1.0,1.0,1.0
49.31,100.4944,1.0,1.0,1.0
49.32,72.0,1.0,1.0,1.0
49.33,60.4944,1.0,1.0,1.0
49.34,58.5056,1.0,1.0,1.0
49.35,87.5056,1.0,1.0,1.0
49.36,58.5056,1.0,1.0,1.0
49.37,55.4944,1.0,1.0,1.0
49.38,41.0,1.0,1.0,1.0
49.39,86.4944,1.0,1.0,1.0
49.4,65.4944,1.0,1.0,1.0
49.41,94.0111,1.0,1.0,1.0
49.42,71.5056,1.0,1.0,1.0
49.43,43.9889,1.0,1.0,1.0
49.44,55.0111,1.0,1.0,1.0
49.45,55.4833,1.0,1.0,1.0
49.46,67.5056,1.0,1.0,1.0
49.47,67.5056,1.0,1.0,1.0
49.48,83.9889,1.0,1.0,1.0
49.49,66.5167,1.0,1.0,1.0
49.5,35.9889,1.0,1.0,1.0
49.51,77.5056,1.0,1.0,1.0
49.52,49.4944,1.0,1.0,1.0
49.53,64.5056,1.0,1.0,1.0
49.54,56.5056,1.0,1.0,1.0
49.55,40.0,1.0,1.0,1.0
49.56,60.0,1.0,1.0,1.0
49.57,38.9889,1.0,1.0,1.0
49.58,36.5056,1.0,1.0,1.0
49.59,82.5056,1.0,1.0,1.0
49.6,47.4944,1.0,1.0,1.0
49.61,53.5056,1.0,1.0,1.0
49.62,47.9889,1.0,1.0,1.0
49.63,42.0,1.0,1.0,1.0
49.64,35.5056,1.0,1.0,1.0
49.65,51.0,1.0,1.0,1.0
49.66,44.4944,1.0,1.0,1.0
49.67,41.5056,1.0,1.0,1.0
49.68,42.9889,1.0,1.0,1.0
49.69,25.5167,1.0,1.0,1.0
49.7,84.0,1.0,1.0,1.0
49.71,40.0,1.0,1.0,1.0
49.72,30.0,1.0,1.0,1.0
49.73,48.0,1.0,1.0,1.0
49.74,37.0,1.0,1.0,1.0
49.75,47.4944,1.0,1.0,1.0
49.76,42.0,1.0,1.0,1.0
49.77,27.4944,1.0,1.0,1.0
49.78,44.0111,1.0,1.0,1.0
49.79,36.4944,1.0,1.0,1.0
49.8,43.4944,1.0,1.0,1.0
49.81,36.0111,1.0,1.0,1.0
49.82,37.0,1.0,1.0,1.0
49.83,24.0,1.0,1.0,1.0
49.84,35.0,1.0,1.0,1.0
49.85,20.0,1.0,1.0,1.0
49.86,47.0,1.0,1.0,1.0
49.87,41.4833,1.0,1.0,1.0
49.88,26.0111,1.0,1.0,1.0
49.89,40.4944,1.0,1.0,1.0
49.9,28.0111,1.0,1.0,1.0
49.91,38.0,1.0,1.0,1.0
49.92,32.4944,1.0,1.0,1.0
49.93,44.9889,1.0,1.0,1.0
49.94,42.5167,1.0,1.0,1.0
49.95,35.0,1.0,1.0,1.0
49.96,34.9889,1.0,1.0,1.0
49.97,45.0,1.0,1.0,1.0
49.98,34.0111,1.0,1.0,1.0
49.99,29.4833,1.0,1.0,1.0
50.0,36.5167,1.0,1.0,1.0
50.01,28.4833,1.0,1.0,1.0
50.02,38.0,1.0,1.0,1.0
50.03,32.5167,1.0,1.0,1.0
50.04,25.9889,1.0,1.0,1.0
50.05,27.5056,1.0,1.0,1.0
50.06,38.0,1.0,1.0,1.0
50.07,18.4944,1.0,1.0,1.0
50.08,36.0111,1.0,1.0,1.0
50.09,27.0,1.0,1.0,1.0
50.1,31.9889,1.0,1.0,1.0
50.11,28.5056,1.0,1.0,1.0
50.12,26.0,1.0,1.0,1.0
50.13,28.5056,1.0,1.0,1.0
50.14,18.0,1.0,1.0,1.0
50.15,31.0,1.0,1.0,1.0
50.16,35.0,1.0,1.0,1.0
50.17,29.0,1.0,1.0,1.0
50.18,23.0,1.0,1.0,1.0
50.19,37.0,1.0,1.0,1.0
50.2,26.0,1.0,1.0,1.0
50.21,29.9889,1.0,1.0,1.0
50.22,28.5056,1.0,1.0,1.0
50.23,39.5056,1.0,1.0,1.0
50.24,36.0,1.0,1.0,1.0
50.25,30.4833,1.0,1.0,1.0
50.26,41.5167,1.0,1.0,1.0
50.27,28.0,1.0,1.0,1.0
50.28,29.0,1.0,1.0,1.0
50.29,19.0,1.0,1.0,1.0
50.3,28.4944,1.0,1.0,1.0
50.31,37.5056,1.0,1.0,1.0
50.32,40.0,1.0,1.0,1.0
50.33,20.0,1.0,1.0,1.0
50.34,22.4944,1.0,1.0,1.0
50.35,39.5056,1.0,1.0,1.0
50.36,15.0,1.0,1.0,1.0
50.37,28.9889,1.0,1.0,1.0
50.38,30.5056,1.0,1.0,1.0
50.39,24.5056,1.0,1.0,1.0
50.4,40.4944,1.0,1.0,1.0
50.41,29.5056,1.0,1.0,1.0
50.42,28.0,1.0,1.0,1.0
50.43,20.0,1.0,1.0,1.0
50.44,24.4944,1.0,1.0,1.0
50.45,17.5056,1.0,1.0,1.0
50.46,34.4944,1.0,1.0,1.0
50.47,23.4944,1.0,1.0,1.0
50.48,24.0,1.0,1.0,1.0
50.49,17.0111,1.0,1.0,1.0
50.5,20.0,1.0,1.0,1.0
50.51,42.0,1.0,1.0,1.0
50.52,21.0,1.0,1.0,1.0
50.53,9.0,1.0,1.0,1.0
50.54,30.4944,1.0,1.0,1.0
50.55,20.5056,1.0,1.0,1.0
50.56,19.0,1.0,1.0,1.0
50.57,27.4944,1.0,1.0,1.0
50.58,35.0,1.0,1.0,1.0
50.59,45.5056,1.0,1.0,1.0
50.6,22.9889,1.0,1.0,1.0
50.61,35.0111,1.0,1.0,1.0
50.62,17.0,1.0,1.0,1.0
50.63,15.0,1.0,1.0,1.0
50.64,60.0,1.0,1.0,1.0
50.65,15.0,1.0,1.0,1.0
50.66,38.0,1.0,1.0,1.0
50.67,29.4944,1.0,1.0,1.0
50.68,28.5056,1.0,1.0,1.0
50.69,29.0,1.0,1.0,1.0
50.7,18.0,1.0,1.0,1.0
50.71,26.4944,1.0,1.0,1.0
50.72,25.5056,1.0,1.0,1.0
50.73,18.0,1.0,1.0,1.0
50.74,10.9889,1.0,1.0,1.0
50.75,24.0111,1.0,1.0,1.0
50.76,19.0,1.0,1.0,1.0
50.77,72.0,1.0,1.0,1.0
50.78,23.0,1.0,1.0,1.0
50.79,36.0,1.0,1.0,1.0
50.8,25.0,1.0,1.0,1.0
50.81,22.0,1.0,1.0,1.0
50.82,28.0,1.0,1.0,1.0
50.83,22.0,1.0,1.0,1.0
50.84,19.9889,1.0,1.0,1.0
50.85,4.0111,1.0,1.0,1.0
50.86,38.0,1.0,1.0,1.0
50.87,32.4944,1.0,1.0,1.0
50.88,31.0,1.0,1.0,1.0
50.89,39.5056,1.0,1.0,1.0
50.9,22.0,1.0,1.0,1.0
50.91,30.0,1.0,1.0,1.0
50.92,11.0,1.0,1.0,1.0
50.93,22.0,1.0,1.0,1.0
50.94,24.0,1.0,1.0,1.0
50.95,20.0,1.0,1.0,1.0
50.96,26.0,1.0,1.0,1.0
50.97,31.4944,1.0,1.0,1.0
50.98,25.5056,1.0,1.0,1.0
50.99,20.0,1.0,1.0,1.0
51.0,22.0,1.0,1.0,1.0
51.01,22.4944,1.0,1.0,1.0
51.02,22.5056,1.0,1.0,1.0
51.03,12.0,1.0,1.0,1.0
51.04,25.0,1.0,1.0,1.0
51.05,20.0,1.0,1.0,1.0
51.06,28.0,1.0,1.0,1.0
51.07,31.4944,1.0,1.0,1.0
51.08,25.0,1.0,1.0,1.0
51.09,27.5056,1.0,1.0,1.0
51.1,34.0,1.0,1.0,1.0
51.11,29.0,1.0,1.0,1.0
51.12,21.4944,1.0,1.0,1.0
51.13,38.5056,1.0,1.0,1.0
51.14,15.9889,1.0,1.0,1.0
51.15,21.0111,1.0,1.0,1.0
51.16,24.0,1.0,1.0,1.0
51.17,9.0,1.0,1.0,1.0
51.18,61.0,1.0,1.0,1.0
51.19,22.0,1.0,1.0,1.0
51.2,13.4944,1.0,1.0,1.0
51.21,25.0,1.0,1.0,1.0
51.22,20.4944,1.0,1.0,1.0
51.23,18.0,1.0,1.0,1.0
51.24,30.5056,1.0,1.0,1.0
51.25,18.5056,1.0,1.0,1.0
51.26,72.0,1.0,1.0,1.0
51.27,40.9778,1.0,1.0,1.0
51.28,26.0222,1.0,1.0,1.0
51.29,17.4944,1.0,1.0,1.0
51.3,24.4944,1.0,1.0,1.0
51.31,25.0111,1.0,1.0,1.0
51.32,30.0,1.0,1.0,1.0
51.33,14.0,1.0,1.0,1.0
51.34,38.9889,1.0,1.0,1.0
51.35,29.0111,1.0,1.0,1.0
51.36,20.0,1.0,1.0,1.0
51.37,24.4944,1.0,1.0,1.0
51.38,11.5056,1.0,1.0,1.0
51.39,25.0,1.0,1.0,1.0
51.4,8.0,1.0,1.0,1.0
51.41,21.0,1.0,1.0,1.0
51.42,17.0,1.0,1.0,1.0
51.43,28.4833,1.0,1.0,1.0
51.44,33.5167,1.0,1.0,1.0
51.45,19.0,1.0,1.0,1.0
51.46,29.0,1.0,1.0,1.0
51.47,24.0,1.0,1.0,1.0
51.48,37.0,1.0,1.0,1.0
51.49,26.0,1.0,1.0,1.0
51.5,22.0,1.0,1.0,1.0
51.51,19.0,1.0,1.0,1.0
51.52,17.0,1.0,1.0,1.0
51.53,23.0,1.0,1.0,1.0
51.54,22.0,1.0,1.0,1.0
51.55,11.0,1.0,1.0,1.0
51.56,35.0,1.0,1.0,1.0
51.57,23.4944,1.0,1.0,1.0
51.58,15.5056,1.0,1.0,1.0
51.59,16.4944,1.0,1.0,1.0
51.6,9.5056,1.0,1.0,1.0
51.61,20.4944,1.0,1.0,1.0
51.62,21.5056,1.0,1.0,1.0
51.63,16.9889,1.0,1.0,1.0
51.64,26.0111,1.0,1.0,1.0
51.65,16.0,1.0,1.0,1.0
51.66,12.4944,1.0,1.0,1.0
51.67,23.0,1.0,1.0,1.0
51.68,14.5056,1.0,1.0,1.0
51.69,22.4944,1.0,1.0,1.0
51.7,32.4944,1.0,1.0,1.0
51.71,24.0111,1.0,1.0,1.0
51.72,46.0,1.0,1.0,1.0
51.73,29.0,1.0,1.0,1.0
51.74,18.9889,1.0,1.0,1.0
51.75,26.0111,1.0,1.0,1.0
51.76,32.9889,1.0,1.0,1.0
51.77,20.5056,1.0,1.0,1.0
51.78,29.5056,1.0,1.0,1.0
51.79,13.0,1.0,1.0,1.0
51.8,23.9889,1.0,1.0,1.0
51.81,30.5056,1.0,1.0,1.0
51.82,9.5056,1.0,1.0,1.0
51.83,24.0,1.0,1.0,1.0
51.84,33.0,1.0,1.0,1.0
51.85,20.0,1.0,1.0,1.0
51.86,18.4944,1.0,1.0,1.0
51.87,20.0,1.0,1.0,1.0
51.88,18.5056,1.0,1.0,1.0
51.89,14.0,1.0,1.0,1.0
51.9,20.0,1.0,1.0,1.0
51.91,16.0,1.0,1.0,1.0
51.92,20.0,1.0,1.0,1.0
51.93,27.0,1.0,1.0,1.0
51.94,10.0,1.0,1.0,1.0
51.95,27.0,1.0,1.0,1.0
51.96,11.4944,1.0,1.0,1.0
51.97,21.5056,1.0,1.0,1.0
51.98,16.4944,1.0,1.0,1.0
51.99,23.5056,1.0,1.0,1.0
52.0,17.0,1.0,1.0,1.0