File: XRD:XRR/SCO/22102_S(CT)OL/22102_S(CT)OL_XRD_notAnn_001_2-Theta_Omega.asc
*TYPE		=  Raw
*CLASS		=  ASCII CLASS
*SAMPLE		=
*COMMENT	=
*FNAME		=  22102_S(CT)OL_XRD_notAnn_001_2-Theta_Omega.asc
*DATE		=  28-Jun-22 03:41

*GROUP_COUNT	=  1
*GONIO		=  SmartLab(In-plane), 0.000000
*ATTACHMENT	=  Z-Phi Stage
*ASC		=  0, 0, 0.000000, 0.000000
*I_MONOCHRO	=  Ge(220)x2, 0.000000
*FILTER		=  None
*C_MONOCHRO	=  None, 0.000000
*SLIT_NAME	=  0, Incident slit
*SLIT_NAME	=  1, Receiving slit # 1
*SLIT_NAME	=  2, Receiving slit # 2
*COUNTER	=  D/teX Ultra 250, 0
*POS_FORMAT	=  0
*SCAN_AXIS	=  2Theta/Omega
*MEAS_MODE	=  Continuous Scanning
*TARGET		=  29
*XRAY_CHAR	=  K-ALPHA1
*WAVE_LENGTH1	=  1.54059
*WAVE_LENGTH2	=  1.54441
*THICKNESS	=  0, 0.000000
*MU		=  0, 0.000000
*SCAN_MODE	=  2Theta/Omega
*SPEED_DIM	=  sec./step
*XUNIT		=  deg.
*YUNIT		=  counts
*SCALE_MODE	=  1
*REP_COUNT	=  0
*SE_COUNT	=  0
*STD_MATERIAL	=  Unknown, Unknown, 0.000000, 0.000000, 0.000000, 0.000000, 0.000000, 0.000000
*LATT_CONS	=  0, Unknown, Unknown, 0.000000, 0.000000, 0.000000, 0.000000, 0.000000, 0.000000
*SEC_COUNT	=  1
*TSPEC_SIZE	=  0
*EXTRA_SIZE	=  0
*MEMO		=

*BEGIN
*GROUP		=  0
*START		=  16
*STOP		=  31
*STEP		=  0.01
*OFFSET		=  0.084
*SPEED		=  28.5293
*SLIT_SPEC	=  0, 0.400mm, 0.4, 0.000000
*SLIT_SPEC	=  1, 0.400mm, 0.4, 0.000000
*SLIT_SPEC	=  2, 0.400mm, 0.4, 0.000000
*KV		=  40
*MA		=  30
*LOW		=  0.000000
*HIGH		=  0.000000
*CTEMPER	=  0, 0.000000
*CTEMPER	=  1, 0.000000
*CTEMPER	=  2, 0.000000
*PAREX		=  0, 0.000000
*PAREX		=  1, 0.000000
*PAREX		=  2, 0.000000
*PAREX		=  3, 0.000000
*PAREX		=  4, 0.000000
*PAREX		=  5, 0.000000
*PAREX		=  6, 0.000000
*PAREX		=  7, 0.000000
*PAREX		=  8, 0.000000
*PAREX		=  9, 0.000000
*PAREX		=  10, 0.000000
*PAREX		=  11, 0.000000
*PAREX		=  12, 0.000000
*PAREX		=  13, 0.000000
*PAREX		=  14, 0.000000
*PAREX		=  15, 0.000000
*FULL_SCALE	=  233032
*INDEX		=  0, 0, 0
*COUNT		=  1501
0.000000, 2, 1, 2
0.000000, 2, 5, 0.000000
3, 5, 0.000000, 0.000000
0.000000, 0.000000, 0.000000, 0.000000
13, 6, 0.000000, 0.000000
2, 0.000000, 2, 6
1, 0.000000, 2, 0.000000
2, 3, 0.000000, 2
0.000000, 5, 0.000000, 3
0.000000, 6, 0.000000, 0.000000
0.000000, 1, 4, 0.000000
2, 0.000000, 0.000000, 0.000000
0.000000, 2, 51, 0.000000
2, 2, 0.000000, 0.000000
4, 2, 0.000000, 3
4, 7.49921, 1.50079, 6
0.000000, 0.000000, 0.000000, 4
2, 1, 2, 0.000000
2, 0.000000, 0.000000, 2
0.000000, 3, 3, 2
0.000000, 0.000000, 0.000000, 4
2, 2, 0.000000, 0.000000
2, 0.000000, 0.000000, 2
0.000000, 0.000000, 2, 3
2, 0.000000, 2, 0.000000
6, 0.000000, 5, 0.000000
0.000000, 2, 0.000000, 6
0.000000, 0.000000, 2, 2
2, 1, 1, 3
2, 0.000000, 4, 0.000000
3, 0.000000, 0.000000, 2
0.000000, 0.000000, 2, 2
2, 0.000000, 0.000000, 3
0.000000, 2, 2, 2
0.000000, 2, 2, 3
0.000000, 2, 2, 2
0.000000, 0.000000, 2.49921, 0.500786
4, 0.000000, 2, 0.000000
4, 0.000000, 4, 1.49764
5.50236, 0.000000, 11, 3
4.49921, 0.500786, 3, 0.000000
0.000000, 0.000000, 2, 0.000000
2, 0.000000, 4, 0.000000
5, 0.000000, 2, 0.000000
2, 2, 0.000000, 3
4, 0.000000, 2, 2
1, 0.000000, 4, 2
0.000000, 0.000000, 0.000000, 5
2, 0.000000, 0.000000, 4.49921
2.50079, 3, 0.000000, 2
2, 2, 0.000000, 0.000000
3, 2, 0.000000, 2
2, 0.000000, 0.000000, 2
6, 2, 0.000000, 2
0.000000, 4, 0.000000, 2
3, 4, 0.000000, 3
0.000000, 2, 2, 2
3, 0.000000, 0.000000, 0.000000
3, 0.000000, 0.000000, 2
4, 0.000000, 0.000000, 3
0.000000, 2, 0.000000, 2
0.000000, 0.000000, 1, 2
2, 1, 2, 0.000000
0.000000, 12, 0.000000, 3
0.000000, 0.000000, 2, 0.000000
0.000000, 2, 0.000000, 0.000000
0.000000, 0.000000, 1.49921, 0.500786
7, 0.000000, 0.000000, 3
0.000000, 6, 0.000000, 3
4, 2, 0.000000, 4
7, 2, 4, 0.000000
2, 4, 3, 7
2, 2, 2, 3
9, 0.000000, 0.000000, 1.49921
5.50079, 2, 6, 4
2, 1, 4, 0.000000
1.49921, 0.500786, 0.000000, 2
2, 4, 2, 5
0.000000, 2, 0.000000, 0.000000
0.000000, 3, 2, 0.000000
0.000000, 2, 0.000000, 0.000000
0.000000, 2, 2, 5
0.000000, 0.499214, 2.50079, 0.000000
0.000000, 0.000000, 2, 2
2, 0.000000, 0.000000, 0.000000
1, 2, 2, 4
0.000000, 3, 5, 2
5, 4, 5, 6
0.000000, 2, 0.000000, 2
9, 2, 5, 0.000000
2, 3, 4, 8
0.000000, 8, 0.000000, 3
0.000000, 5, 0.000000, 2
3, 3, 5, 2
0.000000, 4, 1.49921, 0.500786
6, 8, 4, 3
4, 6, 0.000000, 1
2.49921, 2.50079, 0.000000, 0.000000
0.000000, 0.000000, 2, 2
0.000000, 3.49921, 2, 3.50079
2, 0.000000, 5, 2
3, 3, 0.000000, 2
7.49921, 2.50079, 0.000000, 2
2, 3, 3, 6
0.000000, 0.000000, 2, 0.000000
0.000000, 2, 9, 0.000000
3, 4.49921, 1.50079, 5
0.000000, 0.000000, 0.000000, 0.000000
3, 5, 0.000000, 4
0.000000, 0.000000, 4, 0.000000
0.000000, 2, 2, 0.000000
0.000000, 50, 0.000000, 3
1, 6, 0.499214, 2.50079
2, 0.000000, 4, 0.000000
3, 2, 6, 0.000000
2, 4, 1.49921, 0.500786
2, 2, 2, 2
2, 2, 3, 1
6, 1, 0.000000, 2
4, 2, 0.000000, 2
0.000000, 7, 0.000000, 4
0.000000, 0.000000, 5, 4
5, 2, 5, 0.000000
0.000000, 0.000000, 3, 2
0.000000, 0.000000, 0.000000, 6.49921
3.50079, 2, 2, 4
4, 0.000000, 2, 0.000000
7, 3, 7, 2
2, 0.000000, 0.000000, 4
3, 0.000000, 0.000000, 0.000000
1, 0.000000, 0.000000, 6
2.49921, 4.50079, 0.000000, 0.000000
0.000000, 5, 2, 4
1.49921, 4.50079, 2, 0.000000
0.000000, 2, 0.000000, 2
2.49921, 1.50079, 7, 7
4, 6, 4, 10
2, 2, 10, 2
8, 9, 7, 9.49921
5, 6.49921, 9.00157, 22
11, 9, 2.99843, 15.0016
8, 4, 15, 6
12, 6, 6, 0.000000
10.9984, 15.0016, 14, 3
5, 3, 12, 5
13, 6, 4, 6
13, 10, 13, 7
3, 4, 10.9984, 3.00157
6, 3.49921, 8.50079, 7
9.49921, 7.50079, 2, 7.49921
8.49921, 9.00157, 12, 5
9, 4, 3, 5
2, 11, 11, 4
16, 11, 30, 8.49764
18.5024, 14, 24, 12
8, 23.4992, 13.5008, 13
5, 11, 13, 11
16, 13.4992, 15.5008, 22
15, 26, 23.4992, 35.4992
33.0016, 33.4992, 35, 45.5008
42.4992, 53.4992, 70, 72
87.4992, 86.5008, 67, 124.501
151.498, 121.501, 139.002, 157.499
197.496, 195.501, 187.002, 207.002
239.998, 236.501, 282.994, 276.507
259.998, 264.501, 277.998, 344.499
280.002, 298.496, 335.501, 322.504
329.997, 325.501, 308.002, 307.499
286.997, 317.502, 330.998, 352.502
278, 260.501, 277.998, 272.498
223.005, 218.501, 208.997, 181
166.504, 202, 167.998, 154.501
185.499, 141.502, 145.498, 154.501
140.997, 144.003, 135.499, 130
159, 142.499, 129.499, 167.504
178.498, 160.501, 165.998, 192.002
185.997, 186, 206.502, 211.499
271, 319.002, 243.499, 298.499
331.499, 317.501, 399.994, 375.005
415, 463.488, 429.009, 436
519.504, 494.992, 489.502, 577.002
623.498, 683, 743.998, 950.495
1032.51, 1158.49, 1361.99, 1642.5
1948.99, 2502, 3350.98, 4399.47
6061.96, 8978.45, 13858.9, 22771.3
43666.4, 161912, 1094773.9, 2069118.8
1911988.1, 2453727.3, 4014274.8, 5248877
5233420, 3489023.5, 1640876.9, 563582
168230, 90600.4, 55145.9, 34667.8
21815.7, 14510.1, 9699.05, 6662.55
4839.03, 3578.52, 2886.51, 2150.01
1740, 1476, 1299, 1065
945.997, 867.006, 682.005, 615.501
615.002, 501.002, 432.995, 433.504
364.498, 342.002, 307.006, 269.997
260.998, 213, 252.003, 198.997
211, 156, 161.502, 162.998
136.002, 151.002, 142.498, 132.002
100.998, 101.002, 119, 103.002
97.4976, 84.5024, 87.4992, 86.4992
70.0016, 79.9969, 92.0016, 81.5008
68, 74, 68.4992, 58
82, 68.0016, 69, 49
42, 42, 46.4992, 38.5008
49, 34, 56.4992, 38.5008
22.4992, 29.5008, 7, 40
26, 21, 21, 25.4992
32.5008, 28.4992, 26.5008, 27
27, 27, 13.9984, 36.5008
28.4992, 20.0016, 28, 18
24.9984, 29.0016, 18, 21.4992
17.5008, 15, 16, 23
23.4992, 13.5008, 13, 12
23, 38, 10.4992, 6.50079
11.9984, 7.00157, 6, 10
17, 9.49921, 6.50079, 12
5.49921, 19.5008, 12, 4
8, 14, 7, 6
17.4992, 8.50079, 19, 10
2, 6, 10, 11
2, 13, 5, 11
16, 7, 0.000000, 4
2, 4, 2, 7
4, 7, 11, 2
4, 4, 6, 2
6, 7, 9, 2
5, 7, 5.49921, 9.50079
3, 7, 9, 5
0.000000, 3, 0.000000, 14
2, 5, 6, 4
0.000000, 4, 3, 0.000000
21, 7, 6, 3
3, 3, 7, 0.000000
10, 2, 0.000000, 6
0.000000, 9, 6, 4
11, 0.000000, 2, 13
0.000000, 0.000000, 4, 9
5, 0.000000, 4, 2
5, 0.000000, 2, 4
2, 2, 2, 2.49921
3.50079, 3, 0.000000, 6
0.000000, 2, 2, 0.000000
0.000000, 0.000000, 3, 2
2, 8.49764, 5.00157, 4.50079
6, 3, 0.000000, 0.000000
5, 3, 1, 5
2, 0.000000, 3, 0.000000
8, 4, 0.000000, 0.000000
1, 0.000000, 2, 4.99843
12.0016, 0.000000, 3, 3
2, 8, 2, 2
6, 0.000000, 0.000000, 4
3, 4, 2, 6
0.000000, 0.000000, 0.000000, 0.000000
0.000000, 2, 5, 0.000000
6.49921, 4.50079, 0.000000, 2
0.000000, 1, 2, 0.000000
4, 4, 5, 0.000000
0.000000, 4, 1, 3
1, 2, 0.000000, 5
0.000000, 0.000000, 0.000000, 0.000000
1, 2, 2, 0.000000
0.000000, 4, 0.000000, 0.000000
0.000000, 0.000000, 4, 0.000000
0.000000, 1, 5, 2
3, 0.000000, 2, 0.000000
0.000000, 0.000000, 5, 0.000000
8, 0.000000, 4, 0.000000
2, 2, 0.000000, 0.000000
1, 0.000000, 1, 3
0.000000, 0.499214, 2.50079, 0.000000
2, 1, 2, 2
0.000000, 3, 7, 1.49921
0.500786, 6, 0.000000, 0.000000
0.000000, 2, 2, 0.000000
0.000000, 2, 0.000000, 0.000000
0.000000, 0.000000, 2, 4
0.000000, 0.000000, 2, 1
0.000000, 5.49921, 0.500786, 7
7, 4, 3, 7
0.000000, 2, 6, 1
5, 0.000000, 5, 2
6, 0.000000, 0.000000, 5
2, 2, 8, 3
2, 3, 4, 1
6, 0.000000, 2, 0.000000
0.000000, 0.000000, 3, 1
2, 0.000000, 2, 0.000000
3, 2, 0.000000, 0.000000
6, 2, 1, 0.000000
2, 2, 0.000000, 4
2, 2, 2, 0.000000
2, 2, 0.000000, 4
0.000000, 2, 2, 0.000000
5, 2, 6, 2
3, 0.000000, 0.000000, 3
2, 11, 0.000000, 3
3, 0.000000, 4, 3.49921
0.500786, 3, 0.000000, 6.49921
0.500786, 0.000000, 0.000000, 12
0.000000, 0.000000, 2, 0.000000
4, 1, 0.000000, 0.000000
0.000000, 3, 0.000000, 1
0.000000, 1, 2, 3
0.000000, 0.000000, 2, 0.000000
0.000000, 0.000000, 0.000000, 0.000000
2, 2, 0.000000, 0.000000
0.000000, 0.499214, 4.50079, 2
6, 2, 2, 2
2, 2, 0.000000, 5
0.000000, 2, 0.000000, 2
1, 2, 2, 4
0.000000, 3, 0.000000, 0.000000
2.49921, 0.500786, 0.000000, 3
2, 0.000000, 2, 0.000000
2, 1, 6, 0.499214
2.50079, 0.000000, 2.49921, 0.500786
0.000000, 0.000000, 0.000000, 2
0.000000, 0.000000, 0.000000, 2
6, 0.000000, 2, 4
1, 4, 5, 0.000000
5, 0.000000, 2, 0.000000
0.000000, 1, 0.000000, 0.000000
2, 2, 2, 0.000000
0.000000, 0.000000, 2, 0.000000
0.000000, 2, 2, 4
0.000000, 0.000000, 2, 2
0.000000, 29, 2, 0.000000
0.000000, 1, 0.000000, 0.000000
5, 0.000000, 3, 2
2, 4, 0.000000, 2
0.000000, 2, 0.000000, 0.000000
0.000000, 0.000000, 9, 3
6, 0.000000, 2, 5
2, 1.49921, 0.500786, 2
0.000000, 0.000000, 2, 0.000000
5, 0.000000, 2, 1
1, 4, 2, 2
0.000000, 5, 0.000000, 2
1.49764, 4.50236, 0.000000, 0.000000
0.000000, 0.000000, 4, 2
7, 0.000000, 0.000000, 4
5, 3, 4, 0.000000
4, 2, 0.000000, 0.000000
0.000000, 0.000000, 0.000000, 5
4, 0.000000, 2, 0.000000
1, 6, 0.499214, 1.50079
0.000000, 0.000000, 2, 0.000000
0.000000, 0.000000, 0.000000, 0.000000
3, 0.000000, 2, 2
3, 0.000000, 3, 5
4, 2, 0.000000, 2
2, 2, 0.000000, 7
2, 0.000000, 2, 0.000000
0.000000, 4, 0.000000, 0.000000
2.49921, 10.5008, 0.000000, 0.000000
0.000000, 0.000000, 0.000000, 0.000000
0.000000, 2, 0.000000, 0.000000
0.000000, 0.000000, 0.000000, 5
0.000000, 2, 0.499214, 2.50079
0.000000, 2, 0.000000, 0.000000
0.000000, 0.000000, 0.000000, 0.000000
0.000000, 2, 3, 2
0.000000, 1, 0.000000, 0.000000
0.000000, 3, 0.000000, 0.000000
3, 0.000000, 0.000000, 0.000000
0.000000, 0.000000, 0.000000, 2
1, 2, 0.000000, 0.000000
0.000000, 0.000000, 4, 0.000000
0.000000, 0.000000, 0.000000, 0.000000
0.000000, 2, 4, 0.000000
0.000000, 4, 2, 0.000000
0.000000, 2, 0.000000, 2
2, 0.000000, 0.000000, 2
0.000000, 2, 0.000000, 3
0.000000
*END

*EOF