File: XRD:XRR/SCO/22155_SCO(CL)/22155_SCO(CL)_XRD.csv
#twotheta, yobs, ycal, bkg, diff
42.0,17.4944,1.0,1.0,1.0
42.01,13.5056,1.0,1.0,1.0
42.02,8.0,1.0,1.0,1.0
42.03,16.0,1.0,1.0,1.0
42.04,18.0,1.0,1.0,1.0
42.05,18.0,1.0,1.0,1.0
42.06,4.0,1.0,1.0,1.0
42.07,9.0,1.0,1.0,1.0
42.08,8.0,1.0,1.0,1.0
42.09,8.4944,1.0,1.0,1.0
42.1,17.5056,1.0,1.0,1.0
42.11,6.0,1.0,1.0,1.0
42.12,8.4944,1.0,1.0,1.0
42.13,17.5056,1.0,1.0,1.0
42.14,9.0,1.0,1.0,1.0
42.15,5.0,1.0,1.0,1.0
42.16,13.0,1.0,1.0,1.0
42.17,7.0,1.0,1.0,1.0
42.18,0.0,1.0,1.0,1.0
42.19,15.0,1.0,1.0,1.0
42.2,11.0,1.0,1.0,1.0
42.21,11.4944,1.0,1.0,1.0
42.22,5.5056,1.0,1.0,1.0
42.23,11.0,1.0,1.0,1.0
42.24,3.0,1.0,1.0,1.0
42.25,11.0,1.0,1.0,1.0
42.26,14.4944,1.0,1.0,1.0
42.27,7.0,1.0,1.0,1.0
42.28,17.5056,1.0,1.0,1.0
42.29,5.4944,1.0,1.0,1.0
42.3,14.5056,1.0,1.0,1.0
42.31,8.0,1.0,1.0,1.0
42.32,6.0,1.0,1.0,1.0
42.33,12.0,1.0,1.0,1.0
42.34,14.0,1.0,1.0,1.0
42.35,5.0,1.0,1.0,1.0
42.36,3.4944,1.0,1.0,1.0
42.37,5.5056,1.0,1.0,1.0
42.38,14.0,1.0,1.0,1.0
42.39,15.0,1.0,1.0,1.0
42.4,11.0,1.0,1.0,1.0
42.41,6.4944,1.0,1.0,1.0
42.42,18.0,1.0,1.0,1.0
42.43,6.5056,1.0,1.0,1.0
42.44,4.4944,1.0,1.0,1.0
42.45,6.5056,1.0,1.0,1.0
42.46,14.4944,1.0,1.0,1.0
42.47,12.0,1.0,1.0,1.0
42.48,7.5056,1.0,1.0,1.0
42.49,8.0,1.0,1.0,1.0
42.5,17.4944,1.0,1.0,1.0
42.51,5.5056,1.0,1.0,1.0
42.52,18.0,1.0,1.0,1.0
42.53,24.0,1.0,1.0,1.0
42.54,11.9889,1.0,1.0,1.0
42.55,15.0111,1.0,1.0,1.0
42.56,20.0,1.0,1.0,1.0
42.57,14.4944,1.0,1.0,1.0
42.58,16.4944,1.0,1.0,1.0
42.59,16.0111,1.0,1.0,1.0
42.6,18.4944,1.0,1.0,1.0
42.61,16.4944,1.0,1.0,1.0
42.62,9.0111,1.0,1.0,1.0
42.63,12.0,1.0,1.0,1.0
42.64,22.0,1.0,1.0,1.0
42.65,23.0,1.0,1.0,1.0
42.66,10.4944,1.0,1.0,1.0
42.67,18.5056,1.0,1.0,1.0
42.68,33.4944,1.0,1.0,1.0
42.69,24.0,1.0,1.0,1.0
42.7,20.5056,1.0,1.0,1.0
42.71,35.0,1.0,1.0,1.0
42.72,10.0,1.0,1.0,1.0
42.73,31.4944,1.0,1.0,1.0
42.74,28.5056,1.0,1.0,1.0
42.75,24.0,1.0,1.0,1.0
42.76,29.0,1.0,1.0,1.0
42.77,22.0,1.0,1.0,1.0
42.78,29.4944,1.0,1.0,1.0
42.79,15.5056,1.0,1.0,1.0
42.8,19.0,1.0,1.0,1.0
42.81,22.0,1.0,1.0,1.0
42.82,29.0,1.0,1.0,1.0
42.83,37.4944,1.0,1.0,1.0
42.84,24.5056,1.0,1.0,1.0
42.85,34.4944,1.0,1.0,1.0
42.86,13.5056,1.0,1.0,1.0
42.87,19.0,1.0,1.0,1.0
42.88,41.0,1.0,1.0,1.0
42.89,27.0,1.0,1.0,1.0
42.9,28.0,1.0,1.0,1.0
42.91,11.0,1.0,1.0,1.0
42.92,23.0,1.0,1.0,1.0
42.93,17.0,1.0,1.0,1.0
42.94,22.9889,1.0,1.0,1.0
42.95,35.0111,1.0,1.0,1.0
42.96,35.0,1.0,1.0,1.0
42.97,20.4944,1.0,1.0,1.0
42.98,15.5056,1.0,1.0,1.0
42.99,19.0,1.0,1.0,1.0
43.0,15.0,1.0,1.0,1.0
43.01,20.9889,1.0,1.0,1.0
43.02,17.0111,1.0,1.0,1.0
43.03,22.4944,1.0,1.0,1.0
43.04,30.4944,1.0,1.0,1.0
43.05,25.0,1.0,1.0,1.0
43.06,16.5056,1.0,1.0,1.0
43.07,26.5056,1.0,1.0,1.0
43.08,14.4944,1.0,1.0,1.0
43.09,10.5056,1.0,1.0,1.0
43.1,21.0,1.0,1.0,1.0
43.11,18.0,1.0,1.0,1.0
43.12,15.9889,1.0,1.0,1.0
43.13,28.0111,1.0,1.0,1.0
43.14,13.0,1.0,1.0,1.0
43.15,10.0,1.0,1.0,1.0
43.16,21.4944,1.0,1.0,1.0
43.17,18.5056,1.0,1.0,1.0
43.18,11.0,1.0,1.0,1.0
43.19,18.0,1.0,1.0,1.0
43.2,15.0,1.0,1.0,1.0
43.21,12.0,1.0,1.0,1.0
43.22,8.4944,1.0,1.0,1.0
43.23,6.5056,1.0,1.0,1.0
43.24,10.0,1.0,1.0,1.0
43.25,9.0,1.0,1.0,1.0
43.26,2.0,1.0,1.0,1.0
43.27,13.4944,1.0,1.0,1.0
43.28,4.5056,1.0,1.0,1.0
43.29,7.0,1.0,1.0,1.0
43.3,12.0,1.0,1.0,1.0
43.31,7.0,1.0,1.0,1.0
43.32,9.0,1.0,1.0,1.0
43.33,9.0,1.0,1.0,1.0
43.34,11.0,1.0,1.0,1.0
43.35,10.0,1.0,1.0,1.0
43.36,13.0,1.0,1.0,1.0
43.37,10.0,1.0,1.0,1.0
43.38,7.0,1.0,1.0,1.0
43.39,5.0,1.0,1.0,1.0
43.4,11.0,1.0,1.0,1.0
43.41,3.0,1.0,1.0,1.0
43.42,16.0,1.0,1.0,1.0
43.43,6.0,1.0,1.0,1.0
43.44,16.0,1.0,1.0,1.0
43.45,6.0,1.0,1.0,1.0
43.46,7.0,1.0,1.0,1.0
43.47,11.0,1.0,1.0,1.0
43.48,8.0,1.0,1.0,1.0
43.49,3.0,1.0,1.0,1.0
43.5,2.0,1.0,1.0,1.0
43.51,12.0,1.0,1.0,1.0
43.52,15.9889,1.0,1.0,1.0
43.53,11.0111,1.0,1.0,1.0
43.54,8.0,1.0,1.0,1.0
43.55,18.0,1.0,1.0,1.0
43.56,10.4944,1.0,1.0,1.0
43.57,5.5056,1.0,1.0,1.0
43.58,18.0,1.0,1.0,1.0
43.59,6.0,1.0,1.0,1.0
43.6,15.4944,1.0,1.0,1.0
43.61,4.0,1.0,1.0,1.0
43.62,13.5056,1.0,1.0,1.0
43.63,29.0,1.0,1.0,1.0
43.64,12.0,1.0,1.0,1.0
43.65,12.0,1.0,1.0,1.0
43.66,21.0,1.0,1.0,1.0
43.67,18.0,1.0,1.0,1.0
43.68,31.0,1.0,1.0,1.0
43.69,31.0,1.0,1.0,1.0
43.7,17.0,1.0,1.0,1.0
43.71,18.0,1.0,1.0,1.0
43.72,29.0,1.0,1.0,1.0
43.73,19.4944,1.0,1.0,1.0
43.74,29.5056,1.0,1.0,1.0
43.75,18.0,1.0,1.0,1.0
43.76,22.0,1.0,1.0,1.0
43.77,21.0,1.0,1.0,1.0
43.78,20.4944,1.0,1.0,1.0
43.79,20.5056,1.0,1.0,1.0
43.8,16.0,1.0,1.0,1.0
43.81,13.0,1.0,1.0,1.0
43.82,14.0,1.0,1.0,1.0
43.83,11.4944,1.0,1.0,1.0
43.84,20.5056,1.0,1.0,1.0
43.85,35.0,1.0,1.0,1.0
43.86,19.0,1.0,1.0,1.0
43.87,11.0,1.0,1.0,1.0
43.88,16.0,1.0,1.0,1.0
43.89,17.0,1.0,1.0,1.0
43.9,24.4944,1.0,1.0,1.0
43.91,26.5056,1.0,1.0,1.0
43.92,30.0,1.0,1.0,1.0
43.93,28.4944,1.0,1.0,1.0
43.94,27.5056,1.0,1.0,1.0
43.95,24.0,1.0,1.0,1.0
43.96,15.9889,1.0,1.0,1.0
43.97,15.5056,1.0,1.0,1.0
43.98,21.5056,1.0,1.0,1.0
43.99,24.0,1.0,1.0,1.0
44.0,16.0,1.0,1.0,1.0
44.01,16.0,1.0,1.0,1.0
44.02,11.0,1.0,1.0,1.0
44.03,25.0,1.0,1.0,1.0
44.04,16.0,1.0,1.0,1.0
44.05,16.0,1.0,1.0,1.0
44.06,16.4944,1.0,1.0,1.0
44.07,16.0,1.0,1.0,1.0
44.08,15.5056,1.0,1.0,1.0
44.09,15.0,1.0,1.0,1.0
44.1,30.0,1.0,1.0,1.0
44.11,11.0,1.0,1.0,1.0
44.12,8.4944,1.0,1.0,1.0
44.13,10.0,1.0,1.0,1.0
44.14,9.0,1.0,1.0,1.0
44.15,11.5056,1.0,1.0,1.0
44.16,15.0,1.0,1.0,1.0
44.17,2.0,1.0,1.0,1.0
44.18,14.0,1.0,1.0,1.0
44.19,7.0,1.0,1.0,1.0
44.2,16.0,1.0,1.0,1.0
44.21,5.0,1.0,1.0,1.0
44.22,7.0,1.0,1.0,1.0
44.23,18.4944,1.0,1.0,1.0
44.24,19.5056,1.0,1.0,1.0
44.25,11.0,1.0,1.0,1.0
44.26,16.0,1.0,1.0,1.0
44.27,13.0,1.0,1.0,1.0
44.28,11.0,1.0,1.0,1.0
44.29,17.0,1.0,1.0,1.0
44.3,24.0,1.0,1.0,1.0
44.31,13.0,1.0,1.0,1.0
44.32,26.0,1.0,1.0,1.0
44.33,19.0,1.0,1.0,1.0
44.34,49.0,1.0,1.0,1.0
44.35,30.0,1.0,1.0,1.0
44.36,35.0,1.0,1.0,1.0
44.37,35.9889,1.0,1.0,1.0
44.38,48.0111,1.0,1.0,1.0
44.39,50.4944,1.0,1.0,1.0
44.4,59.4944,1.0,1.0,1.0
44.41,60.0,1.0,1.0,1.0
44.42,64.5056,1.0,1.0,1.0
44.43,51.4944,1.0,1.0,1.0
44.44,68.5056,1.0,1.0,1.0
44.45,94.0,1.0,1.0,1.0
44.46,87.5056,1.0,1.0,1.0
44.47,69.4944,1.0,1.0,1.0
44.48,93.0,1.0,1.0,1.0
44.49,120.9889,1.0,1.0,1.0
44.5,115.0111,1.0,1.0,1.0
44.51,105.4944,1.0,1.0,1.0
44.52,116.9889,1.0,1.0,1.0
44.53,108.4944,1.0,1.0,1.0
44.54,129.5056,1.0,1.0,1.0
44.55,144.0111,1.0,1.0,1.0
44.56,155.9889,1.0,1.0,1.0
44.57,160.4944,1.0,1.0,1.0
44.58,150.0222,1.0,1.0,1.0
44.59,154.0,1.0,1.0,1.0
44.6,176.4944,1.0,1.0,1.0
44.61,198.4944,1.0,1.0,1.0
44.62,221.5056,1.0,1.0,1.0
44.63,196.4944,1.0,1.0,1.0
44.64,217.9778,1.0,1.0,1.0
44.65,213.0,1.0,1.0,1.0
44.66,241.5167,1.0,1.0,1.0
44.67,263.0,1.0,1.0,1.0
44.68,268.5056,1.0,1.0,1.0
44.69,286.4944,1.0,1.0,1.0
44.7,284.4944,1.0,1.0,1.0
44.71,305.9778,1.0,1.0,1.0
44.72,314.0333,1.0,1.0,1.0
44.73,292.4944,1.0,1.0,1.0
44.74,319.9778,1.0,1.0,1.0
44.75,335.0111,1.0,1.0,1.0
44.76,342.5056,1.0,1.0,1.0
44.77,337.5056,1.0,1.0,1.0
44.78,359.9889,1.0,1.0,1.0
44.79,320.4944,1.0,1.0,1.0
44.8,324.4833,1.0,1.0,1.0
44.81,439.0222,1.0,1.0,1.0
44.82,396.9889,1.0,1.0,1.0
44.83,457.9778,1.0,1.0,1.0
44.84,450.5056,1.0,1.0,1.0
44.85,397.5056,1.0,1.0,1.0
44.86,421.0333,1.0,1.0,1.0
44.87,458.9667,1.0,1.0,1.0
44.88,471.0222,1.0,1.0,1.0
44.89,473.9778,1.0,1.0,1.0
44.9,466.5167,1.0,1.0,1.0
44.91,464.5056,1.0,1.0,1.0
44.92,475.9667,1.0,1.0,1.0
44.93,468.0111,1.0,1.0,1.0
44.94,493.0222,1.0,1.0,1.0
44.95,496.4944,1.0,1.0,1.0
44.96,506.4944,1.0,1.0,1.0
44.97,554.4833,1.0,1.0,1.0
44.98,613.55,1.0,1.0,1.0
44.99,617.9111,1.0,1.0,1.0
45.0,550.5611,1.0,1.0,1.0
45.01,565.9889,1.0,1.0,1.0
45.02,582.4833,1.0,1.0,1.0
45.03,596.5278,1.0,1.0,1.0
45.04,578.4611,1.0,1.0,1.0
45.05,592.4944,1.0,1.0,1.0
45.06,552.0222,1.0,1.0,1.0
45.07,612.4833,1.0,1.0,1.0
45.08,616.0222,1.0,1.0,1.0
45.09,533.5056,1.0,1.0,1.0
45.1,587.4833,1.0,1.0,1.0
45.11,575.0111,1.0,1.0,1.0
45.12,615.9556,1.0,1.0,1.0
45.13,603.0778,1.0,1.0,1.0
45.14,607.4611,1.0,1.0,1.0
45.15,574.4944,1.0,1.0,1.0
45.16,666.5056,1.0,1.0,1.0
45.17,629.9889,1.0,1.0,1.0
45.18,684.0222,1.0,1.0,1.0
45.19,620.4944,1.0,1.0,1.0
45.2,629.9778,1.0,1.0,1.0
45.21,658.4944,1.0,1.0,1.0
45.22,599.5056,1.0,1.0,1.0
45.23,664.0444,1.0,1.0,1.0
45.24,660.4833,1.0,1.0,1.0
45.25,698.4611,1.0,1.0,1.0
45.26,634.5056,1.0,1.0,1.0
45.27,618.0333,1.0,1.0,1.0
45.28,671.4833,1.0,1.0,1.0
45.29,676.9778,1.0,1.0,1.0
45.3,702.5167,1.0,1.0,1.0
45.31,707.5056,1.0,1.0,1.0
45.32,689.45,1.0,1.0,1.0
45.33,738.0555,1.0,1.0,1.0
45.34,686.0111,1.0,1.0,1.0
45.35,702.9778,1.0,1.0,1.0
45.36,737.5056,1.0,1.0,1.0
45.37,711.5278,1.0,1.0,1.0
45.38,694.9556,1.0,1.0,1.0
45.39,748.55,1.0,1.0,1.0
45.4,747.4389,1.0,1.0,1.0
45.41,799.5167,1.0,1.0,1.0
45.42,819.9778,1.0,1.0,1.0
45.43,820.0111,1.0,1.0,1.0
45.44,816.5389,1.0,1.0,1.0
45.45,857.9889,1.0,1.0,1.0
45.46,872.4944,1.0,1.0,1.0
45.47,859.9667,1.0,1.0,1.0
45.48,818.4833,1.0,1.0,1.0
45.49,917.5389,1.0,1.0,1.0
45.5,887.4833,1.0,1.0,1.0
45.51,960.4944,1.0,1.0,1.0
45.52,997.5167,1.0,1.0,1.0
45.53,1061.97,1.0,1.0,1.0
45.54,988.5389,1.0,1.0,1.0
45.55,1082.97,1.0,1.0,1.0
45.56,1096.46,1.0,1.0,1.0
45.57,1124.04,1.0,1.0,1.0
45.58,1093.51,1.0,1.0,1.0
45.59,1157.94,1.0,1.0,1.0
45.6,1135.03,1.0,1.0,1.0
45.61,1266.0,1.0,1.0,1.0
45.62,1265.51,1.0,1.0,1.0
45.63,1278.99,1.0,1.0,1.0
45.64,1306.47,1.0,1.0,1.0
45.65,1320.97,1.0,1.0,1.0
45.66,1351.04,1.0,1.0,1.0
45.67,1390.47,1.0,1.0,1.0
45.68,1482.01,1.0,1.0,1.0
45.69,1523.01,1.0,1.0,1.0
45.7,1637.96,1.0,1.0,1.0
45.71,1633.44,1.0,1.0,1.0
45.72,1705.01,1.0,1.0,1.0
45.73,1788.09,1.0,1.0,1.0
45.74,1846.48,1.0,1.0,1.0
45.75,1757.46,1.0,1.0,1.0
45.76,1872.51,1.0,1.0,1.0
45.77,1947.02,1.0,1.0,1.0
45.78,1937.48,1.0,1.0,1.0
45.79,2030.41,1.0,1.0,1.0
45.8,2142.07,1.0,1.0,1.0
45.81,2188.49,1.0,1.0,1.0
45.82,2156.49,1.0,1.0,1.0
45.83,2327.49,1.0,1.0,1.0
45.84,2294.98,1.0,1.0,1.0
45.85,2455.55,1.0,1.0,1.0
45.86,2466.42,1.0,1.0,1.0
45.87,2531.0,1.0,1.0,1.0
45.88,2561.94,1.0,1.0,1.0
45.89,2634.52,1.0,1.0,1.0
45.9,2755.12,1.0,1.0,1.0
45.91,2880.89,1.0,1.0,1.0
45.92,2905.53,1.0,1.0,1.0
45.93,2768.41,1.0,1.0,1.0
45.94,3037.04,1.0,1.0,1.0
45.95,2961.01,1.0,1.0,1.0
45.96,3141.49,1.0,1.0,1.0
45.97,3125.49,1.0,1.0,1.0
45.98,3258.43,1.0,1.0,1.0
45.99,3290.02,1.0,1.0,1.0
46.0,3475.58,1.0,1.0,1.0
46.01,3362.42,1.0,1.0,1.0
46.02,3533.43,1.0,1.0,1.0
46.03,3565.07,1.0,1.0,1.0
46.04,3628.46,1.0,1.0,1.0
46.05,3668.49,1.0,1.0,1.0
46.06,3891.99,1.0,1.0,1.0
46.07,3787.49,1.0,1.0,1.0
46.08,3935.94,1.0,1.0,1.0
46.09,3940.61,1.0,1.0,1.0
46.1,4093.45,1.0,1.0,1.0
46.11,4113.42,1.0,1.0,1.0
46.12,4118.02,1.0,1.0,1.0
46.13,4183.62,1.0,1.0,1.0
46.14,4257.45,1.0,1.0,1.0
46.15,4436.46,1.0,1.0,1.0
46.16,4184.0,1.0,1.0,1.0
46.17,4307.94,1.0,1.0,1.0
46.18,4435.17,1.0,1.0,1.0
46.19,4340.88,1.0,1.0,1.0
46.2,4556.03,1.0,1.0,1.0
46.21,4480.42,1.0,1.0,1.0
46.22,4599.57,1.0,1.0,1.0
46.23,4805.96,1.0,1.0,1.0
46.24,4572.06,1.0,1.0,1.0
46.25,4553.32,1.0,1.0,1.0
46.26,4665.09,1.0,1.0,1.0
46.27,4631.08,1.0,1.0,1.0
46.28,4642.92,1.0,1.0,1.0
46.29,4861.47,1.0,1.0,1.0
46.3,4831.06,1.0,1.0,1.0
46.31,4768.02,1.0,1.0,1.0
46.32,4846.45,1.0,1.0,1.0
46.33,4814.0,1.0,1.0,1.0
46.34,4750.1,1.0,1.0,1.0
46.35,4809.13,1.0,1.0,1.0
46.36,4824.772,1.0,1.0,1.0
46.37,4889.03,1.0,1.0,1.0
46.38,4770.57,1.0,1.0,1.0
46.39,4719.47,1.0,1.0,1.0
46.4,4746.46,1.0,1.0,1.0
46.41,4645.55,1.0,1.0,1.0
46.42,4678.439,1.0,1.0,1.0
46.43,4700.52,1.0,1.0,1.0
46.44,4715.58,1.0,1.0,1.0
46.45,4626.88,1.0,1.0,1.0
46.46,4707.52,1.0,1.0,1.0
46.47,4530.59,1.0,1.0,1.0
46.48,4632.01,1.0,1.0,1.0
46.49,4474.46,1.0,1.0,1.0
46.5,4461.97,1.0,1.0,1.0
46.51,4342.54,1.0,1.0,1.0
46.52,4371.49,1.0,1.0,1.0
46.53,4318.07,1.0,1.0,1.0
46.54,4219.02,1.0,1.0,1.0
46.55,4211.9,1.0,1.0,1.0
46.56,4185.1,1.0,1.0,1.0
46.57,4100.45,1.0,1.0,1.0
46.58,3953.04,1.0,1.0,1.0
46.59,3957.49,1.0,1.0,1.0
46.6,3959.94,1.0,1.0,1.0
46.61,3833.08,1.0,1.0,1.0
46.62,3760.49,1.0,1.0,1.0
46.63,3692.9,1.0,1.0,1.0
46.64,3563.07,1.0,1.0,1.0
46.65,3464.54,1.0,1.0,1.0
46.66,3578.0,1.0,1.0,1.0
46.67,3405.93,1.0,1.0,1.0
46.68,3298.55,1.0,1.0,1.0
46.69,3264.06,1.0,1.0,1.0
46.7,3180.0,1.0,1.0,1.0
46.71,3081.51,1.0,1.0,1.0
46.72,3070.98,1.0,1.0,1.0
46.73,3009.53,1.0,1.0,1.0
46.74,2872.04,1.0,1.0,1.0
46.75,2742.01,1.0,1.0,1.0
46.76,2557.98,1.0,1.0,1.0
46.77,2609.12,1.0,1.0,1.0
46.78,2463.91,1.0,1.0,1.0
46.79,2449.0,1.0,1.0,1.0
46.8,2327.51,1.0,1.0,1.0
46.81,2197.51,1.0,1.0,1.0
46.82,2144.99,1.0,1.0,1.0
46.83,2005.0,1.0,1.0,1.0
46.84,2081.02,1.0,1.0,1.0
46.85,1902.53,1.0,1.0,1.0
46.86,1743.48,1.0,1.0,1.0
46.87,1692.08,1.0,1.0,1.0
46.88,1645.98,1.0,1.0,1.0
46.89,1600.01,1.0,1.0,1.0
46.9,1487.53,1.0,1.0,1.0
46.91,1436.52,1.0,1.0,1.0
46.92,1275.51,1.0,1.0,1.0
46.93,1247.48,1.0,1.0,1.0
46.94,1134.52,1.0,1.0,1.0
46.95,1094.94,1.0,1.0,1.0
46.96,1065.56,1.0,1.0,1.0
46.97,990.4944,1.0,1.0,1.0
46.98,902.0444,1.0,1.0,1.0
46.99,896.4833,1.0,1.0,1.0
47.0,750.0,1.0,1.0,1.0
47.01,739.5278,1.0,1.0,1.0
47.02,670.5056,1.0,1.0,1.0
47.03,598.0,1.0,1.0,1.0
47.04,552.9889,1.0,1.0,1.0
47.05,477.5278,1.0,1.0,1.0
47.06,400.4833,1.0,1.0,1.0
47.07,428.0333,1.0,1.0,1.0
47.08,343.4833,1.0,1.0,1.0
47.09,321.5278,1.0,1.0,1.0
47.1,287.9667,1.0,1.0,1.0
47.11,285.5278,1.0,1.0,1.0
47.12,236.4944,1.0,1.0,1.0
47.13,195.4944,1.0,1.0,1.0
47.14,166.4833,1.0,1.0,1.0
47.15,143.0333,1.0,1.0,1.0
47.16,129.9889,1.0,1.0,1.0
47.17,135.5056,1.0,1.0,1.0
47.18,101.5056,1.0,1.0,1.0
47.19,115.9889,1.0,1.0,1.0
47.2,117.5167,1.0,1.0,1.0
47.21,113.4944,1.0,1.0,1.0
47.22,96.4944,1.0,1.0,1.0
47.23,113.9889,1.0,1.0,1.0
47.24,115.4944,1.0,1.0,1.0
47.25,134.5278,1.0,1.0,1.0
47.26,140.4611,1.0,1.0,1.0
47.27,161.0222,1.0,1.0,1.0
47.28,165.0111,1.0,1.0,1.0
47.29,209.4944,1.0,1.0,1.0
47.3,215.9889,1.0,1.0,1.0
47.31,283.0222,1.0,1.0,1.0
47.32,321.4611,1.0,1.0,1.0
47.33,342.0333,1.0,1.0,1.0
47.34,362.4833,1.0,1.0,1.0
47.35,456.4944,1.0,1.0,1.0
47.36,459.4833,1.0,1.0,1.0
47.37,554.9778,1.0,1.0,1.0
47.38,614.0222,1.0,1.0,1.0
47.39,597.4833,1.0,1.0,1.0
47.4,659.4722,1.0,1.0,1.0
47.41,746.9778,1.0,1.0,1.0
47.42,874.5167,1.0,1.0,1.0
47.43,900.4722,1.0,1.0,1.0
47.44,978.0,1.0,1.0,1.0
47.45,1061.51,1.0,1.0,1.0
47.46,1144.47,1.0,1.0,1.0
47.47,1205.49,1.0,1.0,1.0
47.48,1254.47,1.0,1.0,1.0
47.49,1342.04,1.0,1.0,1.0
47.5,1533.99,1.0,1.0,1.0
47.51,1571.9,1.0,1.0,1.0
47.52,1622.56,1.0,1.0,1.0
47.53,1760.0,1.0,1.0,1.0
47.54,1915.0,1.0,1.0,1.0
47.55,2040.98,1.0,1.0,1.0
47.56,2107.96,1.0,1.0,1.0
47.57,2288.06,1.0,1.0,1.0
47.58,2383.42,1.0,1.0,1.0
47.59,2433.99,1.0,1.0,1.0
47.6,2709.01,1.0,1.0,1.0
47.61,2671.49,1.0,1.0,1.0
47.62,2952.43,1.0,1.0,1.0
47.63,3114.97,1.0,1.0,1.0
47.64,3202.04,1.0,1.0,1.0
47.65,3424.39,1.0,1.0,1.0
47.66,3599.561,1.0,1.0,1.0
47.67,3848.39,1.0,1.0,1.0
47.68,4071.561,1.0,1.0,1.0
47.69,4282.58,1.0,1.0,1.0
47.7,4427.86,1.0,1.0,1.0
47.71,4928.47,1.0,1.0,1.0
47.72,5213.16,1.0,1.0,1.0
47.73,5509.82,1.0,1.0,1.0
47.74,5839.439,1.0,1.0,1.0
47.75,6149.811,1.0,1.0,1.0
47.76,6684.49,1.0,1.0,1.0
47.77,7202.55,1.0,1.0,1.0
47.78,7856.83,1.0,1.0,1.0
47.79,8335.0,1.0,1.0,1.0
47.8,9338.29,1.0,1.0,1.0
47.81,10291.3,1.0,1.0,1.0
47.82,11522.9,1.0,1.0,1.0
47.83,12694.3,1.0,1.0,1.0
47.84,14656.4,1.0,1.0,1.0
47.85,16516.6,1.0,1.0,1.0
47.86,19443.8,1.0,1.0,1.0
47.87,23515.6,1.0,1.0,1.0
47.88,28189,1.0,1.0,1.0
47.89,35408.6,1.0,1.0,1.0
47.9,45706.6,1.0,1.0,1.0
47.91,63311.4,1.0,1.0,1.0
47.92,94482,1.0,1.0,1.0
47.93,164316,1.0,1.0,1.0
47.94,590190.75,1.0,1.0,1.0
47.95,2809799.0,1.0,1.0,1.0
47.96,5392257.5,1.0,1.0,1.0
47.97,6682977.0,1.0,1.0,1.0
47.98,9362910.0,1.0,1.0,1.0
47.99,9925032.0,1.0,1.0,1.0
48.0,5940792.0,1.0,1.0,1.0
48.01,2686892.25,1.0,1.0,1.0
48.02,1364291.375,1.0,1.0,1.0
48.03,631863.25,1.0,1.0,1.0
48.04,217200,1.0,1.0,1.0
48.05,95263.4,1.0,1.0,1.0
48.06,51378.9,1.0,1.0,1.0
48.07,33877.5,1.0,1.0,1.0
48.08,25063.4,1.0,1.0,1.0
48.09,18820.6,1.0,1.0,1.0
48.1,14752.1,1.0,1.0,1.0
48.11,11954.2,1.0,1.0,1.0
48.12,9818.41,1.0,1.0,1.0
48.13,8363.0,1.0,1.0,1.0
48.14,7290.71,1.0,1.0,1.0
48.15,6343.03,1.0,1.0,1.0
48.16,5557.09,1.0,1.0,1.0
48.17,5024.64,1.0,1.0,1.0
48.18,4521.46,1.0,1.0,1.0
48.19,4068.96,1.0,1.0,1.0
48.2,3779.58,1.0,1.0,1.0
48.21,3483.61,1.0,1.0,1.0
48.22,3191.46,1.0,1.0,1.0
48.23,2876.53,1.0,1.0,1.0
48.24,2786.47,1.0,1.0,1.0
48.25,2596.561,1.0,1.0,1.0
48.26,2473.47,1.0,1.0,1.0
48.27,2339.07,1.0,1.0,1.0
48.28,2177.07,1.0,1.0,1.0
48.29,2052.48,1.0,1.0,1.0
48.3,1912.02,1.0,1.0,1.0
48.31,1816.94,1.0,1.0,1.0
48.32,1686.07,1.0,1.0,1.0
48.33,1694.52,1.0,1.0,1.0
48.34,1511.51,1.0,1.0,1.0
48.35,1396.47,1.0,1.0,1.0
48.36,1450.56,1.0,1.0,1.0
48.37,1369.97,1.0,1.0,1.0
48.38,1221.48,1.0,1.0,1.0
48.39,1167.51,1.0,1.0,1.0
48.4,1095.08,1.0,1.0,1.0
48.41,1034.47,1.0,1.0,1.0
48.42,1045.98,1.0,1.0,1.0
48.43,1008.04,1.0,1.0,1.0
48.44,907.5056,1.0,1.0,1.0
48.45,850.0,1.0,1.0,1.0
48.46,850.0222,1.0,1.0,1.0
48.47,779.4944,1.0,1.0,1.0
48.48,745.0333,1.0,1.0,1.0
48.49,723.9445,1.0,1.0,1.0
48.5,670.0111,1.0,1.0,1.0
48.51,690.9889,1.0,1.0,1.0
48.52,614.5278,1.0,1.0,1.0
48.53,552.5056,1.0,1.0,1.0
48.54,519.5056,1.0,1.0,1.0
48.55,491.4611,1.0,1.0,1.0
48.56,495.0555,1.0,1.0,1.0
48.57,409.4833,1.0,1.0,1.0
48.58,426.9889,1.0,1.0,1.0
48.59,429.55,1.0,1.0,1.0
48.6,395.5056,1.0,1.0,1.0
48.61,365.9667,1.0,1.0,1.0
48.62,335.5167,1.0,1.0,1.0
48.63,309.9667,1.0,1.0,1.0
48.64,287.0444,1.0,1.0,1.0
48.65,259.4833,1.0,1.0,1.0
48.66,198.0222,1.0,1.0,1.0
48.67,227.9889,1.0,1.0,1.0
48.68,214.0,1.0,1.0,1.0
48.69,209.5056,1.0,1.0,1.0
48.7,213.0111,1.0,1.0,1.0
48.71,166.9889,1.0,1.0,1.0
48.72,161.5056,1.0,1.0,1.0
48.73,139.0111,1.0,1.0,1.0
48.74,170.9778,1.0,1.0,1.0
48.75,136.5167,1.0,1.0,1.0
48.76,113.9889,1.0,1.0,1.0
48.77,90.0222,1.0,1.0,1.0
48.78,101.9889,1.0,1.0,1.0
48.79,118.5056,1.0,1.0,1.0
48.8,93.5056,1.0,1.0,1.0
48.81,103.9778,1.0,1.0,1.0
48.82,102.0111,1.0,1.0,1.0
48.83,79.0111,1.0,1.0,1.0
48.84,70.9889,1.0,1.0,1.0
48.85,77.5056,1.0,1.0,1.0
48.86,52.5056,1.0,1.0,1.0
48.87,59.4944,1.0,1.0,1.0
48.88,49.5056,1.0,1.0,1.0
48.89,38.0,1.0,1.0,1.0
48.9,61.4833,1.0,1.0,1.0
48.91,50.0111,1.0,1.0,1.0
48.92,44.5056,1.0,1.0,1.0
48.93,29.4944,1.0,1.0,1.0
48.94,28.0,1.0,1.0,1.0
48.95,45.5056,1.0,1.0,1.0
48.96,26.9889,1.0,1.0,1.0
48.97,29.0,1.0,1.0,1.0
48.98,46.5056,1.0,1.0,1.0
48.99,29.0,1.0,1.0,1.0
49.0,29.5056,1.0,1.0,1.0
49.01,29.4944,1.0,1.0,1.0
49.02,47.4944,1.0,1.0,1.0
49.03,39.5056,1.0,1.0,1.0
49.04,40.0,1.0,1.0,1.0
49.05,45.5056,1.0,1.0,1.0
49.06,58.4944,1.0,1.0,1.0
49.07,32.4944,1.0,1.0,1.0
49.08,24.0111,1.0,1.0,1.0
49.09,41.9889,1.0,1.0,1.0
49.1,58.0,1.0,1.0,1.0
49.11,59.0,1.0,1.0,1.0
49.12,59.0,1.0,1.0,1.0
49.13,63.5056,1.0,1.0,1.0
49.14,54.0,1.0,1.0,1.0
49.15,65.5056,1.0,1.0,1.0
49.16,48.0,1.0,1.0,1.0
49.17,55.9889,1.0,1.0,1.0
49.18,49.5056,1.0,1.0,1.0
49.19,48.5056,1.0,1.0,1.0
49.2,55.4944,1.0,1.0,1.0
49.21,48.0,1.0,1.0,1.0
49.22,73.4944,1.0,1.0,1.0
49.23,64.5056,1.0,1.0,1.0
49.24,45.4944,1.0,1.0,1.0
49.25,51.5056,1.0,1.0,1.0
49.26,57.5056,1.0,1.0,1.0
49.27,49.4944,1.0,1.0,1.0
49.28,60.0,1.0,1.0,1.0
49.29,67.5056,1.0,1.0,1.0
49.3,54.0,1.0,1.0,1.0
49.31,60.0,1.0,1.0,1.0
49.32,62.4944,1.0,1.0,1.0
49.33,55.4944,1.0,1.0,1.0
49.34,56.5056,1.0,1.0,1.0
49.35,52.4944,1.0,1.0,1.0
49.36,42.0,1.0,1.0,1.0
49.37,57.5056,1.0,1.0,1.0
49.38,55.0,1.0,1.0,1.0
49.39,61.0,1.0,1.0,1.0
49.4,53.5056,1.0,1.0,1.0
49.41,63.9889,1.0,1.0,1.0
49.42,36.0111,1.0,1.0,1.0
49.43,49.9889,1.0,1.0,1.0
49.44,54.5056,1.0,1.0,1.0
49.45,44.5056,1.0,1.0,1.0
49.46,38.9889,1.0,1.0,1.0
49.47,54.5056,1.0,1.0,1.0
49.48,38.0,1.0,1.0,1.0
49.49,45.5056,1.0,1.0,1.0
49.5,41.4833,1.0,1.0,1.0
49.51,49.0,1.0,1.0,1.0
49.52,32.5167,1.0,1.0,1.0
49.53,44.4944,1.0,1.0,1.0
49.54,47.5056,1.0,1.0,1.0
49.55,22.9889,1.0,1.0,1.0
49.56,26.0111,1.0,1.0,1.0
49.57,48.4944,1.0,1.0,1.0
49.58,43.0,1.0,1.0,1.0
49.59,30.5056,1.0,1.0,1.0
49.6,34.0,1.0,1.0,1.0
49.61,48.9778,1.0,1.0,1.0
49.62,24.0222,1.0,1.0,1.0
49.63,48.9889,1.0,1.0,1.0
49.64,25.0,1.0,1.0,1.0
49.65,28.5056,1.0,1.0,1.0
49.66,32.4944,1.0,1.0,1.0
49.67,25.0111,1.0,1.0,1.0
49.68,28.9889,1.0,1.0,1.0
49.69,17.0111,1.0,1.0,1.0
49.7,23.4944,1.0,1.0,1.0
49.71,17.4944,1.0,1.0,1.0
49.72,31.0111,1.0,1.0,1.0
49.73,15.4944,1.0,1.0,1.0
49.74,16.0,1.0,1.0,1.0
49.75,26.5056,1.0,1.0,1.0
49.76,25.4833,1.0,1.0,1.0
49.77,21.0111,1.0,1.0,1.0
49.78,20.5056,1.0,1.0,1.0
49.79,12.0,1.0,1.0,1.0
49.8,22.0,1.0,1.0,1.0
49.81,10.0,1.0,1.0,1.0
49.82,13.0,1.0,1.0,1.0
49.83,7.0,1.0,1.0,1.0
49.84,11.0,1.0,1.0,1.0
49.85,16.0,1.0,1.0,1.0
49.86,8.0,1.0,1.0,1.0
49.87,15.0,1.0,1.0,1.0
49.88,10.0,1.0,1.0,1.0
49.89,14.0,1.0,1.0,1.0
49.9,6.0,1.0,1.0,1.0
49.91,12.0,1.0,1.0,1.0
49.92,10.0,1.0,1.0,1.0
49.93,7.0,1.0,1.0,1.0
49.94,6.0,1.0,1.0,1.0
49.95,13.0,1.0,1.0,1.0
49.96,6.0,1.0,1.0,1.0
49.97,6.0,1.0,1.0,1.0
49.98,21.0,1.0,1.0,1.0
49.99,20.0,1.0,1.0,1.0
50.0,5.0,1.0,1.0,1.0
50.01,10.4944,1.0,1.0,1.0
50.02,11.5056,1.0,1.0,1.0
50.03,11.4944,1.0,1.0,1.0
50.04,14.0,1.0,1.0,1.0
50.05,8.5056,1.0,1.0,1.0
50.06,18.4944,1.0,1.0,1.0
50.07,8.5056,1.0,1.0,1.0
50.08,7.0,1.0,1.0,1.0
50.09,8.0,1.0,1.0,1.0
50.1,27.9889,1.0,1.0,1.0
50.11,12.0111,1.0,1.0,1.0
50.12,8.0,1.0,1.0,1.0
50.13,14.4944,1.0,1.0,1.0
50.14,14.5056,1.0,1.0,1.0
50.15,5.4944,1.0,1.0,1.0
50.16,18.5056,1.0,1.0,1.0
50.17,11.0,1.0,1.0,1.0
50.18,12.0,1.0,1.0,1.0
50.19,3.0,1.0,1.0,1.0
50.2,17.4944,1.0,1.0,1.0
50.21,9.5056,1.0,1.0,1.0
50.22,20.0,1.0,1.0,1.0
50.23,16.0,1.0,1.0,1.0
50.24,15.0,1.0,1.0,1.0
50.25,23.0,1.0,1.0,1.0
50.26,10.0,1.0,1.0,1.0
50.27,13.0,1.0,1.0,1.0
50.28,13.0,1.0,1.0,1.0
50.29,17.0,1.0,1.0,1.0
50.3,10.0,1.0,1.0,1.0
50.31,19.0,1.0,1.0,1.0
50.32,12.0,1.0,1.0,1.0
50.33,14.0,1.0,1.0,1.0
50.34,9.4944,1.0,1.0,1.0
50.35,20.5056,1.0,1.0,1.0
50.36,17.0,1.0,1.0,1.0
50.37,20.0,1.0,1.0,1.0
50.38,28.0,1.0,1.0,1.0
50.39,17.0,1.0,1.0,1.0
50.4,13.4944,1.0,1.0,1.0
50.41,20.5056,1.0,1.0,1.0
50.42,21.0,1.0,1.0,1.0
50.43,19.0,1.0,1.0,1.0
50.44,12.0,1.0,1.0,1.0
50.45,20.0,1.0,1.0,1.0
50.46,7.0,1.0,1.0,1.0
50.47,20.4944,1.0,1.0,1.0
50.48,15.5056,1.0,1.0,1.0
50.49,24.0,1.0,1.0,1.0
50.5,0.0,1.0,1.0,1.0
50.51,23.0,1.0,1.0,1.0
50.52,11.0,1.0,1.0,1.0
50.53,19.0,1.0,1.0,1.0
50.54,22.0,1.0,1.0,1.0
50.55,19.4944,1.0,1.0,1.0
50.56,17.5056,1.0,1.0,1.0
50.57,12.0,1.0,1.0,1.0
50.58,18.0,1.0,1.0,1.0
50.59,15.0,1.0,1.0,1.0
50.6,22.0,1.0,1.0,1.0
50.61,21.4944,1.0,1.0,1.0
50.62,10.5056,1.0,1.0,1.0
50.63,14.4944,1.0,1.0,1.0
50.64,9.5056,1.0,1.0,1.0
50.65,7.0,1.0,1.0,1.0
50.66,8.0,1.0,1.0,1.0
50.67,10.0,1.0,1.0,1.0
50.68,11.0,1.0,1.0,1.0
50.69,5.0,1.0,1.0,1.0
50.7,14.0,1.0,1.0,1.0
50.71,7.0,1.0,1.0,1.0
50.72,2.0,1.0,1.0,1.0
50.73,9.0,1.0,1.0,1.0
50.74,10.0,1.0,1.0,1.0
50.75,4.0,1.0,1.0,1.0
50.76,2.0,1.0,1.0,1.0
50.77,6.0,1.0,1.0,1.0
50.78,10.0,1.0,1.0,1.0
50.79,7.0,1.0,1.0,1.0
50.8,7.0,1.0,1.0,1.0
50.81,1.9889,1.0,1.0,1.0
50.82,19.5056,1.0,1.0,1.0
50.83,3.5056,1.0,1.0,1.0
50.84,3.4944,1.0,1.0,1.0
50.85,0.5056,1.0,1.0,1.0
50.86,7.0,1.0,1.0,1.0
50.87,11.4944,1.0,1.0,1.0
50.88,5.5056,1.0,1.0,1.0
50.89,5.9889,1.0,1.0,1.0
50.9,8.0111,1.0,1.0,1.0
50.91,2.0,1.0,1.0,1.0
50.92,9.0,1.0,1.0,1.0
50.93,11.0,1.0,1.0,1.0
50.94,9.0,1.0,1.0,1.0
50.95,5.0,1.0,1.0,1.0
50.96,6.0,1.0,1.0,1.0
50.97,2.0,1.0,1.0,1.0
50.98,2.0,1.0,1.0,1.0
50.99,10.0,1.0,1.0,1.0
51.0,8.0,1.0,1.0,1.0
51.01,7.0,1.0,1.0,1.0
51.02,6.0,1.0,1.0,1.0
51.03,3.0,1.0,1.0,1.0
51.04,6.0,1.0,1.0,1.0
51.05,4.0,1.0,1.0,1.0
51.06,7.0,1.0,1.0,1.0
51.07,9.4944,1.0,1.0,1.0
51.08,11.5056,1.0,1.0,1.0
51.09,6.0,1.0,1.0,1.0
51.1,4.0,1.0,1.0,1.0
51.11,5.0,1.0,1.0,1.0
51.12,7.4944,1.0,1.0,1.0
51.13,7.5056,1.0,1.0,1.0
51.14,15.0,1.0,1.0,1.0
51.15,6.0,1.0,1.0,1.0
51.16,2.0,1.0,1.0,1.0
51.17,5.0,1.0,1.0,1.0
51.18,20.0,1.0,1.0,1.0
51.19,11.0,1.0,1.0,1.0
51.2,10.0,1.0,1.0,1.0
51.21,9.0,1.0,1.0,1.0
51.22,3.0,1.0,1.0,1.0
51.23,14.0,1.0,1.0,1.0
51.24,10.0,1.0,1.0,1.0
51.25,3.0,1.0,1.0,1.0
51.26,6.0,1.0,1.0,1.0
51.27,3.0,1.0,1.0,1.0
51.28,16.4944,1.0,1.0,1.0
51.29,7.5056,1.0,1.0,1.0
51.3,4.0,1.0,1.0,1.0
51.31,12.0,1.0,1.0,1.0
51.32,2.0,1.0,1.0,1.0
51.33,15.0,1.0,1.0,1.0
51.34,7.0,1.0,1.0,1.0
51.35,13.4944,1.0,1.0,1.0
51.36,6.5056,1.0,1.0,1.0
51.37,2.0,1.0,1.0,1.0
51.38,5.0,1.0,1.0,1.0
51.39,2.0,1.0,1.0,1.0
51.4,9.0,1.0,1.0,1.0
51.41,6.0,1.0,1.0,1.0
51.42,9.0,1.0,1.0,1.0
51.43,12.0,1.0,1.0,1.0
51.44,5.0,1.0,1.0,1.0
51.45,12.0,1.0,1.0,1.0
51.46,6.0,1.0,1.0,1.0
51.47,6.0,1.0,1.0,1.0
51.48,2.0,1.0,1.0,1.0
51.49,2.0,1.0,1.0,1.0
51.5,9.0,1.0,1.0,1.0
51.51,14.0,1.0,1.0,1.0
51.52,12.0,1.0,1.0,1.0
51.53,0.0,1.0,1.0,1.0
51.54,6.0,1.0,1.0,1.0
51.55,8.0,1.0,1.0,1.0
51.56,8.0,1.0,1.0,1.0
51.57,10.0,1.0,1.0,1.0
51.58,7.0,1.0,1.0,1.0
51.59,8.0,1.0,1.0,1.0
51.6,13.0,1.0,1.0,1.0
51.61,6.0,1.0,1.0,1.0
51.62,9.0,1.0,1.0,1.0
51.63,7.0,1.0,1.0,1.0
51.64,17.0,1.0,1.0,1.0
51.65,9.0,1.0,1.0,1.0
51.66,7.0,1.0,1.0,1.0
51.67,17.0,1.0,1.0,1.0
51.68,7.0,1.0,1.0,1.0
51.69,14.0,1.0,1.0,1.0
51.7,9.0,1.0,1.0,1.0
51.71,4.0,1.0,1.0,1.0
51.72,5.0,1.0,1.0,1.0
51.73,5.0,1.0,1.0,1.0
51.74,8.0,1.0,1.0,1.0
51.75,4.0,1.0,1.0,1.0
51.76,12.4944,1.0,1.0,1.0
51.77,7.5056,1.0,1.0,1.0
51.78,16.0,1.0,1.0,1.0
51.79,12.0,1.0,1.0,1.0
51.8,8.0,1.0,1.0,1.0
51.81,5.0,1.0,1.0,1.0
51.82,5.0,1.0,1.0,1.0
51.83,4.0,1.0,1.0,1.0
51.84,8.0,1.0,1.0,1.0
51.85,0.0,1.0,1.0,1.0
51.86,4.0,1.0,1.0,1.0
51.87,6.0,1.0,1.0,1.0
51.88,0.0,1.0,1.0,1.0
51.89,7.0,1.0,1.0,1.0
51.9,3.0,1.0,1.0,1.0
51.91,4.0,1.0,1.0,1.0
51.92,11.0,1.0,1.0,1.0
51.93,9.0,1.0,1.0,1.0
51.94,0.0,1.0,1.0,1.0
51.95,5.0,1.0,1.0,1.0
51.96,3.0,1.0,1.0,1.0
51.97,11.0,1.0,1.0,1.0
51.98,5.0,1.0,1.0,1.0
51.99,8.0,1.0,1.0,1.0
52.0,14.0,1.0,1.0,1.0
0.4,842939.5,1.0,1.0,1.0
0.41,866609.5,1.0,1.0,1.0
0.42,885733.0,1.0,1.0,1.0
0.43,905687.0,1.0,1.0,1.0
0.44,926225.5,1.0,1.0,1.0
0.45,940264.0,1.0,1.0,1.0
0.46,960284.0,1.0,1.0,1.0
0.47,976876.5,1.0,1.0,1.0
0.48,993721.5,1.0,1.0,1.0
0.49,1009079.5,1.0,1.0,1.0
0.5,1025461.0,1.0,1.0,1.0
0.51,1036020.5,1.0,1.0,1.0
0.52,1048706.5,1.0,1.0,1.0
0.53,1060442.0,1.0,1.0,1.0
0.54,1068954.5,1.0,1.0,1.0
0.55,1077609.5,1.0,1.0,1.0
0.56,1085677.0,1.0,1.0,1.0
0.57,1092281.5,1.0,1.0,1.0
0.58,1094240.5,1.0,1.0,1.0
0.59,1097799.5,1.0,1.0,1.0
0.6,1095540.5,1.0,1.0,1.0
0.61,1091546.0,1.0,1.0,1.0
0.62,1089399.5,1.0,1.0,1.0
0.63,1080144.0,1.0,1.0,1.0
0.64,1071404.5,1.0,1.0,1.0
0.65,1058718.0,1.0,1.0,1.0
0.66,1038901.0,1.0,1.0,1.0
0.67,1021846.0,1.0,1.0,1.0
0.68,998945,1.0,1.0,1.0
0.69,970869.5,1.0,1.0,1.0
0.7,940218,1.0,1.0,1.0
0.71,903867,1.0,1.0,1.0
0.72,866859,1.0,1.0,1.0
0.73,821671,1.0,1.0,1.0
0.74,771547,1.0,1.0,1.0
0.75,723158,1.0,1.0,1.0
0.76,670100,1.0,1.0,1.0
0.77,613512,1.0,1.0,1.0
0.78,559341,1.0,1.0,1.0
0.79,503323,1.0,1.0,1.0
0.8,452146,1.0,1.0,1.0
0.81,403605,1.0,1.0,1.0
0.82,359867,1.0,1.0,1.0
0.83,321511,1.0,1.0,1.0
0.84,285669,1.0,1.0,1.0
0.85,255978,1.0,1.0,1.0
0.86,229270,1.0,1.0,1.0
0.87,206337,1.0,1.0,1.0
0.88,185735,1.0,1.0,1.0
0.89,167375,1.0,1.0,1.0
0.9,152728,1.0,1.0,1.0
0.91,137608,1.0,1.0,1.0
0.92,125153,1.0,1.0,1.0
0.93,113655,1.0,1.0,1.0
0.94,102863,1.0,1.0,1.0
0.95,93665,1.0,1.0,1.0
0.96,84974.5,1.0,1.0,1.0
0.97,77949.5,1.0,1.0,1.0
0.98,70862,1.0,1.0,1.0
0.99,64752,1.0,1.0,1.0
1.0,58617.5,1.0,1.0,1.0
1.01,53290,1.0,1.0,1.0
1.02,48516,1.0,1.0,1.0
1.03,44231.5,1.0,1.0,1.0
1.04,40530.5,1.0,1.0,1.0
1.05,37185.5,1.0,1.0,1.0
1.06,33315,1.0,1.0,1.0
1.07,30695.5,1.0,1.0,1.0
1.08,28117.502,1.0,1.0,1.0
1.09,25040.502,1.0,1.0,1.0
1.1,22868.002,1.0,1.0,1.0
1.11,20890.5,1.0,1.0,1.0
1.12,19174.0,1.0,1.0,1.0
1.13,17481.002,1.0,1.0,1.0
1.14,15821.002,1.0,1.0,1.0
1.15,14545.501,1.0,1.0,1.0
1.16,13420.002,1.0,1.0,1.0
1.17,12058.002,1.0,1.0,1.0
1.18,11232.5,1.0,1.0,1.0
1.19,10167.501,1.0,1.0,1.0
1.2,9471.5,1.0,1.0,1.0
1.21,8708.498,1.0,1.0,1.0
1.22,8283.5,1.0,1.0,1.0
1.23,7572,1.0,1.0,1.0
1.24,7040.001,1.0,1.0,1.0
1.25,6620.5,1.0,1.0,1.0
1.26,6221.0,1.0,1.0,1.0
1.27,5935.501,1.0,1.0,1.0
1.28,5507.5,1.0,1.0,1.0
1.29,5628.5,1.0,1.0,1.0
1.3,5364.5,1.0,1.0,1.0
1.31,5064,1.0,1.0,1.0
1.32,4961,1.0,1.0,1.0
1.33,4700.0,1.0,1.0,1.0
1.34,4753.0,1.0,1.0,1.0
1.35,4655.999,1.0,1.0,1.0
1.36,4615,1.0,1.0,1.0
1.37,4537,1.0,1.0,1.0
1.38,4694.5,1.0,1.0,1.0
1.39,4509,1.0,1.0,1.0
1.4,4568.498,1.0,1.0,1.0
1.41,4591.5,1.0,1.0,1.0
1.42,4461.001,1.0,1.0,1.0
1.43,4405,1.0,1.0,1.0
1.44,4505.0,1.0,1.0,1.0
1.45,4468.5,1.0,1.0,1.0
1.46,4400.499,1.0,1.0,1.0
1.47,4483.5,1.0,1.0,1.0
1.48,4353.5,1.0,1.0,1.0
1.49,4439.999,1.0,1.0,1.0
1.5,4385,1.0,1.0,1.0
1.51,4532.0,1.0,1.0,1.0
1.52,4499.499,1.0,1.0,1.0
1.53,4383.5,1.0,1.0,1.0
1.54,4431.5,1.0,1.0,1.0
1.55,4510,1.0,1.0,1.0
1.56,4400.0,1.0,1.0,1.0
1.57,4387.001,1.0,1.0,1.0
1.58,4279.999,1.0,1.0,1.0
1.59,4274.5,1.0,1.0,1.0
1.6,4219.5,1.0,1.0,1.0
1.61,4190.5,1.0,1.0,1.0
1.62,4175.5,1.0,1.0,1.0
1.63,4164,1.0,1.0,1.0
1.64,4111,1.0,1.0,1.0
1.65,4041.5,1.0,1.0,1.0
1.66,3981.999,1.0,1.0,1.0
1.67,4060,1.0,1.0,1.0
1.68,3885.5,1.0,1.0,1.0
1.69,3782.501,1.0,1.0,1.0
1.7,3799.5,1.0,1.0,1.0
1.71,3728.999,1.0,1.0,1.0
1.72,3740.5,1.0,1.0,1.0
1.73,3647.5,1.0,1.0,1.0
1.74,3448.5,1.0,1.0,1.0
1.75,3501.999,1.0,1.0,1.0
1.76,3466.5,1.0,1.0,1.0
1.77,3315,1.0,1.0,1.0
1.78,3215.5,1.0,1.0,1.0
1.79,3264.0,1.0,1.0,1.0
1.8,3123,1.0,1.0,1.0
1.81,3127,1.0,1.0,1.0
1.82,3020,1.0,1.0,1.0
1.83,2818.999,1.0,1.0,1.0
1.84,2855.5,1.0,1.0,1.0
1.85,2915.5,1.0,1.0,1.0
1.86,2838.5,1.0,1.0,1.0
1.87,2790,1.0,1.0,1.0
1.88,2717.5,1.0,1.0,1.0
1.89,2718.0,1.0,1.0,1.0
1.9,2516,1.0,1.0,1.0
1.91,2456,1.0,1.0,1.0
1.92,2535.5,1.0,1.0,1.0
1.93,2412.0,1.0,1.0,1.0
1.94,2323.5,1.0,1.0,1.0
1.95,2298,1.0,1.0,1.0
1.96,2233,1.0,1.0,1.0
1.97,2243.5,1.0,1.0,1.0
1.98,2194,1.0,1.0,1.0
1.99,2076,1.0,1.0,1.0
2.0,2089,1.0,1.0,1.0
2.01,2015,1.0,1.0,1.0
2.02,2082.5,1.0,1.0,1.0
2.03,2025.5,1.0,1.0,1.0
2.04,1938.0,1.0,1.0,1.0
2.05,1872.5,1.0,1.0,1.0
2.06,1895.5,1.0,1.0,1.0
2.07,1811.5,1.0,1.0,1.0
2.08,1894.5,1.0,1.0,1.0
2.09,1793,1.0,1.0,1.0
2.1,1802.5,1.0,1.0,1.0
2.11,1698,1.0,1.0,1.0
2.12,1652.5,1.0,1.0,1.0
2.13,1625,1.0,1.0,1.0
2.14,1695.5,1.0,1.0,1.0
2.15,1565,1.0,1.0,1.0
2.16,1629,1.0,1.0,1.0
2.17,1541.5,1.0,1.0,1.0
2.18,1639,1.0,1.0,1.0
2.19,1509.5,1.0,1.0,1.0
2.2,1524.5,1.0,1.0,1.0
2.21,1470,1.0,1.0,1.0
2.22,1493.5,1.0,1.0,1.0
2.23,1426,1.0,1.0,1.0
2.24,1430,1.0,1.0,1.0
2.25,1474.5,1.0,1.0,1.0
2.26,1379.5,1.0,1.0,1.0
2.27,1357.5,1.0,1.0,1.0
2.28,1399,1.0,1.0,1.0
2.29,1350,1.0,1.0,1.0
2.3,1379.5,1.0,1.0,1.0
2.31,1388.5,1.0,1.0,1.0
2.32,1330.5,1.0,1.0,1.0
2.33,1287,1.0,1.0,1.0
2.34,1268.5,1.0,1.0,1.0
2.35,1288,1.0,1.0,1.0
2.36,1260.0,1.0,1.0,1.0
2.37,1205,1.0,1.0,1.0
2.38,1224,1.0,1.0,1.0
2.39,1105.5,1.0,1.0,1.0
2.4,1183.5,1.0,1.0,1.0
2.41,1162,1.0,1.0,1.0
2.42,1066,1.0,1.0,1.0
2.43,1061.5,1.0,1.0,1.0
2.44,1072.5,1.0,1.0,1.0
2.45,1016,1.0,1.0,1.0
2.46,1054,1.0,1.0,1.0
2.47,1062,1.0,1.0,1.0
2.48,1020.5,1.0,1.0,1.0
2.49,946.0001,1.0,1.0,1.0
2.5,929.4999,1.0,1.0,1.0
2.51,908.0,1.0,1.0,1.0
2.52,936.4999,1.0,1.0,1.0
2.53,877.0002,1.0,1.0,1.0
2.54,939.4996,1.0,1.0,1.0
2.55,817.5004,1.0,1.0,1.0
2.56,888.5001,1.0,1.0,1.0
2.57,791.0001,1.0,1.0,1.0
2.58,790.4998,1.0,1.0,1.0
2.59,767.0002,1.0,1.0,1.0
2.6,717.4999,1.0,1.0,1.0
2.61,764.4998,1.0,1.0,1.0
2.62,724.9997,1.0,1.0,1.0
2.63,697.0002,1.0,1.0,1.0
2.64,657.5005,1.0,1.0,1.0
2.65,646.5002,1.0,1.0,1.0
2.66,629.4998,1.0,1.0,1.0
2.67,635.0,1.0,1.0,1.0
2.68,644.4998,1.0,1.0,1.0
2.69,561.0007,1.0,1.0,1.0
2.7,594.4996,1.0,1.0,1.0
2.71,580.0,1.0,1.0,1.0
2.72,564.4999,1.0,1.0,1.0
2.73,571.5002,1.0,1.0,1.0
2.74,477.0001,1.0,1.0,1.0
2.75,453.9999,1.0,1.0,1.0
2.76,465.9999,1.0,1.0,1.0
2.77,444.0005,1.0,1.0,1.0
2.78,385.9997,1.0,1.0,1.0
2.79,370.0001,1.0,1.0,1.0
2.8,394.9998,1.0,1.0,1.0
2.81,377.0002,1.0,1.0,1.0
2.82,398.5001,1.0,1.0,1.0
2.83,304.5001,1.0,1.0,1.0
2.84,367.9998,1.0,1.0,1.0
2.85,350.0001,1.0,1.0,1.0
2.86,302.9999,1.0,1.0,1.0
2.87,340.0001,1.0,1.0,1.0
2.88,301.4999,1.0,1.0,1.0
2.89,335.5001,1.0,1.0,1.0
2.9,307.4999,1.0,1.0,1.0
2.91,286.0,1.0,1.0,1.0
2.92,279.4999,1.0,1.0,1.0
2.93,284.5002,1.0,1.0,1.0
2.94,263.4999,1.0,1.0,1.0
2.95,296.5002,1.0,1.0,1.0
2.96,227.0,1.0,1.0,1.0
2.97,267.4997,1.0,1.0,1.0
2.98,224.0001,1.0,1.0,1.0
2.99,236.5002,1.0,1.0,1.0
3.0,213.4999,1.0,1.0,1.0
3.01,253.9999,1.0,1.0,1.0
3.02,248.0001,1.0,1.0,1.0
3.03,225.0001,1.0,1.0,1.0
3.04,188.5001,1.0,1.0,1.0
3.05,223.4998,1.0,1.0,1.0
3.06,179.4998,1.0,1.0,1.0
3.07,220.0002,1.0,1.0,1.0
3.08,217.9999,1.0,1.0,1.0
3.09,201.0001,1.0,1.0,1.0
3.1,199.0001,1.0,1.0,1.0
3.11,204.4997,1.0,1.0,1.0
3.12,188.0001,1.0,1.0,1.0
3.13,203.5002,1.0,1.0,1.0
3.14,166.9997,1.0,1.0,1.0
3.15,221.0001,1.0,1.0,1.0
3.16,217.5001,1.0,1.0,1.0
3.17,196.0001,1.0,1.0,1.0
3.18,177.9998,1.0,1.0,1.0
3.19,195.5002,1.0,1.0,1.0
3.2,179.9998,1.0,1.0,1.0
3.21,216.5002,1.0,1.0,1.0
3.22,185.9999,1.0,1.0,1.0
3.23,184.0002,1.0,1.0,1.0
3.24,170.4999,1.0,1.0,1.0
3.25,203.4998,1.0,1.0,1.0
3.26,219.0001,1.0,1.0,1.0
3.27,200.5001,1.0,1.0,1.0
3.28,223.0,1.0,1.0,1.0
3.29,178.4998,1.0,1.0,1.0
3.3,195.5003,1.0,1.0,1.0
3.31,181.9998,1.0,1.0,1.0
3.32,221.9999,1.0,1.0,1.0
3.33,206.0003,1.0,1.0,1.0
3.34,211.9999,1.0,1.0,1.0
3.35,191.0,1.0,1.0,1.0
3.36,188.0,1.0,1.0,1.0
3.37,186.0001,1.0,1.0,1.0
3.38,201.9996,1.0,1.0,1.0
3.39,214.0002,1.0,1.0,1.0
3.4,200.0001,1.0,1.0,1.0
3.41,209.9999,1.0,1.0,1.0
3.42,167.0,1.0,1.0,1.0
3.43,231.9999,1.0,1.0,1.0
3.44,209.0001,1.0,1.0,1.0
3.45,205.5003,1.0,1.0,1.0
3.46,174.9998,1.0,1.0,1.0
3.47,160.5001,1.0,1.0,1.0
3.48,193.4997,1.0,1.0,1.0
3.49,159.0002,1.0,1.0,1.0
3.5,172.5001,1.0,1.0,1.0
3.51,202.0,1.0,1.0,1.0
3.52,200.9999,1.0,1.0,1.0
3.53,196.4999,1.0,1.0,1.0
3.54,166.4999,1.0,1.0,1.0
3.55,154.5003,1.0,1.0,1.0
3.56,175.4999,1.0,1.0,1.0
3.57,169.0,1.0,1.0,1.0
3.58,205.0,1.0,1.0,1.0
3.59,189.4998,1.0,1.0,1.0
3.6,213.5003,1.0,1.0,1.0
3.61,186.9999,1.0,1.0,1.0
3.62,177.0,1.0,1.0,1.0
3.63,214.4999,1.0,1.0,1.0
3.64,186.5001,1.0,1.0,1.0
3.65,195.0001,1.0,1.0,1.0
3.66,215.9999,1.0,1.0,1.0
3.67,193.4999,1.0,1.0,1.0
3.68,184.9999,1.0,1.0,1.0
3.69,175.0002,1.0,1.0,1.0
3.7,208.9998,1.0,1.0,1.0
3.71,191.0002,1.0,1.0,1.0
3.72,217.4999,1.0,1.0,1.0
3.73,167.5001,1.0,1.0,1.0
3.74,187.9997,1.0,1.0,1.0
3.75,183.5002,1.0,1.0,1.0
3.76,188.0001,1.0,1.0,1.0
3.77,176.5002,1.0,1.0,1.0
3.78,152.4998,1.0,1.0,1.0
3.79,161.4999,1.0,1.0,1.0
3.8,175.0001,1.0,1.0,1.0
3.81,176.0,1.0,1.0,1.0
3.82,165.0,1.0,1.0,1.0
3.83,185.4997,1.0,1.0,1.0
3.84,159.0,1.0,1.0,1.0
3.85,201.0003,1.0,1.0,1.0
3.86,141.4996,1.0,1.0,1.0
3.87,168.0002,1.0,1.0,1.0
3.88,155.0,1.0,1.0,1.0
3.89,173.0001,1.0,1.0,1.0
3.9,191.4999,1.0,1.0,1.0
3.91,181.4998,1.0,1.0,1.0
3.92,223.5002,1.0,1.0,1.0
3.93,191.5001,1.0,1.0,1.0
3.94,179.4996,1.0,1.0,1.0
3.95,190.5004,1.0,1.0,1.0
3.96,194.0,1.0,1.0,1.0
3.97,228.4997,1.0,1.0,1.0
3.98,191.0002,1.0,1.0,1.0
3.99,174.0001,1.0,1.0,1.0
4.0,184.4996,1.0,1.0,1.0
4.01,161.0001,1.0,1.0,1.0
4.02,201.5002,1.0,1.0,1.0
4.03,192.4998,1.0,1.0,1.0
4.04,218.0002,1.0,1.0,1.0
4.05,187.9999,1.0,1.0,1.0
4.06,228.9999,1.0,1.0,1.0
4.07,194.0003,1.0,1.0,1.0
4.08,191.9998,1.0,1.0,1.0
4.09,215.0,1.0,1.0,1.0
4.1,216.4999,1.0,1.0,1.0
4.11,196.0,1.0,1.0,1.0
4.12,190.0002,1.0,1.0,1.0
4.13,194.4998,1.0,1.0,1.0
4.14,164.0002,1.0,1.0,1.0
4.15,188.9997,1.0,1.0,1.0
4.16,182.0003,1.0,1.0,1.0
4.17,179.4998,1.0,1.0,1.0
4.18,206.0,1.0,1.0,1.0
4.19,196.4998,1.0,1.0,1.0
4.2,229.0002,1.0,1.0,1.0
4.21,215.9997,1.0,1.0,1.0
4.22,189.5003,1.0,1.0,1.0
4.23,192.0,1.0,1.0,1.0
4.24,185.9999,1.0,1.0,1.0
4.25,200.0002,1.0,1.0,1.0
4.26,196.4997,1.0,1.0,1.0
4.27,170.5001,1.0,1.0,1.0
4.28,200.9998,1.0,1.0,1.0
4.29,210.5003,1.0,1.0,1.0
4.3,211.5002,1.0,1.0,1.0
4.31,181.4998,1.0,1.0,1.0
4.32,221.4999,1.0,1.0,1.0
4.33,207.0,1.0,1.0,1.0
4.34,160.5001,1.0,1.0,1.0
4.35,193.0001,1.0,1.0,1.0
4.36,189.0001,1.0,1.0,1.0
4.37,167.4997,1.0,1.0,1.0
4.38,215.0,1.0,1.0,1.0
4.39,217.5002,1.0,1.0,1.0
4.4,190.5001,1.0,1.0,1.0
4.41,181.9998,1.0,1.0,1.0
4.42,212.0001,1.0,1.0,1.0
4.43,208.5001,1.0,1.0,1.0
4.44,238.0,1.0,1.0,1.0
4.45,200.5001,1.0,1.0,1.0
4.46,187.9999,1.0,1.0,1.0
4.47,173.9998,1.0,1.0,1.0
4.48,193.5003,1.0,1.0,1.0
4.49,193.0,1.0,1.0,1.0
4.5,195.0,1.0,1.0,1.0