File: XRD:XRR/STO/22145_STOL/22145_22145_XRD.csv
#twotheta, yobs, ycal, bkg, diff
42.0,7.0,1.0,1.0,1.0
42.01,2.0,1.0,1.0,1.0
42.02,6.0,1.0,1.0,1.0
42.03,2.0,1.0,1.0,1.0
42.04,2.0,1.0,1.0,1.0
42.05,7.0,1.0,1.0,1.0
42.06,0.0,1.0,1.0,1.0
42.07,6.0,1.0,1.0,1.0
42.08,0.0,1.0,1.0,1.0
42.09,4.0,1.0,1.0,1.0
42.1,4.0,1.0,1.0,1.0
42.11,6.4944,1.0,1.0,1.0
42.12,3.5056,1.0,1.0,1.0
42.13,5.0,1.0,1.0,1.0
42.14,4.0,1.0,1.0,1.0
42.15,4.0,1.0,1.0,1.0
42.16,0.0,1.0,1.0,1.0
42.17,3.0,1.0,1.0,1.0
42.18,6.0,1.0,1.0,1.0
42.19,13.4944,1.0,1.0,1.0
42.2,5.0,1.0,1.0,1.0
42.21,9.5056,1.0,1.0,1.0
42.22,7.0,1.0,1.0,1.0
42.23,9.4944,1.0,1.0,1.0
42.24,2.5056,1.0,1.0,1.0
42.25,0.0,1.0,1.0,1.0
42.26,8.0,1.0,1.0,1.0
42.27,2.9889,1.0,1.0,1.0
42.28,3.0111,1.0,1.0,1.0
42.29,2.0,1.0,1.0,1.0
42.3,5.0,1.0,1.0,1.0
42.31,4.0,1.0,1.0,1.0
42.32,2.4944,1.0,1.0,1.0
42.33,5.5056,1.0,1.0,1.0
42.34,4.0,1.0,1.0,1.0
42.35,0.0,1.0,1.0,1.0
42.36,0.4944,1.0,1.0,1.0
42.37,1.5056,1.0,1.0,1.0
42.38,4.0,1.0,1.0,1.0
42.39,0.0,1.0,1.0,1.0
42.4,2.0,1.0,1.0,1.0
42.41,7.0,1.0,1.0,1.0
42.42,2.0,1.0,1.0,1.0
42.43,2.0,1.0,1.0,1.0
42.44,7.0,1.0,1.0,1.0
42.45,2.0,1.0,1.0,1.0
42.46,2.0,1.0,1.0,1.0
42.47,1.0,1.0,1.0,1.0
42.48,3.0,1.0,1.0,1.0
42.49,11.0,1.0,1.0,1.0
42.5,2.0,1.0,1.0,1.0
42.51,3.0,1.0,1.0,1.0
42.52,10.0,1.0,1.0,1.0
42.53,11.0,1.0,1.0,1.0
42.54,4.0,1.0,1.0,1.0
42.55,0.0,1.0,1.0,1.0
42.56,5.4944,1.0,1.0,1.0
42.57,0.5056,1.0,1.0,1.0
42.58,5.0,1.0,1.0,1.0
42.59,6.0,1.0,1.0,1.0
42.6,5.0,1.0,1.0,1.0
42.61,1.4944,1.0,1.0,1.0
42.62,3.5056,1.0,1.0,1.0
42.63,0.0,1.0,1.0,1.0
42.64,4.4944,1.0,1.0,1.0
42.65,7.5056,1.0,1.0,1.0
42.66,6.0,1.0,1.0,1.0
42.67,8.0,1.0,1.0,1.0
42.68,12.0,1.0,1.0,1.0
42.69,5.0,1.0,1.0,1.0
42.7,4.0,1.0,1.0,1.0
42.71,6.0,1.0,1.0,1.0
42.72,8.0,1.0,1.0,1.0
42.73,7.0,1.0,1.0,1.0
42.74,6.0,1.0,1.0,1.0
42.75,4.0,1.0,1.0,1.0
42.76,7.0,1.0,1.0,1.0
42.77,3.0,1.0,1.0,1.0
42.78,0.0,1.0,1.0,1.0
42.79,5.0,1.0,1.0,1.0
42.8,4.0,1.0,1.0,1.0
42.81,7.0,1.0,1.0,1.0
42.82,3.0,1.0,1.0,1.0
42.83,4.0,1.0,1.0,1.0
42.84,6.0,1.0,1.0,1.0
42.85,4.0,1.0,1.0,1.0
42.86,14.0,1.0,1.0,1.0
42.87,4.0,1.0,1.0,1.0
42.88,11.0,1.0,1.0,1.0
42.89,9.0,1.0,1.0,1.0
42.9,6.0,1.0,1.0,1.0
42.91,11.4944,1.0,1.0,1.0
42.92,15.0,1.0,1.0,1.0
42.93,10.5056,1.0,1.0,1.0
42.94,4.0,1.0,1.0,1.0
42.95,8.0,1.0,1.0,1.0
42.96,11.0,1.0,1.0,1.0
42.97,2.0,1.0,1.0,1.0
42.98,11.0,1.0,1.0,1.0
42.99,4.4944,1.0,1.0,1.0
43.0,0.5056,1.0,1.0,1.0
43.01,15.0,1.0,1.0,1.0
43.02,7.4944,1.0,1.0,1.0
43.03,15.0,1.0,1.0,1.0
43.04,12.5056,1.0,1.0,1.0
43.05,18.0,1.0,1.0,1.0
43.06,12.0,1.0,1.0,1.0
43.07,2.9889,1.0,1.0,1.0
43.08,13.5056,1.0,1.0,1.0
43.09,15.5056,1.0,1.0,1.0
43.1,0.0,1.0,1.0,1.0
43.11,15.0,1.0,1.0,1.0
43.12,7.0,1.0,1.0,1.0
43.13,5.4944,1.0,1.0,1.0
43.14,16.5056,1.0,1.0,1.0
43.15,12.0,1.0,1.0,1.0
43.16,6.0,1.0,1.0,1.0
43.17,18.0,1.0,1.0,1.0
43.18,14.0,1.0,1.0,1.0
43.19,15.0,1.0,1.0,1.0
43.2,14.0,1.0,1.0,1.0
43.21,12.4944,1.0,1.0,1.0
43.22,19.5056,1.0,1.0,1.0
43.23,12.0,1.0,1.0,1.0
43.24,9.0,1.0,1.0,1.0
43.25,10.0,1.0,1.0,1.0
43.26,9.0,1.0,1.0,1.0
43.27,17.9889,1.0,1.0,1.0
43.28,15.0111,1.0,1.0,1.0
43.29,11.0,1.0,1.0,1.0
43.3,14.0,1.0,1.0,1.0
43.31,15.0,1.0,1.0,1.0
43.32,12.0,1.0,1.0,1.0
43.33,10.0,1.0,1.0,1.0
43.34,21.0,1.0,1.0,1.0
43.35,9.0,1.0,1.0,1.0
43.36,7.0,1.0,1.0,1.0
43.37,14.0,1.0,1.0,1.0
43.38,10.0,1.0,1.0,1.0
43.39,18.4944,1.0,1.0,1.0
43.4,19.5056,1.0,1.0,1.0
43.41,9.4944,1.0,1.0,1.0
43.42,7.0,1.0,1.0,1.0
43.43,8.5056,1.0,1.0,1.0
43.44,0.0,1.0,1.0,1.0
43.45,8.0,1.0,1.0,1.0
43.46,14.4944,1.0,1.0,1.0
43.47,4.5056,1.0,1.0,1.0
43.48,10.0,1.0,1.0,1.0
43.49,10.0,1.0,1.0,1.0
43.5,5.0,1.0,1.0,1.0
43.51,6.0,1.0,1.0,1.0
43.52,9.0,1.0,1.0,1.0
43.53,5.4944,1.0,1.0,1.0
43.54,8.5056,1.0,1.0,1.0
43.55,4.0,1.0,1.0,1.0
43.56,10.0,1.0,1.0,1.0
43.57,0.4944,1.0,1.0,1.0
43.58,10.5056,1.0,1.0,1.0
43.59,16.0,1.0,1.0,1.0
43.6,5.0,1.0,1.0,1.0
43.61,9.0,1.0,1.0,1.0
43.62,7.4944,1.0,1.0,1.0
43.63,7.5056,1.0,1.0,1.0
43.64,9.4944,1.0,1.0,1.0
43.65,4.5056,1.0,1.0,1.0
43.66,6.0,1.0,1.0,1.0
43.67,3.0,1.0,1.0,1.0
43.68,3.0,1.0,1.0,1.0
43.69,14.0,1.0,1.0,1.0
43.7,11.0,1.0,1.0,1.0
43.71,0.0,1.0,1.0,1.0
43.72,3.0,1.0,1.0,1.0
43.73,13.0,1.0,1.0,1.0
43.74,8.0,1.0,1.0,1.0
43.75,12.4944,1.0,1.0,1.0
43.76,10.5056,1.0,1.0,1.0
43.77,2.0,1.0,1.0,1.0
43.78,6.0,1.0,1.0,1.0
43.79,2.0,1.0,1.0,1.0
43.8,14.0,1.0,1.0,1.0
43.81,4.0,1.0,1.0,1.0
43.82,9.0,1.0,1.0,1.0
43.83,4.0,1.0,1.0,1.0
43.84,9.0,1.0,1.0,1.0
43.85,8.4944,1.0,1.0,1.0
43.86,2.5056,1.0,1.0,1.0
43.87,8.0,1.0,1.0,1.0
43.88,14.0,1.0,1.0,1.0
43.89,11.4944,1.0,1.0,1.0
43.9,10.5056,1.0,1.0,1.0
43.91,16.0,1.0,1.0,1.0
43.92,5.0,1.0,1.0,1.0
43.93,10.0,1.0,1.0,1.0
43.94,8.0,1.0,1.0,1.0
43.95,8.0,1.0,1.0,1.0
43.96,9.0,1.0,1.0,1.0
43.97,7.0,1.0,1.0,1.0
43.98,19.0,1.0,1.0,1.0
43.99,13.0,1.0,1.0,1.0
44.0,11.0,1.0,1.0,1.0
44.01,19.4944,1.0,1.0,1.0
44.02,26.0,1.0,1.0,1.0
44.03,29.5056,1.0,1.0,1.0
44.04,16.0,1.0,1.0,1.0
44.05,21.0,1.0,1.0,1.0
44.06,11.0,1.0,1.0,1.0
44.07,24.0,1.0,1.0,1.0
44.08,18.0,1.0,1.0,1.0
44.09,37.0,1.0,1.0,1.0
44.1,37.9889,1.0,1.0,1.0
44.11,32.0111,1.0,1.0,1.0
44.12,38.9889,1.0,1.0,1.0
44.13,33.5056,1.0,1.0,1.0
44.14,54.0,1.0,1.0,1.0
44.15,38.0,1.0,1.0,1.0
44.16,35.0,1.0,1.0,1.0
44.17,57.4833,1.0,1.0,1.0
44.18,51.5167,1.0,1.0,1.0
44.19,45.5056,1.0,1.0,1.0
44.2,55.4944,1.0,1.0,1.0
44.21,40.4944,1.0,1.0,1.0
44.22,53.9889,1.0,1.0,1.0
44.23,59.5167,1.0,1.0,1.0
44.24,65.0,1.0,1.0,1.0
44.25,69.5056,1.0,1.0,1.0
44.26,42.4944,1.0,1.0,1.0
44.27,68.0,1.0,1.0,1.0
44.28,93.0,1.0,1.0,1.0
44.29,75.5056,1.0,1.0,1.0
44.3,93.0,1.0,1.0,1.0
44.31,92.0,1.0,1.0,1.0
44.32,104.9889,1.0,1.0,1.0
44.33,105.0,1.0,1.0,1.0
44.34,89.9889,1.0,1.0,1.0
44.35,109.5056,1.0,1.0,1.0
44.36,105.5056,1.0,1.0,1.0
44.37,107.4944,1.0,1.0,1.0
44.38,123.5167,1.0,1.0,1.0
44.39,120.9889,1.0,1.0,1.0
44.4,125.4944,1.0,1.0,1.0
44.41,118.0,1.0,1.0,1.0
44.42,131.5056,1.0,1.0,1.0
44.43,104.0,1.0,1.0,1.0
44.44,153.9889,1.0,1.0,1.0
44.45,117.0111,1.0,1.0,1.0
44.46,131.4833,1.0,1.0,1.0
44.47,174.5167,1.0,1.0,1.0
44.48,143.5056,1.0,1.0,1.0
44.49,148.4722,1.0,1.0,1.0
44.5,164.5278,1.0,1.0,1.0
44.51,176.9889,1.0,1.0,1.0
44.52,185.5056,1.0,1.0,1.0
44.53,148.4944,1.0,1.0,1.0
44.54,174.0111,1.0,1.0,1.0
44.55,192.4722,1.0,1.0,1.0
44.56,192.5056,1.0,1.0,1.0
44.57,187.9889,1.0,1.0,1.0
44.58,199.0111,1.0,1.0,1.0
44.59,190.5056,1.0,1.0,1.0
44.6,194.0111,1.0,1.0,1.0
44.61,220.4833,1.0,1.0,1.0
44.62,194.5167,1.0,1.0,1.0
44.63,229.0,1.0,1.0,1.0
44.64,222.0,1.0,1.0,1.0
44.65,235.9778,1.0,1.0,1.0
44.66,209.5056,1.0,1.0,1.0
44.67,222.0111,1.0,1.0,1.0
44.68,237.5056,1.0,1.0,1.0
44.69,283.4833,1.0,1.0,1.0
44.7,273.9556,1.0,1.0,1.0
44.71,253.0555,1.0,1.0,1.0
44.72,225.4944,1.0,1.0,1.0
44.73,253.4833,1.0,1.0,1.0
44.74,268.9889,1.0,1.0,1.0
44.75,267.5056,1.0,1.0,1.0
44.76,281.5056,1.0,1.0,1.0
44.77,283.5056,1.0,1.0,1.0
44.78,248.0111,1.0,1.0,1.0
44.79,269.4833,1.0,1.0,1.0
44.8,323.5056,1.0,1.0,1.0
44.81,309.0111,1.0,1.0,1.0
44.82,294.4944,1.0,1.0,1.0
44.83,298.0,1.0,1.0,1.0
44.84,306.9667,1.0,1.0,1.0
44.85,317.0111,1.0,1.0,1.0
44.86,320.5278,1.0,1.0,1.0
44.87,304.4833,1.0,1.0,1.0
44.88,290.0111,1.0,1.0,1.0
44.89,324.4944,1.0,1.0,1.0
44.9,342.9889,1.0,1.0,1.0
44.91,336.0222,1.0,1.0,1.0
44.92,318.9889,1.0,1.0,1.0
44.93,388.4944,1.0,1.0,1.0
44.94,324.0,1.0,1.0,1.0
44.95,339.0,1.0,1.0,1.0
44.96,354.4833,1.0,1.0,1.0
44.97,343.0222,1.0,1.0,1.0
44.98,354.5056,1.0,1.0,1.0
44.99,349.4944,1.0,1.0,1.0
45.0,371.0,1.0,1.0,1.0
45.01,364.4722,1.0,1.0,1.0
45.02,356.0333,1.0,1.0,1.0
45.03,382.9667,1.0,1.0,1.0
45.04,390.4944,1.0,1.0,1.0
45.05,387.5167,1.0,1.0,1.0
45.06,357.5167,1.0,1.0,1.0
45.07,376.4833,1.0,1.0,1.0
45.08,372.0,1.0,1.0,1.0
45.09,386.0222,1.0,1.0,1.0
45.1,408.9778,1.0,1.0,1.0
45.11,384.5278,1.0,1.0,1.0
45.12,376.9889,1.0,1.0,1.0
45.13,387.9667,1.0,1.0,1.0
45.14,402.5389,1.0,1.0,1.0
45.15,398.4944,1.0,1.0,1.0
45.16,381.4944,1.0,1.0,1.0
45.17,391.4833,1.0,1.0,1.0
45.18,393.5056,1.0,1.0,1.0
45.19,409.0222,1.0,1.0,1.0
45.2,462.4833,1.0,1.0,1.0
45.21,349.5056,1.0,1.0,1.0
45.22,387.0,1.0,1.0,1.0
45.23,391.5278,1.0,1.0,1.0
45.24,377.4611,1.0,1.0,1.0
45.25,396.0,1.0,1.0,1.0
45.26,389.4833,1.0,1.0,1.0
45.27,416.0222,1.0,1.0,1.0
45.28,374.5167,1.0,1.0,1.0
45.29,417.9556,1.0,1.0,1.0
45.3,382.5278,1.0,1.0,1.0
45.31,388.4944,1.0,1.0,1.0
45.32,393.4944,1.0,1.0,1.0
45.33,424.0222,1.0,1.0,1.0
45.34,402.0222,1.0,1.0,1.0
45.35,362.9445,1.0,1.0,1.0
45.36,392.55,1.0,1.0,1.0
45.37,363.4833,1.0,1.0,1.0
45.38,382.0,1.0,1.0,1.0
45.39,391.4944,1.0,1.0,1.0
45.4,400.5056,1.0,1.0,1.0
45.41,381.4833,1.0,1.0,1.0
45.42,386.0222,1.0,1.0,1.0
45.43,350.9778,1.0,1.0,1.0
45.44,398.5278,1.0,1.0,1.0
45.45,356.9778,1.0,1.0,1.0
45.46,358.9889,1.0,1.0,1.0
45.47,342.0333,1.0,1.0,1.0
45.48,352.9889,1.0,1.0,1.0
45.49,377.4611,1.0,1.0,1.0
45.5,368.0222,1.0,1.0,1.0
45.51,336.5167,1.0,1.0,1.0
45.52,361.0111,1.0,1.0,1.0
45.53,331.4833,1.0,1.0,1.0
45.54,353.4833,1.0,1.0,1.0
45.55,310.0222,1.0,1.0,1.0
45.56,364.5056,1.0,1.0,1.0
45.57,341.4722,1.0,1.0,1.0
45.58,325.0111,1.0,1.0,1.0
45.59,340.0111,1.0,1.0,1.0
45.6,320.0,1.0,1.0,1.0
45.61,319.4833,1.0,1.0,1.0
45.62,324.0111,1.0,1.0,1.0
45.63,320.0222,1.0,1.0,1.0
45.64,315.9667,1.0,1.0,1.0
45.65,316.0222,1.0,1.0,1.0
45.66,306.4833,1.0,1.0,1.0
45.67,342.5056,1.0,1.0,1.0
45.68,301.0,1.0,1.0,1.0
45.69,304.5056,1.0,1.0,1.0
45.7,320.4722,1.0,1.0,1.0
45.71,311.5278,1.0,1.0,1.0
45.72,307.5167,1.0,1.0,1.0
45.73,292.9889,1.0,1.0,1.0
45.74,332.4722,1.0,1.0,1.0
45.75,319.0111,1.0,1.0,1.0
45.76,323.4944,1.0,1.0,1.0
45.77,289.0,1.0,1.0,1.0
45.78,310.5389,1.0,1.0,1.0
45.79,275.9667,1.0,1.0,1.0
45.8,271.5056,1.0,1.0,1.0
45.81,300.4833,1.0,1.0,1.0
45.82,307.5056,1.0,1.0,1.0
45.83,274.5278,1.0,1.0,1.0
45.84,253.0111,1.0,1.0,1.0
45.85,270.4722,1.0,1.0,1.0
45.86,290.5167,1.0,1.0,1.0
45.87,257.0111,1.0,1.0,1.0
45.88,282.4944,1.0,1.0,1.0
45.89,249.0111,1.0,1.0,1.0
45.9,255.4722,1.0,1.0,1.0
45.91,250.0222,1.0,1.0,1.0
45.92,253.9556,1.0,1.0,1.0
45.93,267.9889,1.0,1.0,1.0
45.94,233.5389,1.0,1.0,1.0
45.95,241.0111,1.0,1.0,1.0
45.96,242.4944,1.0,1.0,1.0
45.97,233.9889,1.0,1.0,1.0
45.98,272.0,1.0,1.0,1.0
45.99,223.4944,1.0,1.0,1.0
46.0,238.5278,1.0,1.0,1.0
46.01,219.9778,1.0,1.0,1.0
46.02,253.0,1.0,1.0,1.0
46.03,208.0,1.0,1.0,1.0
46.04,233.0,1.0,1.0,1.0
46.05,232.5056,1.0,1.0,1.0
46.06,190.5056,1.0,1.0,1.0
46.07,230.9889,1.0,1.0,1.0
46.08,201.0111,1.0,1.0,1.0
46.09,206.0,1.0,1.0,1.0
46.1,180.5056,1.0,1.0,1.0
46.11,215.0,1.0,1.0,1.0
46.12,186.4944,1.0,1.0,1.0
46.13,215.5056,1.0,1.0,1.0
46.14,166.0,1.0,1.0,1.0
46.15,179.4722,1.0,1.0,1.0
46.16,196.0111,1.0,1.0,1.0
46.17,187.5167,1.0,1.0,1.0
46.18,195.0111,1.0,1.0,1.0
46.19,193.4722,1.0,1.0,1.0
46.2,203.0222,1.0,1.0,1.0
46.21,170.4833,1.0,1.0,1.0
46.22,187.0111,1.0,1.0,1.0
46.23,174.4833,1.0,1.0,1.0
46.24,189.0222,1.0,1.0,1.0
46.25,212.0,1.0,1.0,1.0
46.26,158.9778,1.0,1.0,1.0
46.27,167.5056,1.0,1.0,1.0
46.28,184.5167,1.0,1.0,1.0
46.29,183.4944,1.0,1.0,1.0
46.3,190.0111,1.0,1.0,1.0
46.31,147.4833,1.0,1.0,1.0
46.32,164.5056,1.0,1.0,1.0
46.33,185.5056,1.0,1.0,1.0
46.34,175.0,1.0,1.0,1.0
46.35,174.9778,1.0,1.0,1.0
46.36,178.5056,1.0,1.0,1.0
46.37,203.0222,1.0,1.0,1.0
46.38,208.9778,1.0,1.0,1.0
46.39,182.5167,1.0,1.0,1.0
46.4,185.0111,1.0,1.0,1.0
46.41,154.4833,1.0,1.0,1.0
46.42,171.9889,1.0,1.0,1.0
46.43,169.5278,1.0,1.0,1.0
46.44,130.0,1.0,1.0,1.0
46.45,144.9778,1.0,1.0,1.0
46.46,163.4944,1.0,1.0,1.0
46.47,170.0111,1.0,1.0,1.0
46.48,176.0,1.0,1.0,1.0
46.49,162.0,1.0,1.0,1.0
46.5,164.9889,1.0,1.0,1.0
46.51,131.5167,1.0,1.0,1.0
46.52,151.9889,1.0,1.0,1.0
46.53,167.4833,1.0,1.0,1.0
46.54,161.0111,1.0,1.0,1.0
46.55,181.0222,1.0,1.0,1.0
46.56,147.9889,1.0,1.0,1.0
46.57,189.4944,1.0,1.0,1.0
46.58,153.5167,1.0,1.0,1.0
46.59,144.9889,1.0,1.0,1.0
46.6,163.5167,1.0,1.0,1.0
46.61,189.9667,1.0,1.0,1.0
46.62,136.0222,1.0,1.0,1.0
46.63,161.4833,1.0,1.0,1.0
46.64,175.5056,1.0,1.0,1.0
46.65,124.0111,1.0,1.0,1.0
46.66,145.4944,1.0,1.0,1.0
46.67,173.4944,1.0,1.0,1.0
46.68,153.9778,1.0,1.0,1.0
46.69,181.5167,1.0,1.0,1.0
46.7,161.5167,1.0,1.0,1.0
46.71,143.9889,1.0,1.0,1.0
46.72,155.5056,1.0,1.0,1.0
46.73,147.0,1.0,1.0,1.0
46.74,166.5056,1.0,1.0,1.0
46.75,173.0,1.0,1.0,1.0
46.76,159.0111,1.0,1.0,1.0
46.77,135.9889,1.0,1.0,1.0
46.78,120.4944,1.0,1.0,1.0
46.79,138.4944,1.0,1.0,1.0
46.8,137.5056,1.0,1.0,1.0
46.81,168.9889,1.0,1.0,1.0
46.82,157.0111,1.0,1.0,1.0
46.83,148.0,1.0,1.0,1.0
46.84,146.0111,1.0,1.0,1.0
46.85,171.9778,1.0,1.0,1.0
46.86,173.5056,1.0,1.0,1.0
46.87,149.5056,1.0,1.0,1.0
46.88,169.0111,1.0,1.0,1.0
46.89,143.0,1.0,1.0,1.0
46.9,155.4944,1.0,1.0,1.0
46.91,145.0,1.0,1.0,1.0
46.92,133.4944,1.0,1.0,1.0
46.93,159.0,1.0,1.0,1.0
46.94,139.0,1.0,1.0,1.0
46.95,148.0111,1.0,1.0,1.0
46.96,145.4944,1.0,1.0,1.0
46.97,156.0,1.0,1.0,1.0
46.98,150.4944,1.0,1.0,1.0
46.99,155.4833,1.0,1.0,1.0
47.0,159.9889,1.0,1.0,1.0
47.01,123.5278,1.0,1.0,1.0
47.02,135.5056,1.0,1.0,1.0
47.03,158.5056,1.0,1.0,1.0
47.04,151.4944,1.0,1.0,1.0
47.05,141.9889,1.0,1.0,1.0
47.06,171.5056,1.0,1.0,1.0
47.07,144.4944,1.0,1.0,1.0
47.08,150.5056,1.0,1.0,1.0
47.09,148.0,1.0,1.0,1.0
47.1,123.5056,1.0,1.0,1.0
47.11,152.0,1.0,1.0,1.0
47.12,139.5056,1.0,1.0,1.0
47.13,127.9889,1.0,1.0,1.0
47.14,146.4944,1.0,1.0,1.0
47.15,143.0,1.0,1.0,1.0
47.16,127.0,1.0,1.0,1.0
47.17,152.9889,1.0,1.0,1.0
47.18,130.0222,1.0,1.0,1.0
47.19,146.0,1.0,1.0,1.0
47.2,131.0,1.0,1.0,1.0
47.21,157.0,1.0,1.0,1.0
47.22,176.9889,1.0,1.0,1.0
47.23,163.5167,1.0,1.0,1.0
47.24,146.9778,1.0,1.0,1.0
47.25,173.5056,1.0,1.0,1.0
47.26,184.4944,1.0,1.0,1.0
47.27,142.0222,1.0,1.0,1.0
47.28,173.9889,1.0,1.0,1.0
47.29,175.4944,1.0,1.0,1.0
47.3,184.5167,1.0,1.0,1.0
47.31,170.9778,1.0,1.0,1.0
47.32,192.0,1.0,1.0,1.0
47.33,219.5167,1.0,1.0,1.0
47.34,190.0,1.0,1.0,1.0
47.35,176.9556,1.0,1.0,1.0
47.36,178.5389,1.0,1.0,1.0
47.37,188.4944,1.0,1.0,1.0
47.38,202.0,1.0,1.0,1.0
47.39,200.4944,1.0,1.0,1.0
47.4,195.5167,1.0,1.0,1.0
47.41,206.9778,1.0,1.0,1.0
47.42,243.5167,1.0,1.0,1.0
47.43,248.9889,1.0,1.0,1.0
47.44,265.5056,1.0,1.0,1.0
47.45,220.5056,1.0,1.0,1.0
47.46,239.0,1.0,1.0,1.0
47.47,248.4722,1.0,1.0,1.0
47.48,289.0111,1.0,1.0,1.0
47.49,266.5167,1.0,1.0,1.0
47.5,306.4611,1.0,1.0,1.0
47.51,346.0222,1.0,1.0,1.0
47.52,313.4944,1.0,1.0,1.0
47.53,310.5278,1.0,1.0,1.0
47.54,313.4833,1.0,1.0,1.0
47.55,376.4833,1.0,1.0,1.0
47.56,381.5278,1.0,1.0,1.0
47.57,372.45,1.0,1.0,1.0
47.58,422.5056,1.0,1.0,1.0
47.59,468.4944,1.0,1.0,1.0
47.6,501.5167,1.0,1.0,1.0
47.61,490.9778,1.0,1.0,1.0
47.62,561.9778,1.0,1.0,1.0
47.63,555.5389,1.0,1.0,1.0
47.64,605.4722,1.0,1.0,1.0
47.65,629.5278,1.0,1.0,1.0
47.66,666.9889,1.0,1.0,1.0
47.67,759.45,1.0,1.0,1.0
47.68,831.4944,1.0,1.0,1.0
47.69,896.0111,1.0,1.0,1.0
47.7,992.5056,1.0,1.0,1.0
47.71,1086.51,1.0,1.0,1.0
47.72,1144.99,1.0,1.0,1.0
47.73,1338.92,1.0,1.0,1.0
47.74,1490.02,1.0,1.0,1.0
47.75,1685.0,1.0,1.0,1.0
47.76,1896.42,1.0,1.0,1.0
47.77,2157.55,1.0,1.0,1.0
47.78,2534.36,1.0,1.0,1.0
47.79,3014.94,1.0,1.0,1.0
47.8,3515.9,1.0,1.0,1.0
47.81,4216.96,1.0,1.0,1.0
47.82,5118.41,1.0,1.0,1.0
47.83,6218.36,1.0,1.0,1.0
47.84,7969.83,1.0,1.0,1.0
47.85,9965.25,1.0,1.0,1.0
47.86,12971.5,1.0,1.0,1.0
47.87,17059.377,1.0,1.0,1.0
47.88,22450.5,1.0,1.0,1.0
47.89,31049.7,1.0,1.0,1.0
47.9,43413.6,1.0,1.0,1.0
47.91,65263,1.0,1.0,1.0
47.92,104233,1.0,1.0,1.0
47.93,186374,1.0,1.0,1.0
47.94,400865,1.0,1.0,1.0
47.95,1297343.625,1.0,1.0,1.0
47.96,10329434.0,1.0,1.0,1.0
47.97,20932760.0,1.0,1.0,1.0
47.98,5108043.0,1.0,1.0,1.0
47.99,1139143.375,1.0,1.0,1.0
48.0,389169.5,1.0,1.0,1.0
48.01,206979,1.0,1.0,1.0
48.02,131404,1.0,1.0,1.0
48.03,88187.3,1.0,1.0,1.0
48.04,59447.6,1.0,1.0,1.0
48.05,41176.8,1.0,1.0,1.0
48.06,28987.8,1.0,1.0,1.0
48.07,21150.1,1.0,1.0,1.0
48.08,16006,1.0,1.0,1.0
48.09,12380.9,1.0,1.0,1.0
48.1,9458.76,1.0,1.0,1.0
48.11,7841.52,1.0,1.0,1.0
48.12,6519.84,1.0,1.0,1.0
48.13,5265.51,1.0,1.0,1.0
48.14,4193.62,1.0,1.0,1.0
48.15,3594.07,1.0,1.0,1.0
48.16,3019.06,1.0,1.0,1.0
48.17,2505.46,1.0,1.0,1.0
48.18,2137.09,1.0,1.0,1.0
48.19,1910.11,1.0,1.0,1.0
48.2,1630.49,1.0,1.0,1.0
48.21,1392.98,1.0,1.0,1.0
48.22,1201.99,1.0,1.0,1.0
48.23,1016.54,1.0,1.0,1.0
48.24,963.0222,1.0,1.0,1.0
48.25,871.0111,1.0,1.0,1.0
48.26,755.0222,1.0,1.0,1.0
48.27,647.55,1.0,1.0,1.0
48.28,548.4833,1.0,1.0,1.0
48.29,528.5167,1.0,1.0,1.0
48.3,480.9889,1.0,1.0,1.0
48.31,435.9778,1.0,1.0,1.0
48.32,420.0444,1.0,1.0,1.0
48.33,398.9778,1.0,1.0,1.0
48.34,336.0222,1.0,1.0,1.0
48.35,354.9889,1.0,1.0,1.0
48.36,317.0111,1.0,1.0,1.0
48.37,259.9778,1.0,1.0,1.0
48.38,265.0,1.0,1.0,1.0
48.39,247.0222,1.0,1.0,1.0
48.4,235.0111,1.0,1.0,1.0
48.41,196.9889,1.0,1.0,1.0
48.42,206.0111,1.0,1.0,1.0
48.43,171.5056,1.0,1.0,1.0
48.44,195.4833,1.0,1.0,1.0
48.45,155.0111,1.0,1.0,1.0
48.46,158.0111,1.0,1.0,1.0
48.47,153.9889,1.0,1.0,1.0
48.48,155.5167,1.0,1.0,1.0
48.49,128.0,1.0,1.0,1.0
48.5,114.0,1.0,1.0,1.0
48.51,103.9889,1.0,1.0,1.0
48.52,124.4944,1.0,1.0,1.0
48.53,130.4944,1.0,1.0,1.0
48.54,105.5167,1.0,1.0,1.0
48.55,90.4944,1.0,1.0,1.0
48.56,102.0,1.0,1.0,1.0
48.57,101.0,1.0,1.0,1.0
48.58,79.0,1.0,1.0,1.0
48.59,93.0,1.0,1.0,1.0
48.6,87.5056,1.0,1.0,1.0
48.61,64.4944,1.0,1.0,1.0
48.62,66.4944,1.0,1.0,1.0
48.63,67.0111,1.0,1.0,1.0
48.64,78.0,1.0,1.0,1.0
48.65,61.5056,1.0,1.0,1.0
48.66,56.4833,1.0,1.0,1.0
48.67,69.5167,1.0,1.0,1.0
48.68,68.4833,1.0,1.0,1.0
48.69,65.0111,1.0,1.0,1.0
48.7,48.0,1.0,1.0,1.0
48.71,63.4944,1.0,1.0,1.0
48.72,56.0,1.0,1.0,1.0
48.73,56.5056,1.0,1.0,1.0
48.74,44.9889,1.0,1.0,1.0
48.75,41.5167,1.0,1.0,1.0
48.76,34.0,1.0,1.0,1.0
48.77,40.4944,1.0,1.0,1.0
48.78,41.0,1.0,1.0,1.0
48.79,38.0,1.0,1.0,1.0
48.8,21.4944,1.0,1.0,1.0
48.81,37.5056,1.0,1.0,1.0
48.82,48.0,1.0,1.0,1.0
48.83,28.5056,1.0,1.0,1.0
48.84,37.0,1.0,1.0,1.0
48.85,35.4944,1.0,1.0,1.0
48.86,38.5056,1.0,1.0,1.0
48.87,39.9889,1.0,1.0,1.0
48.88,36.5056,1.0,1.0,1.0
48.89,31.0,1.0,1.0,1.0
48.9,45.0,1.0,1.0,1.0
48.91,32.5056,1.0,1.0,1.0
48.92,34.0,1.0,1.0,1.0
48.93,38.9889,1.0,1.0,1.0
48.94,32.0111,1.0,1.0,1.0
48.95,30.4944,1.0,1.0,1.0
48.96,29.5056,1.0,1.0,1.0
48.97,35.4833,1.0,1.0,1.0
48.98,20.5167,1.0,1.0,1.0
48.99,19.0,1.0,1.0,1.0
49.0,36.0,1.0,1.0,1.0
49.01,27.4944,1.0,1.0,1.0
49.02,27.5056,1.0,1.0,1.0
49.03,23.4944,1.0,1.0,1.0
49.04,22.0,1.0,1.0,1.0
49.05,19.4944,1.0,1.0,1.0
49.06,32.0111,1.0,1.0,1.0
49.07,20.0,1.0,1.0,1.0
49.08,38.0,1.0,1.0,1.0
49.09,21.9889,1.0,1.0,1.0
49.1,10.0111,1.0,1.0,1.0
49.11,29.4944,1.0,1.0,1.0
49.12,23.5056,1.0,1.0,1.0
49.13,16.0,1.0,1.0,1.0
49.14,24.0,1.0,1.0,1.0
49.15,16.9889,1.0,1.0,1.0
49.16,22.5056,1.0,1.0,1.0
49.17,17.5056,1.0,1.0,1.0
49.18,16.0,1.0,1.0,1.0
49.19,18.0,1.0,1.0,1.0
49.2,10.4944,1.0,1.0,1.0
49.21,16.5056,1.0,1.0,1.0
49.22,6.4944,1.0,1.0,1.0
49.23,14.5056,1.0,1.0,1.0
49.24,13.0,1.0,1.0,1.0
49.25,16.0,1.0,1.0,1.0
49.26,19.0,1.0,1.0,1.0
49.27,36.0,1.0,1.0,1.0
49.28,14.0,1.0,1.0,1.0
49.29,7.0,1.0,1.0,1.0
49.3,20.4944,1.0,1.0,1.0
49.31,14.5056,1.0,1.0,1.0
49.32,8.4944,1.0,1.0,1.0
49.33,10.5056,1.0,1.0,1.0
49.34,15.0,1.0,1.0,1.0
49.35,12.0,1.0,1.0,1.0
49.36,12.4944,1.0,1.0,1.0
49.37,16.5056,1.0,1.0,1.0
49.38,14.0,1.0,1.0,1.0
49.39,55.0,1.0,1.0,1.0
49.4,8.0,1.0,1.0,1.0
49.41,11.4944,1.0,1.0,1.0
49.42,7.5056,1.0,1.0,1.0
49.43,27.0,1.0,1.0,1.0
49.44,5.4944,1.0,1.0,1.0
49.45,14.5056,1.0,1.0,1.0
49.46,12.0,1.0,1.0,1.0
49.47,10.0,1.0,1.0,1.0
49.48,19.0,1.0,1.0,1.0
49.49,14.0,1.0,1.0,1.0
49.5,9.0,1.0,1.0,1.0
49.51,7.0,1.0,1.0,1.0
49.52,12.0,1.0,1.0,1.0
49.53,2.0,1.0,1.0,1.0
49.54,10.0,1.0,1.0,1.0
49.55,14.0,1.0,1.0,1.0
49.56,3.4944,1.0,1.0,1.0
49.57,6.5056,1.0,1.0,1.0
49.58,5.0,1.0,1.0,1.0
49.59,7.0,1.0,1.0,1.0
49.6,14.0,1.0,1.0,1.0
49.61,6.0,1.0,1.0,1.0
49.62,9.0,1.0,1.0,1.0
49.63,8.0,1.0,1.0,1.0
49.64,11.0,1.0,1.0,1.0
49.65,18.0,1.0,1.0,1.0
49.66,2.0,1.0,1.0,1.0
49.67,2.0,1.0,1.0,1.0
49.68,4.0,1.0,1.0,1.0
49.69,10.0,1.0,1.0,1.0
49.7,13.4944,1.0,1.0,1.0
49.71,12.5056,1.0,1.0,1.0
49.72,5.0,1.0,1.0,1.0
49.73,10.0,1.0,1.0,1.0
49.74,10.0,1.0,1.0,1.0
49.75,10.0,1.0,1.0,1.0
49.76,14.0,1.0,1.0,1.0
49.77,6.0,1.0,1.0,1.0
49.78,8.0,1.0,1.0,1.0
49.79,6.0,1.0,1.0,1.0
49.8,8.0,1.0,1.0,1.0
49.81,6.0,1.0,1.0,1.0
49.82,5.0,1.0,1.0,1.0
49.83,3.0,1.0,1.0,1.0
49.84,2.0,1.0,1.0,1.0
49.85,10.0,1.0,1.0,1.0
49.86,0.0,1.0,1.0,1.0
49.87,4.0,1.0,1.0,1.0
49.88,8.0,1.0,1.0,1.0
49.89,2.0,1.0,1.0,1.0
49.9,8.0,1.0,1.0,1.0
49.91,10.0,1.0,1.0,1.0
49.92,2.0,1.0,1.0,1.0
49.93,11.0,1.0,1.0,1.0
49.94,9.4944,1.0,1.0,1.0
49.95,6.5056,1.0,1.0,1.0
49.96,10.0,1.0,1.0,1.0
49.97,4.0,1.0,1.0,1.0
49.98,0.0,1.0,1.0,1.0
49.99,8.0,1.0,1.0,1.0
50.0,4.0,1.0,1.0,1.0
50.01,8.0,1.0,1.0,1.0
50.02,7.0,1.0,1.0,1.0
50.03,4.0,1.0,1.0,1.0
50.04,6.0,1.0,1.0,1.0
50.05,2.4944,1.0,1.0,1.0
50.06,3.5056,1.0,1.0,1.0
50.07,2.0,1.0,1.0,1.0
50.08,2.0,1.0,1.0,1.0
50.09,3.0,1.0,1.0,1.0
50.1,3.0,1.0,1.0,1.0
50.11,11.0,1.0,1.0,1.0
50.12,2.0,1.0,1.0,1.0
50.13,7.0,1.0,1.0,1.0
50.14,2.0,1.0,1.0,1.0
50.15,5.0,1.0,1.0,1.0
50.16,3.0,1.0,1.0,1.0
50.17,7.0,1.0,1.0,1.0
50.18,2.0,1.0,1.0,1.0
50.19,15.0,1.0,1.0,1.0
50.2,4.4944,1.0,1.0,1.0
50.21,6.5056,1.0,1.0,1.0
50.22,5.0,1.0,1.0,1.0
50.23,7.0,1.0,1.0,1.0
50.24,0.0,1.0,1.0,1.0
50.25,6.4944,1.0,1.0,1.0
50.26,7.5056,1.0,1.0,1.0
50.27,9.0,1.0,1.0,1.0
50.28,6.0,1.0,1.0,1.0
50.29,3.0,1.0,1.0,1.0
50.3,8.0,1.0,1.0,1.0
50.31,9.0,1.0,1.0,1.0
50.32,2.0,1.0,1.0,1.0
50.33,8.0,1.0,1.0,1.0
50.34,5.0,1.0,1.0,1.0
50.35,11.0,1.0,1.0,1.0
50.36,7.0,1.0,1.0,1.0
50.37,2.0,1.0,1.0,1.0
50.38,6.0,1.0,1.0,1.0
50.39,2.0,1.0,1.0,1.0
50.4,6.0,1.0,1.0,1.0
50.41,2.0,1.0,1.0,1.0
50.42,2.0,1.0,1.0,1.0
50.43,7.0,1.0,1.0,1.0
50.44,0.0,1.0,1.0,1.0
50.45,5.0,1.0,1.0,1.0
50.46,4.0,1.0,1.0,1.0
50.47,7.0,1.0,1.0,1.0
50.48,5.0,1.0,1.0,1.0
50.49,0.0,1.0,1.0,1.0
50.5,0.0,1.0,1.0,1.0
50.51,2.0,1.0,1.0,1.0
50.52,6.0,1.0,1.0,1.0
50.53,2.0,1.0,1.0,1.0
50.54,2.0,1.0,1.0,1.0
50.55,5.0,1.0,1.0,1.0
50.56,4.0,1.0,1.0,1.0
50.57,4.0,1.0,1.0,1.0
50.58,2.0,1.0,1.0,1.0
50.59,0.0,1.0,1.0,1.0
50.6,7.0,1.0,1.0,1.0
50.61,2.0,1.0,1.0,1.0
50.62,4.0,1.0,1.0,1.0
50.63,6.0,1.0,1.0,1.0
50.64,5.0,1.0,1.0,1.0
50.65,0.0,1.0,1.0,1.0
50.66,5.0,1.0,1.0,1.0
50.67,8.0,1.0,1.0,1.0
50.68,6.0,1.0,1.0,1.0
50.69,6.0,1.0,1.0,1.0
50.7,6.0,1.0,1.0,1.0
50.71,2.0,1.0,1.0,1.0
50.72,9.0,1.0,1.0,1.0
50.73,4.0,1.0,1.0,1.0
50.74,11.4944,1.0,1.0,1.0
50.75,7.0,1.0,1.0,1.0
50.76,4.5056,1.0,1.0,1.0
50.77,0.0,1.0,1.0,1.0
50.78,7.0,1.0,1.0,1.0
50.79,11.0,1.0,1.0,1.0
50.8,2.4944,1.0,1.0,1.0
50.81,0.5056,1.0,1.0,1.0
50.82,9.4944,1.0,1.0,1.0
50.83,6.4944,1.0,1.0,1.0
50.84,1.0111,1.0,1.0,1.0
50.85,4.0,1.0,1.0,1.0
50.86,4.0,1.0,1.0,1.0
50.87,7.0,1.0,1.0,1.0
50.88,5.0,1.0,1.0,1.0
50.89,4.0,1.0,1.0,1.0
50.9,5.0,1.0,1.0,1.0
50.91,2.0,1.0,1.0,1.0
50.92,0.0,1.0,1.0,1.0
50.93,3.0,1.0,1.0,1.0
50.94,2.0,1.0,1.0,1.0
50.95,5.0,1.0,1.0,1.0
50.96,6.0,1.0,1.0,1.0
50.97,2.0,1.0,1.0,1.0
50.98,2.0,1.0,1.0,1.0
50.99,2.0,1.0,1.0,1.0
51.0,5.0,1.0,1.0,1.0
51.01,0.0,1.0,1.0,1.0
51.02,4.0,1.0,1.0,1.0
51.03,2.0,1.0,1.0,1.0
51.04,0.0,1.0,1.0,1.0
51.05,6.4944,1.0,1.0,1.0
51.06,5.5056,1.0,1.0,1.0
51.07,0.0,1.0,1.0,1.0
51.08,2.0,1.0,1.0,1.0
51.09,7.0,1.0,1.0,1.0
51.1,2.0,1.0,1.0,1.0
51.11,4.0,1.0,1.0,1.0
51.12,4.0,1.0,1.0,1.0
51.13,5.0,1.0,1.0,1.0
51.14,1.0,1.0,1.0,1.0
51.15,2.4944,1.0,1.0,1.0
51.16,4.5056,1.0,1.0,1.0
51.17,5.0,1.0,1.0,1.0
51.18,2.0,1.0,1.0,1.0
51.19,0.0,1.0,1.0,1.0
51.2,6.0,1.0,1.0,1.0
51.21,5.0,1.0,1.0,1.0
51.22,9.0,1.0,1.0,1.0
51.23,2.0,1.0,1.0,1.0
51.24,2.0,1.0,1.0,1.0
51.25,5.0,1.0,1.0,1.0
51.26,5.0,1.0,1.0,1.0
51.27,2.0,1.0,1.0,1.0
51.28,7.0,1.0,1.0,1.0
51.29,2.0,1.0,1.0,1.0
51.3,4.0,1.0,1.0,1.0
51.31,8.0,1.0,1.0,1.0
51.32,0.0,1.0,1.0,1.0
51.33,5.0,1.0,1.0,1.0
51.34,7.0,1.0,1.0,1.0
51.35,2.0,1.0,1.0,1.0
51.36,5.0,1.0,1.0,1.0
51.37,4.0,1.0,1.0,1.0
51.38,0.0,1.0,1.0,1.0
51.39,5.4944,1.0,1.0,1.0
51.4,2.5056,1.0,1.0,1.0
51.41,0.0,1.0,1.0,1.0
51.42,0.0,1.0,1.0,1.0
51.43,3.4944,1.0,1.0,1.0
51.44,1.5056,1.0,1.0,1.0
51.45,0.0,1.0,1.0,1.0
51.46,4.0,1.0,1.0,1.0
51.47,6.0,1.0,1.0,1.0
51.48,2.0,1.0,1.0,1.0
51.49,5.0,1.0,1.0,1.0
51.5,0.0,1.0,1.0,1.0
51.51,0.0,1.0,1.0,1.0
51.52,0.0,1.0,1.0,1.0
51.53,3.0,1.0,1.0,1.0
51.54,0.0,1.0,1.0,1.0
51.55,2.0,1.0,1.0,1.0
51.56,3.0,1.0,1.0,1.0
51.57,3.0,1.0,1.0,1.0
51.58,0.0,1.0,1.0,1.0
51.59,6.0,1.0,1.0,1.0
51.6,5.0,1.0,1.0,1.0
51.61,1.4944,1.0,1.0,1.0
51.62,5.5056,1.0,1.0,1.0
51.63,2.0,1.0,1.0,1.0
51.64,2.0,1.0,1.0,1.0
51.65,6.0,1.0,1.0,1.0
51.66,3.0,1.0,1.0,1.0
51.67,6.0,1.0,1.0,1.0
51.68,2.0,1.0,1.0,1.0
51.69,6.0,1.0,1.0,1.0
51.7,6.0,1.0,1.0,1.0
51.71,2.0,1.0,1.0,1.0
51.72,4.0,1.0,1.0,1.0
51.73,0.0,1.0,1.0,1.0
51.74,6.0,1.0,1.0,1.0
51.75,1.0,1.0,1.0,1.0
51.76,5.0,1.0,1.0,1.0
51.77,4.0,1.0,1.0,1.0
51.78,7.0,1.0,1.0,1.0
51.79,4.0,1.0,1.0,1.0
51.8,0.0,1.0,1.0,1.0
51.81,9.0,1.0,1.0,1.0
51.82,3.0,1.0,1.0,1.0
51.83,4.0,1.0,1.0,1.0
51.84,7.0,1.0,1.0,1.0
51.85,0.0,1.0,1.0,1.0
51.86,2.0,1.0,1.0,1.0
51.87,2.0,1.0,1.0,1.0
51.88,0.4944,1.0,1.0,1.0
51.89,5.5056,1.0,1.0,1.0
51.9,10.0,1.0,1.0,1.0
51.91,2.0,1.0,1.0,1.0
51.92,0.0,1.0,1.0,1.0
51.93,5.0,1.0,1.0,1.0
51.94,2.0,1.0,1.0,1.0
51.95,0.0,1.0,1.0,1.0
51.96,0.0,1.0,1.0,1.0
51.97,2.0,1.0,1.0,1.0
51.98,3.0,1.0,1.0,1.0
51.99,9.0,1.0,1.0,1.0
52.0,0.0,1.0,1.0,1.0
0.4,205804,1.0,1.0,1.0
0.41,239192,1.0,1.0,1.0
0.42,271346,1.0,1.0,1.0
0.43,305801,1.0,1.0,1.0
0.44,339121,1.0,1.0,1.0
0.45,375798,1.0,1.0,1.0
0.46,413264,1.0,1.0,1.0
0.47,447764,1.0,1.0,1.0
0.48,480639,1.0,1.0,1.0
0.49,508042,1.0,1.0,1.0
0.5,534615.5,1.0,1.0,1.0
0.51,556911.5,1.0,1.0,1.0
0.52,575875.5,1.0,1.0,1.0
0.53,587910.0,1.0,1.0,1.0
0.54,595405.5,1.0,1.0,1.0
0.55,597502.5,1.0,1.0,1.0
0.56,595979.5,1.0,1.0,1.0
0.57,590527.5,1.0,1.0,1.0
0.58,584058.0,1.0,1.0,1.0
0.59,573758.5,1.0,1.0,1.0
0.6,562665.5,1.0,1.0,1.0
0.61,543178.5,1.0,1.0,1.0
0.62,523052,1.0,1.0,1.0
0.63,501375,1.0,1.0,1.0
0.64,477718,1.0,1.0,1.0
0.65,452071,1.0,1.0,1.0
0.66,424831,1.0,1.0,1.0
0.67,396026,1.0,1.0,1.0
0.68,366468,1.0,1.0,1.0
0.69,337287,1.0,1.0,1.0
0.7,311451,1.0,1.0,1.0
0.71,285543,1.0,1.0,1.0
0.72,260873,1.0,1.0,1.0
0.73,235498,1.0,1.0,1.0
0.74,213669,1.0,1.0,1.0
0.75,192004,1.0,1.0,1.0
0.76,172811,1.0,1.0,1.0
0.77,154670,1.0,1.0,1.0
0.78,138650,1.0,1.0,1.0
0.79,122431,1.0,1.0,1.0
0.8,108027,1.0,1.0,1.0
0.81,95208.5,1.0,1.0,1.0
0.82,84047,1.0,1.0,1.0
0.83,73519,1.0,1.0,1.0
0.84,63786,1.0,1.0,1.0
0.85,55953.5,1.0,1.0,1.0
0.86,48833,1.0,1.0,1.0
0.87,42709.5,1.0,1.0,1.0
0.88,36823,1.0,1.0,1.0
0.89,32426.5,1.0,1.0,1.0
0.9,28588,1.0,1.0,1.0
0.91,25315.5,1.0,1.0,1.0
0.92,22191.502,1.0,1.0,1.0
0.93,20039.5,1.0,1.0,1.0
0.94,18428.0,1.0,1.0,1.0
0.95,16828.502,1.0,1.0,1.0
0.96,15443.499,1.0,1.0,1.0
0.97,14589.501,1.0,1.0,1.0
0.98,13988.5,1.0,1.0,1.0
0.99,13269.501,1.0,1.0,1.0
1.0,12934.001,1.0,1.0,1.0
1.01,12624.0,1.0,1.0,1.0
1.02,12576.501,1.0,1.0,1.0
1.03,12345.499,1.0,1.0,1.0
1.04,12163.499,1.0,1.0,1.0
1.05,12341,1.0,1.0,1.0
1.06,12070.999,1.0,1.0,1.0
1.07,11983.998,1.0,1.0,1.0
1.08,12059.502,1.0,1.0,1.0
1.09,11868.5,1.0,1.0,1.0
1.1,11697.5,1.0,1.0,1.0
1.11,11715.499,1.0,1.0,1.0
1.12,11757.501,1.0,1.0,1.0
1.13,11701.0,1.0,1.0,1.0
1.14,11468.0,1.0,1.0,1.0
1.15,11766.499,1.0,1.0,1.0
1.16,11242,1.0,1.0,1.0
1.17,11239.0,1.0,1.0,1.0
1.18,10860.999,1.0,1.0,1.0
1.19,10770.001,1.0,1.0,1.0
1.2,10790.999,1.0,1.0,1.0
1.21,10533.0,1.0,1.0,1.0
1.22,10318.5,1.0,1.0,1.0
1.23,10194.001,1.0,1.0,1.0
1.24,9912.502,1.0,1.0,1.0
1.25,9824.499,1.0,1.0,1.0
1.26,9521.001,1.0,1.0,1.0
1.27,9181.0,1.0,1.0,1.0
1.28,9123.498,1.0,1.0,1.0
1.29,9136.001,1.0,1.0,1.0
1.3,8572.001,1.0,1.0,1.0
1.31,8507.002,1.0,1.0,1.0
1.32,8370.999,1.0,1.0,1.0
1.33,7958.5,1.0,1.0,1.0
1.34,7880,1.0,1.0,1.0
1.35,7555,1.0,1.0,1.0
1.36,7520,1.0,1.0,1.0
1.37,7201,1.0,1.0,1.0
1.38,7182.0,1.0,1.0,1.0
1.39,6702.501,1.0,1.0,1.0
1.4,6329.0,1.0,1.0,1.0
1.41,6272,1.0,1.0,1.0
1.42,6096.5,1.0,1.0,1.0
1.43,5849.0,1.0,1.0,1.0
1.44,5554,1.0,1.0,1.0
1.45,5509.501,1.0,1.0,1.0
1.46,5164.0,1.0,1.0,1.0
1.47,4995,1.0,1.0,1.0
1.48,4754.001,1.0,1.0,1.0
1.49,4658,1.0,1.0,1.0
1.5,4386.5,1.0,1.0,1.0
1.51,4264.501,1.0,1.0,1.0
1.52,4133.5,1.0,1.0,1.0
1.53,3894.5,1.0,1.0,1.0
1.54,3695,1.0,1.0,1.0
1.55,3549,1.0,1.0,1.0
1.56,3407.5,1.0,1.0,1.0
1.57,3338,1.0,1.0,1.0
1.58,3183.001,1.0,1.0,1.0
1.59,2964,1.0,1.0,1.0
1.6,2910.5,1.0,1.0,1.0
1.61,2772.5,1.0,1.0,1.0
1.62,2641.5,1.0,1.0,1.0
1.63,2514,1.0,1.0,1.0
1.64,2467.5,1.0,1.0,1.0
1.65,2337.5,1.0,1.0,1.0
1.66,2168.5,1.0,1.0,1.0
1.67,2103,1.0,1.0,1.0
1.68,2056.0,1.0,1.0,1.0
1.69,1924,1.0,1.0,1.0
1.7,1836.5,1.0,1.0,1.0
1.71,1738,1.0,1.0,1.0
1.72,1691.5,1.0,1.0,1.0
1.73,1645,1.0,1.0,1.0
1.74,1576.5,1.0,1.0,1.0
1.75,1550,1.0,1.0,1.0
1.76,1436,1.0,1.0,1.0
1.77,1384.5,1.0,1.0,1.0
1.78,1334.5,1.0,1.0,1.0
1.79,1341,1.0,1.0,1.0
1.8,1256.5,1.0,1.0,1.0
1.81,1254.499,1.0,1.0,1.0
1.82,1195,1.0,1.0,1.0
1.83,1232,1.0,1.0,1.0
1.84,1184.5,1.0,1.0,1.0
1.85,1209,1.0,1.0,1.0
1.86,1177.5,1.0,1.0,1.0
1.87,1078.5,1.0,1.0,1.0
1.88,1127,1.0,1.0,1.0
1.89,1095,1.0,1.0,1.0
1.9,1042.5,1.0,1.0,1.0
1.91,1100.5,1.0,1.0,1.0
1.92,1063.5,1.0,1.0,1.0
1.93,1083,1.0,1.0,1.0
1.94,1046.5,1.0,1.0,1.0
1.95,1065,1.0,1.0,1.0
1.96,1016.0,1.0,1.0,1.0
1.97,1080.5,1.0,1.0,1.0
1.98,1048.5,1.0,1.0,1.0
1.99,997.5002,1.0,1.0,1.0
2.0,1032,1.0,1.0,1.0
2.01,1143,1.0,1.0,1.0
2.02,1089.5,1.0,1.0,1.0
2.03,1078,1.0,1.0,1.0
2.04,1117.5,1.0,1.0,1.0
2.05,1116,1.0,1.0,1.0
2.06,1061.5,1.0,1.0,1.0
2.07,1097.5,1.0,1.0,1.0
2.08,1113.0,1.0,1.0,1.0
2.09,1102.5,1.0,1.0,1.0
2.1,1093,1.0,1.0,1.0
2.11,1091.5,1.0,1.0,1.0
2.12,1150,1.0,1.0,1.0
2.13,1150.5,1.0,1.0,1.0
2.14,1155,1.0,1.0,1.0
2.15,1161,1.0,1.0,1.0
2.16,1140.5,1.0,1.0,1.0
2.17,1148,1.0,1.0,1.0
2.18,1074.5,1.0,1.0,1.0
2.19,1197.5,1.0,1.0,1.0
2.2,1117.5,1.0,1.0,1.0
2.21,1198.5,1.0,1.0,1.0
2.22,1153.5,1.0,1.0,1.0
2.23,1081,1.0,1.0,1.0
2.24,1130,1.0,1.0,1.0
2.25,1073.5,1.0,1.0,1.0
2.26,1143.0,1.0,1.0,1.0
2.27,1184,1.0,1.0,1.0
2.28,1141,1.0,1.0,1.0
2.29,1087,1.0,1.0,1.0
2.3,1138,1.0,1.0,1.0
2.31,1036.5,1.0,1.0,1.0
2.32,1088,1.0,1.0,1.0
2.33,1067,1.0,1.0,1.0
2.34,1036.5,1.0,1.0,1.0
2.35,1049.5,1.0,1.0,1.0
2.36,1064,1.0,1.0,1.0
2.37,1058,1.0,1.0,1.0
2.38,962.9993,1.0,1.0,1.0
2.39,1019,1.0,1.0,1.0
2.4,994.5002,1.0,1.0,1.0
2.41,983.5002,1.0,1.0,1.0
2.42,958.0,1.0,1.0,1.0
2.43,899.0001,1.0,1.0,1.0
2.44,929.5001,1.0,1.0,1.0
2.45,900.5004,1.0,1.0,1.0
2.46,904.4993,1.0,1.0,1.0
2.47,901.5002,1.0,1.0,1.0
2.48,889.4999,1.0,1.0,1.0
2.49,908.4998,1.0,1.0,1.0
2.5,862.5004,1.0,1.0,1.0
2.51,840.9998,1.0,1.0,1.0
2.52,771.0003,1.0,1.0,1.0
2.53,785.0001,1.0,1.0,1.0
2.54,748.9997,1.0,1.0,1.0
2.55,782.0001,1.0,1.0,1.0
2.56,785.9995,1.0,1.0,1.0
2.57,751.5007,1.0,1.0,1.0
2.58,729.4998,1.0,1.0,1.0
2.59,724.4998,1.0,1.0,1.0
2.6,674.5002,1.0,1.0,1.0
2.61,729.5001,1.0,1.0,1.0
2.62,570.5001,1.0,1.0,1.0
2.63,671.4998,1.0,1.0,1.0
2.64,599.0003,1.0,1.0,1.0
2.65,576.4998,1.0,1.0,1.0
2.66,614.0001,1.0,1.0,1.0
2.67,586.5002,1.0,1.0,1.0
2.68,536.5002,1.0,1.0,1.0
2.69,531.4999,1.0,1.0,1.0
2.7,537.9998,1.0,1.0,1.0
2.71,533.5002,1.0,1.0,1.0
2.72,495.5003,1.0,1.0,1.0
2.73,499.9994,1.0,1.0,1.0
2.74,407.5003,1.0,1.0,1.0
2.75,443.0,1.0,1.0,1.0
2.76,422.0002,1.0,1.0,1.0
2.77,447.9997,1.0,1.0,1.0
2.78,395.4999,1.0,1.0,1.0
2.79,415.0003,1.0,1.0,1.0
2.8,447.0,1.0,1.0,1.0
2.81,383.9997,1.0,1.0,1.0
2.82,418.0003,1.0,1.0,1.0
2.83,380.4998,1.0,1.0,1.0
2.84,414.0001,1.0,1.0,1.0
2.85,388.0002,1.0,1.0,1.0
2.86,356.4999,1.0,1.0,1.0
2.87,347.9998,1.0,1.0,1.0
2.88,347.5002,1.0,1.0,1.0
2.89,310.0,1.0,1.0,1.0
2.9,371.0002,1.0,1.0,1.0
2.91,324.9999,1.0,1.0,1.0
2.92,346.4998,1.0,1.0,1.0
2.93,328.0003,1.0,1.0,1.0
2.94,334.4996,1.0,1.0,1.0
2.95,344.5002,1.0,1.0,1.0
2.96,330.5002,1.0,1.0,1.0
2.97,373.4995,1.0,1.0,1.0
2.98,304.0003,1.0,1.0,1.0
2.99,325.0,1.0,1.0,1.0
3.0,342.5002,1.0,1.0,1.0
3.01,335.0,1.0,1.0,1.0
3.02,311.9999,1.0,1.0,1.0
3.03,340.0001,1.0,1.0,1.0
3.04,329.4997,1.0,1.0,1.0
3.05,334.5004,1.0,1.0,1.0
3.06,330.9997,1.0,1.0,1.0
3.07,364.0001,1.0,1.0,1.0
3.08,341.4997,1.0,1.0,1.0
3.09,320.9999,1.0,1.0,1.0
3.1,332.0002,1.0,1.0,1.0
3.11,343.0001,1.0,1.0,1.0
3.12,328.5001,1.0,1.0,1.0
3.13,331.5001,1.0,1.0,1.0
3.14,394.5001,1.0,1.0,1.0
3.15,330.9998,1.0,1.0,1.0
3.16,319.0,1.0,1.0,1.0
3.17,325.0002,1.0,1.0,1.0
3.18,368.9999,1.0,1.0,1.0
3.19,361.0001,1.0,1.0,1.0
3.2,308.4997,1.0,1.0,1.0
3.21,353.5002,1.0,1.0,1.0
3.22,351.9998,1.0,1.0,1.0
3.23,393.9999,1.0,1.0,1.0
3.24,364.0002,1.0,1.0,1.0
3.25,372.0002,1.0,1.0,1.0
3.26,351.9999,1.0,1.0,1.0
3.27,387.9999,1.0,1.0,1.0
3.28,361.4998,1.0,1.0,1.0
3.29,398.5001,1.0,1.0,1.0
3.3,380.5002,1.0,1.0,1.0
3.31,394.4998,1.0,1.0,1.0
3.32,343.0003,1.0,1.0,1.0
3.33,350.5001,1.0,1.0,1.0
3.34,312.4999,1.0,1.0,1.0
3.35,358.4994,1.0,1.0,1.0
3.36,359.0005,1.0,1.0,1.0
3.37,379.4998,1.0,1.0,1.0
3.38,367.5002,1.0,1.0,1.0
3.39,371.4997,1.0,1.0,1.0
3.4,374.5001,1.0,1.0,1.0
3.41,340.0,1.0,1.0,1.0
3.42,380.0,1.0,1.0,1.0
3.43,380.5003,1.0,1.0,1.0
3.44,361.4995,1.0,1.0,1.0
3.45,342.5002,1.0,1.0,1.0
3.46,374.9999,1.0,1.0,1.0
3.47,362.5002,1.0,1.0,1.0
3.48,332.5002,1.0,1.0,1.0
3.49,350.4999,1.0,1.0,1.0
3.5,350.5001,1.0,1.0,1.0
3.51,341.0,1.0,1.0,1.0
3.52,360.4998,1.0,1.0,1.0
3.53,371.0001,1.0,1.0,1.0
3.54,369.4999,1.0,1.0,1.0
3.55,371.4998,1.0,1.0,1.0
3.56,347.0001,1.0,1.0,1.0
3.57,348.9996,1.0,1.0,1.0
3.58,343.0005,1.0,1.0,1.0
3.59,376.9999,1.0,1.0,1.0
3.6,373.0001,1.0,1.0,1.0
3.61,369.5001,1.0,1.0,1.0
3.62,331.0,1.0,1.0,1.0
3.63,358.9998,1.0,1.0,1.0
3.64,347.5001,1.0,1.0,1.0
3.65,358.5001,1.0,1.0,1.0
3.66,311.4999,1.0,1.0,1.0
3.67,320.0001,1.0,1.0,1.0
3.68,368.4998,1.0,1.0,1.0
3.69,296.0002,1.0,1.0,1.0
3.7,321.9999,1.0,1.0,1.0
3.71,321.0,1.0,1.0,1.0
3.72,300.4998,1.0,1.0,1.0
3.73,326.0001,1.0,1.0,1.0
3.74,340.0001,1.0,1.0,1.0
3.75,320.4996,1.0,1.0,1.0
3.76,316.0003,1.0,1.0,1.0
3.77,332.0,1.0,1.0,1.0
3.78,327.5001,1.0,1.0,1.0
3.79,281.0001,1.0,1.0,1.0
3.8,335.9997,1.0,1.0,1.0
3.81,286.0002,1.0,1.0,1.0
3.82,308.9999,1.0,1.0,1.0
3.83,318.5001,1.0,1.0,1.0
3.84,307.5002,1.0,1.0,1.0
3.85,263.9998,1.0,1.0,1.0
3.86,322.5002,1.0,1.0,1.0
3.87,290.0,1.0,1.0,1.0
3.88,291.4999,1.0,1.0,1.0
3.89,309.5002,1.0,1.0,1.0
3.9,299.0,1.0,1.0,1.0
3.91,305.9999,1.0,1.0,1.0
3.92,280.4998,1.0,1.0,1.0
3.93,251.0004,1.0,1.0,1.0
3.94,279.4997,1.0,1.0,1.0
3.95,297.9998,1.0,1.0,1.0
3.96,298.5003,1.0,1.0,1.0
3.97,276.4999,1.0,1.0,1.0
3.98,284.4999,1.0,1.0,1.0
3.99,298.4998,1.0,1.0,1.0
4.0,303.0002,1.0,1.0,1.0
4.01,281.5003,1.0,1.0,1.0
4.02,250.4997,1.0,1.0,1.0
4.03,274.0,1.0,1.0,1.0
4.04,267.4998,1.0,1.0,1.0
4.05,318.4999,1.0,1.0,1.0
4.06,302.5001,1.0,1.0,1.0
4.07,310.5003,1.0,1.0,1.0
4.08,259.4998,1.0,1.0,1.0
4.09,277.5001,1.0,1.0,1.0
4.1,267.9997,1.0,1.0,1.0
4.11,291.9999,1.0,1.0,1.0
4.12,241.5006,1.0,1.0,1.0
4.13,240.9999,1.0,1.0,1.0
4.14,276.0,1.0,1.0,1.0
4.15,278.4998,1.0,1.0,1.0
4.16,297.0,1.0,1.0,1.0
4.17,296.0002,1.0,1.0,1.0
4.18,284.4998,1.0,1.0,1.0
4.19,284.5003,1.0,1.0,1.0
4.2,256.4995,1.0,1.0,1.0
4.21,288.0001,1.0,1.0,1.0
4.22,289.5003,1.0,1.0,1.0
4.23,309.4999,1.0,1.0,1.0
4.24,273.4999,1.0,1.0,1.0
4.25,305.4997,1.0,1.0,1.0
4.26,258.0003,1.0,1.0,1.0
4.27,276.0001,1.0,1.0,1.0
4.28,255.4997,1.0,1.0,1.0
4.29,280.5001,1.0,1.0,1.0
4.3,294.5001,1.0,1.0,1.0
4.31,278.9999,1.0,1.0,1.0
4.32,302.0002,1.0,1.0,1.0
4.33,313.4999,1.0,1.0,1.0
4.34,279.0,1.0,1.0,1.0
4.35,235.0001,1.0,1.0,1.0
4.36,273.9999,1.0,1.0,1.0
4.37,311.5002,1.0,1.0,1.0
4.38,266.4997,1.0,1.0,1.0
4.39,293.9999,1.0,1.0,1.0
4.4,347.5002,1.0,1.0,1.0
4.41,294.4999,1.0,1.0,1.0
4.42,278.0001,1.0,1.0,1.0
4.43,271.4997,1.0,1.0,1.0
4.44,307.0,1.0,1.0,1.0
4.45,287.5003,1.0,1.0,1.0
4.46,304.5001,1.0,1.0,1.0
4.47,243.4997,1.0,1.0,1.0
4.48,286.0,1.0,1.0,1.0
4.49,284.5001,1.0,1.0,1.0
4.5,307.5002,1.0,1.0,1.0