File: XRD:XRR/RIXS 214/M12/M12c_L2NON_220_XRD.csv
#twotheta, yobs, ycal, bkg, diff
42.0,2602.96,1.0,1.0,1.0
42.01,2713.54,1.0,1.0,1.0
42.02,2933.39,1.0,1.0,1.0
42.03,3151.01,1.0,1.0,1.0
42.04,3330.58,1.0,1.0,1.0
42.05,3529.42,1.0,1.0,1.0
42.06,3727.96,1.0,1.0,1.0
42.07,3900.48,1.0,1.0,1.0
42.08,4109.439,1.0,1.0,1.0
42.09,4334.54,1.0,1.0,1.0
42.1,4467.42,1.0,1.0,1.0
42.11,4808.99,1.0,1.0,1.0
42.12,4889.54,1.0,1.0,1.0
42.13,5385.88,1.0,1.0,1.0
42.14,5336.51,1.0,1.0,1.0
42.15,5788.02,1.0,1.0,1.0
42.16,5927.99,1.0,1.0,1.0
42.17,6142.74,1.0,1.0,1.0
42.18,6480.11,1.0,1.0,1.0
42.19,6729.02,1.0,1.0,1.0
42.2,7078.52,1.0,1.0,1.0
42.21,7193.88,1.0,1.0,1.0
42.22,7417.11,1.0,1.0,1.0
42.23,7885.35,1.0,1.0,1.0
42.24,7987.45,1.0,1.0,1.0
42.25,8249.07,1.0,1.0,1.0
42.26,8452.833,1.0,1.0,1.0
42.27,8750.59,1.0,1.0,1.0
42.28,9033.9,1.0,1.0,1.0
42.29,9243.49,1.0,1.0,1.0
42.3,9692.93,1.0,1.0,1.0
42.31,9577.57,1.0,1.0,1.0
42.32,10045.3,1.0,1.0,1.0
42.33,10079.7,1.0,1.0,1.0
42.34,10532.5,1.0,1.0,1.0
42.35,10872.9,1.0,1.0,1.0
42.36,11021.4,1.0,1.0,1.0
42.37,11196.4,1.0,1.0,1.0
42.38,11318.6,1.0,1.0,1.0
42.39,11514.417,1.0,1.0,1.0
42.4,11775.7,1.0,1.0,1.0
42.41,12286.3,1.0,1.0,1.0
42.42,12349.7,1.0,1.0,1.0
42.43,12348.8,1.0,1.0,1.0
42.44,12604,1.0,1.0,1.0
42.45,12743.6,1.0,1.0,1.0
42.46,12737.5,1.0,1.0,1.0
42.47,13175.5,1.0,1.0,1.0
42.48,13263.583,1.0,1.0,1.0
42.49,13415,1.0,1.0,1.0
42.5,13507.8,1.0,1.0,1.0
42.51,13422.5,1.0,1.0,1.0
42.52,13531.7,1.0,1.0,1.0
42.53,13953.3,1.0,1.0,1.0
42.54,13782.6,1.0,1.0,1.0
42.55,13827.3,1.0,1.0,1.0
42.56,13961.6,1.0,1.0,1.0
42.57,13838.1,1.0,1.0,1.0
42.58,13952.4,1.0,1.0,1.0
42.59,14124.6,1.0,1.0,1.0
42.6,14207.5,1.0,1.0,1.0
42.61,14122.9,1.0,1.0,1.0
42.62,14164.6,1.0,1.0,1.0
42.63,13907.4,1.0,1.0,1.0
42.64,14077.6,1.0,1.0,1.0
42.65,13747.1,1.0,1.0,1.0
42.66,13992.9,1.0,1.0,1.0
42.67,13859.1,1.0,1.0,1.0
42.68,13717.6,1.0,1.0,1.0
42.69,13681.3,1.0,1.0,1.0
42.7,13576.6,1.0,1.0,1.0
42.71,13373.9,1.0,1.0,1.0
42.72,13481,1.0,1.0,1.0
42.73,13223.5,1.0,1.0,1.0
42.74,13185.6,1.0,1.0,1.0
42.75,12846.6,1.0,1.0,1.0
42.76,12757.9,1.0,1.0,1.0
42.77,12698.6,1.0,1.0,1.0
42.78,12545.4,1.0,1.0,1.0
42.79,12235.6,1.0,1.0,1.0
42.8,12156.1,1.0,1.0,1.0
42.81,11860.3,1.0,1.0,1.0
42.82,11501.7,1.0,1.0,1.0
42.83,11569.5,1.0,1.0,1.0
42.84,11342.1,1.0,1.0,1.0
42.85,10957.5,1.0,1.0,1.0
42.86,10803,1.0,1.0,1.0
42.87,10450.4,1.0,1.0,1.0
42.88,10342.6,1.0,1.0,1.0
42.89,9962.52,1.0,1.0,1.0
42.9,9931.1,1.0,1.0,1.0
42.91,9452.38,1.0,1.0,1.0
42.92,9291.03,1.0,1.0,1.0
42.93,9010.07,1.0,1.0,1.0
42.94,8776.1,1.0,1.0,1.0
42.95,8509.91,1.0,1.0,1.0
42.96,8406.62,1.0,1.0,1.0
42.97,7945.58,1.0,1.0,1.0
42.98,7827.978,1.0,1.0,1.0
42.99,7588.022,1.0,1.0,1.0
43.0,7226.49,1.0,1.0,1.0
43.01,7181.03,1.0,1.0,1.0
43.02,6819.98,1.0,1.0,1.0
43.03,6623.48,1.0,1.0,1.0
43.04,6219.65,1.0,1.0,1.0
43.05,6007.34,1.0,1.0,1.0
43.06,5762.59,1.0,1.0,1.0
43.07,5501.59,1.0,1.0,1.0
43.08,5255.96,1.0,1.0,1.0
43.09,4949.04,1.0,1.0,1.0
43.1,4881.08,1.0,1.0,1.0
43.11,4562.55,1.0,1.0,1.0
43.12,4352.98,1.0,1.0,1.0
43.13,4133.55,1.0,1.0,1.0
43.14,3872.46,1.0,1.0,1.0
43.15,3705.61,1.0,1.0,1.0
43.16,3532.38,1.0,1.0,1.0
43.17,3290.21,1.0,1.0,1.0
43.18,3120.57,1.0,1.0,1.0
43.19,2853.94,1.0,1.0,1.0
43.2,2808.02,1.0,1.0,1.0
43.21,2607.99,1.0,1.0,1.0
43.22,2435.11,1.0,1.0,1.0
43.23,2260.42,1.0,1.0,1.0
43.24,2064.0,1.0,1.0,1.0
43.25,1930.51,1.0,1.0,1.0
43.26,1737.04,1.0,1.0,1.0
43.27,1766.02,1.0,1.0,1.0
43.28,1452.52,1.0,1.0,1.0
43.29,1396.53,1.0,1.0,1.0
43.3,1312.98,1.0,1.0,1.0
43.31,1118.06,1.0,1.0,1.0
43.32,1081.47,1.0,1.0,1.0
43.33,1001.48,1.0,1.0,1.0
43.34,889.0555,1.0,1.0,1.0
43.35,752.4611,1.0,1.0,1.0
43.36,794.5278,1.0,1.0,1.0
43.37,753.5167,1.0,1.0,1.0
43.38,605.4833,1.0,1.0,1.0
43.39,628.9889,1.0,1.0,1.0
43.4,569.0667,1.0,1.0,1.0
43.41,482.4722,1.0,1.0,1.0
43.42,465.5389,1.0,1.0,1.0
43.43,376.5056,1.0,1.0,1.0
43.44,362.9778,1.0,1.0,1.0
43.45,374.0222,1.0,1.0,1.0
43.46,329.4944,1.0,1.0,1.0
43.47,333.4722,1.0,1.0,1.0
43.48,338.5278,1.0,1.0,1.0
43.49,316.5056,1.0,1.0,1.0
43.5,294.4833,1.0,1.0,1.0
43.51,304.0222,1.0,1.0,1.0
43.52,314.9667,1.0,1.0,1.0
43.53,321.0,1.0,1.0,1.0
43.54,373.0222,1.0,1.0,1.0
43.55,348.9778,1.0,1.0,1.0
43.56,405.5056,1.0,1.0,1.0
43.57,404.9667,1.0,1.0,1.0
43.58,423.0111,1.0,1.0,1.0
43.59,477.5167,1.0,1.0,1.0
43.6,404.5167,1.0,1.0,1.0
43.61,460.9778,1.0,1.0,1.0
43.62,482.9889,1.0,1.0,1.0
43.63,537.5167,1.0,1.0,1.0
43.64,514.0,1.0,1.0,1.0
43.65,572.9667,1.0,1.0,1.0
43.66,593.5278,1.0,1.0,1.0
43.67,589.0,1.0,1.0,1.0
43.68,596.9667,1.0,1.0,1.0
43.69,650.4722,1.0,1.0,1.0
43.7,628.9889,1.0,1.0,1.0
43.71,717.0333,1.0,1.0,1.0
43.72,704.4944,1.0,1.0,1.0
43.73,742.0,1.0,1.0,1.0
43.74,749.0,1.0,1.0,1.0
43.75,756.0111,1.0,1.0,1.0
43.76,786.0333,1.0,1.0,1.0
43.77,804.9889,1.0,1.0,1.0
43.78,826.4722,1.0,1.0,1.0
43.79,794.4833,1.0,1.0,1.0
43.8,826.5278,1.0,1.0,1.0
43.81,880.4722,1.0,1.0,1.0
43.82,832.9778,1.0,1.0,1.0
43.83,861.5389,1.0,1.0,1.0
43.84,848.0,1.0,1.0,1.0
43.85,845.4833,1.0,1.0,1.0
43.86,861.9667,1.0,1.0,1.0
43.87,865.0444,1.0,1.0,1.0
43.88,875.0,1.0,1.0,1.0
43.89,876.9445,1.0,1.0,1.0
43.9,812.6055,1.0,1.0,1.0
43.91,832.4278,1.0,1.0,1.0
43.92,837.5278,1.0,1.0,1.0
43.93,800.0444,1.0,1.0,1.0
43.94,801.9333,1.0,1.0,1.0
43.95,781.0222,1.0,1.0,1.0
43.96,768.5056,1.0,1.0,1.0
43.97,775.0,1.0,1.0,1.0
43.98,749.4833,1.0,1.0,1.0
43.99,743.0,1.0,1.0,1.0
44.0,716.5278,1.0,1.0,1.0
44.01,683.5056,1.0,1.0,1.0
44.02,735.4944,1.0,1.0,1.0
44.03,634.4722,1.0,1.0,1.0
44.04,635.5278,1.0,1.0,1.0
44.05,592.9667,1.0,1.0,1.0
44.06,575.0444,1.0,1.0,1.0
44.07,571.0222,1.0,1.0,1.0
44.08,566.9556,1.0,1.0,1.0
44.09,550.0444,1.0,1.0,1.0
44.1,510.9778,1.0,1.0,1.0
44.11,503.9667,1.0,1.0,1.0
44.12,505.55,1.0,1.0,1.0
44.13,466.4944,1.0,1.0,1.0
44.14,458.0111,1.0,1.0,1.0
44.15,483.4944,1.0,1.0,1.0
44.16,421.0,1.0,1.0,1.0
44.17,386.5056,1.0,1.0,1.0
44.18,409.9778,1.0,1.0,1.0
44.19,376.5167,1.0,1.0,1.0
44.2,346.5278,1.0,1.0,1.0
44.21,298.5056,1.0,1.0,1.0
44.22,363.9556,1.0,1.0,1.0
44.23,284.0222,1.0,1.0,1.0
44.24,293.5056,1.0,1.0,1.0
44.25,341.9889,1.0,1.0,1.0
44.26,247.0,1.0,1.0,1.0
44.27,276.5167,1.0,1.0,1.0
44.28,279.4833,1.0,1.0,1.0
44.29,244.0333,1.0,1.0,1.0
44.3,239.45,1.0,1.0,1.0
44.31,292.0444,1.0,1.0,1.0
44.32,254.4833,1.0,1.0,1.0
44.33,259.0111,1.0,1.0,1.0
44.34,259.0111,1.0,1.0,1.0
44.35,242.4833,1.0,1.0,1.0
44.36,220.4944,1.0,1.0,1.0
44.37,269.0111,1.0,1.0,1.0
44.38,229.4944,1.0,1.0,1.0
44.39,229.9889,1.0,1.0,1.0
44.4,218.5056,1.0,1.0,1.0
44.41,243.5056,1.0,1.0,1.0
44.42,258.9778,1.0,1.0,1.0
44.43,272.0111,1.0,1.0,1.0
44.44,270.5056,1.0,1.0,1.0
44.45,281.9889,1.0,1.0,1.0
44.46,287.9889,1.0,1.0,1.0
44.47,274.0333,1.0,1.0,1.0
44.48,270.5056,1.0,1.0,1.0
44.49,291.9889,1.0,1.0,1.0
44.5,356.0,1.0,1.0,1.0
44.51,269.4833,1.0,1.0,1.0
44.52,301.0111,1.0,1.0,1.0
44.53,314.9778,1.0,1.0,1.0
44.54,294.4944,1.0,1.0,1.0
44.55,314.5167,1.0,1.0,1.0
44.56,333.4944,1.0,1.0,1.0
44.57,353.9889,1.0,1.0,1.0
44.58,367.9889,1.0,1.0,1.0
44.59,354.55,1.0,1.0,1.0
44.6,408.4833,1.0,1.0,1.0
44.61,370.4944,1.0,1.0,1.0
44.62,375.4944,1.0,1.0,1.0
44.63,406.4833,1.0,1.0,1.0
44.64,385.5167,1.0,1.0,1.0
44.65,387.4944,1.0,1.0,1.0
44.66,383.4944,1.0,1.0,1.0
44.67,454.0,1.0,1.0,1.0
44.68,440.5167,1.0,1.0,1.0
44.69,429.9778,1.0,1.0,1.0
44.7,432.0222,1.0,1.0,1.0
44.71,441.0,1.0,1.0,1.0
44.72,390.0222,1.0,1.0,1.0
44.73,405.4611,1.0,1.0,1.0
44.74,427.0333,1.0,1.0,1.0
44.75,423.4833,1.0,1.0,1.0
44.76,400.0,1.0,1.0,1.0
44.77,416.9889,1.0,1.0,1.0
44.78,444.0,1.0,1.0,1.0
44.79,402.0111,1.0,1.0,1.0
44.8,452.9889,1.0,1.0,1.0
44.81,391.0111,1.0,1.0,1.0
44.82,392.4944,1.0,1.0,1.0
44.83,412.0222,1.0,1.0,1.0
44.84,416.4611,1.0,1.0,1.0
44.85,383.5056,1.0,1.0,1.0
44.86,367.5278,1.0,1.0,1.0
44.87,403.4833,1.0,1.0,1.0
44.88,403.0,1.0,1.0,1.0
44.89,351.5167,1.0,1.0,1.0
44.9,340.0,1.0,1.0,1.0
44.91,394.9889,1.0,1.0,1.0
44.92,347.5167,1.0,1.0,1.0
44.93,389.9889,1.0,1.0,1.0
44.94,344.4944,1.0,1.0,1.0
44.95,338.5056,1.0,1.0,1.0
44.96,367.4833,1.0,1.0,1.0
44.97,337.0111,1.0,1.0,1.0
44.98,321.0,1.0,1.0,1.0
44.99,336.5056,1.0,1.0,1.0
45.0,312.5056,1.0,1.0,1.0
45.01,311.9889,1.0,1.0,1.0
45.02,301.0222,1.0,1.0,1.0
45.03,316.4944,1.0,1.0,1.0
45.04,274.4944,1.0,1.0,1.0
45.05,257.5056,1.0,1.0,1.0
45.06,263.5056,1.0,1.0,1.0
45.07,260.5056,1.0,1.0,1.0
45.08,301.4833,1.0,1.0,1.0
45.09,236.9889,1.0,1.0,1.0
45.1,274.5056,1.0,1.0,1.0
45.11,254.5167,1.0,1.0,1.0
45.12,259.4833,1.0,1.0,1.0
45.13,238.4833,1.0,1.0,1.0
45.14,223.5278,1.0,1.0,1.0
45.15,232.9889,1.0,1.0,1.0
45.16,261.9889,1.0,1.0,1.0
45.17,242.5056,1.0,1.0,1.0
45.18,236.5278,1.0,1.0,1.0
45.19,212.4833,1.0,1.0,1.0
45.2,267.9889,1.0,1.0,1.0
45.21,238.0111,1.0,1.0,1.0
45.22,234.0111,1.0,1.0,1.0
45.23,235.4833,1.0,1.0,1.0
45.24,249.9889,1.0,1.0,1.0
45.25,271.5167,1.0,1.0,1.0
45.26,263.4833,1.0,1.0,1.0
45.27,278.0222,1.0,1.0,1.0
45.28,247.4944,1.0,1.0,1.0
45.29,227.0,1.0,1.0,1.0
45.3,286.9889,1.0,1.0,1.0
45.31,234.5056,1.0,1.0,1.0
45.32,223.0,1.0,1.0,1.0
45.33,265.0222,1.0,1.0,1.0
45.34,254.9778,1.0,1.0,1.0
45.35,234.0111,1.0,1.0,1.0
45.36,270.9889,1.0,1.0,1.0
45.37,328.0222,1.0,1.0,1.0
45.38,286.0,1.0,1.0,1.0
45.39,283.9778,1.0,1.0,1.0
45.4,281.9889,1.0,1.0,1.0
45.41,341.5167,1.0,1.0,1.0
45.42,306.4833,1.0,1.0,1.0
45.43,300.0,1.0,1.0,1.0
45.44,293.5167,1.0,1.0,1.0
45.45,331.5056,1.0,1.0,1.0
45.46,392.0,1.0,1.0,1.0
45.47,331.4944,1.0,1.0,1.0
45.48,391.9778,1.0,1.0,1.0
45.49,345.4944,1.0,1.0,1.0
45.5,335.0444,1.0,1.0,1.0
45.51,354.9889,1.0,1.0,1.0
45.52,379.4611,1.0,1.0,1.0
45.53,325.5278,1.0,1.0,1.0
45.54,353.5167,1.0,1.0,1.0
45.55,369.9889,1.0,1.0,1.0
45.56,389.5056,1.0,1.0,1.0
45.57,387.4944,1.0,1.0,1.0
45.58,385.0,1.0,1.0,1.0
45.59,412.9889,1.0,1.0,1.0
45.6,406.4833,1.0,1.0,1.0
45.61,413.5167,1.0,1.0,1.0
45.62,408.4722,1.0,1.0,1.0
45.63,446.5167,1.0,1.0,1.0
45.64,401.0,1.0,1.0,1.0
45.65,389.4722,1.0,1.0,1.0
45.66,421.55,1.0,1.0,1.0
45.67,394.9667,1.0,1.0,1.0
45.68,416.5278,1.0,1.0,1.0
45.69,436.4611,1.0,1.0,1.0
45.7,418.0333,1.0,1.0,1.0
45.71,393.4833,1.0,1.0,1.0
45.72,421.0111,1.0,1.0,1.0
45.73,426.5167,1.0,1.0,1.0
45.74,458.9889,1.0,1.0,1.0
45.75,422.9889,1.0,1.0,1.0
45.76,412.0,1.0,1.0,1.0
45.77,406.0222,1.0,1.0,1.0
45.78,398.4722,1.0,1.0,1.0
45.79,388.5056,1.0,1.0,1.0
45.8,437.5167,1.0,1.0,1.0
45.81,397.4722,1.0,1.0,1.0
45.82,401.0222,1.0,1.0,1.0
45.83,434.4722,1.0,1.0,1.0
45.84,395.5278,1.0,1.0,1.0
45.85,419.0,1.0,1.0,1.0
45.86,384.4944,1.0,1.0,1.0
45.87,404.0,1.0,1.0,1.0
45.88,407.4833,1.0,1.0,1.0
45.89,419.0111,1.0,1.0,1.0
45.9,470.9778,1.0,1.0,1.0
45.91,380.5389,1.0,1.0,1.0
45.92,402.9778,1.0,1.0,1.0
45.93,410.0111,1.0,1.0,1.0
45.94,395.4833,1.0,1.0,1.0
45.95,402.5278,1.0,1.0,1.0
45.96,423.9778,1.0,1.0,1.0
45.97,396.0222,1.0,1.0,1.0
45.98,411.5167,1.0,1.0,1.0
45.99,433.4611,1.0,1.0,1.0
46.0,393.0222,1.0,1.0,1.0
46.01,426.5056,1.0,1.0,1.0
46.02,441.9556,1.0,1.0,1.0
46.03,424.4944,1.0,1.0,1.0
46.04,453.0222,1.0,1.0,1.0
46.05,450.4944,1.0,1.0,1.0
46.06,444.4944,1.0,1.0,1.0
46.07,467.0,1.0,1.0,1.0
46.08,445.0,1.0,1.0,1.0
46.09,468.5278,1.0,1.0,1.0
46.1,476.0,1.0,1.0,1.0
46.11,505.9778,1.0,1.0,1.0
46.12,534.0111,1.0,1.0,1.0
46.13,512.4833,1.0,1.0,1.0
46.14,515.0,1.0,1.0,1.0
46.15,508.0,1.0,1.0,1.0
46.16,498.0222,1.0,1.0,1.0
46.17,527.4611,1.0,1.0,1.0
46.18,609.0222,1.0,1.0,1.0
46.19,497.0222,1.0,1.0,1.0
46.2,543.4722,1.0,1.0,1.0
46.21,544.0,1.0,1.0,1.0
46.22,565.4722,1.0,1.0,1.0
46.23,607.0444,1.0,1.0,1.0
46.24,604.9778,1.0,1.0,1.0
46.25,624.5056,1.0,1.0,1.0
46.26,611.4722,1.0,1.0,1.0
46.27,701.5056,1.0,1.0,1.0
46.28,641.5167,1.0,1.0,1.0
46.29,669.4722,1.0,1.0,1.0
46.3,664.5389,1.0,1.0,1.0
46.31,722.4833,1.0,1.0,1.0
46.32,762.45,1.0,1.0,1.0
46.33,757.5167,1.0,1.0,1.0
46.34,774.0,1.0,1.0,1.0
46.35,827.7223,1.0,1.0,1.0
46.36,932.8277,1.0,1.0,1.0
46.37,810.45,1.0,1.0,1.0
46.38,902.0,1.0,1.0,1.0
46.39,882.5056,1.0,1.0,1.0
46.4,999.5167,1.0,1.0,1.0
46.41,902.4833,1.0,1.0,1.0
46.42,995.0222,1.0,1.0,1.0
46.43,929.4722,1.0,1.0,1.0
46.44,1004.02,1.0,1.0,1.0
46.45,1001.01,1.0,1.0,1.0
46.46,1017.48,1.0,1.0,1.0
46.47,1067.96,1.0,1.0,1.0
46.48,1129.02,1.0,1.0,1.0
46.49,1121.56,1.0,1.0,1.0
46.5,1154.41,1.0,1.0,1.0
46.51,1182.96,1.0,1.0,1.0
46.52,1185.07,1.0,1.0,1.0
46.53,1272.45,1.0,1.0,1.0
46.54,1309.54,1.0,1.0,1.0
46.55,1307.55,1.0,1.0,1.0
46.56,1322.44,1.0,1.0,1.0
46.57,1392.01,1.0,1.0,1.0
46.58,1416.02,1.0,1.0,1.0
46.59,1581.92,1.0,1.0,1.0
46.6,1594.02,1.0,1.0,1.0
46.61,1603.0,1.0,1.0,1.0
46.62,1616.0,1.0,1.0,1.0
46.63,1746.47,1.0,1.0,1.0
46.64,1813.49,1.0,1.0,1.0
46.65,1864.45,1.0,1.0,1.0
46.66,1892.06,1.0,1.0,1.0
46.67,1963.98,1.0,1.0,1.0
46.68,2083.99,1.0,1.0,1.0
46.69,2192.03,1.0,1.0,1.0
46.7,2192.43,1.0,1.0,1.0
46.71,2350.03,1.0,1.0,1.0
46.72,2440.51,1.0,1.0,1.0
46.73,2541.52,1.0,1.0,1.0
46.74,2687.35,1.0,1.0,1.0
46.75,2780.03,1.0,1.0,1.0
46.76,2943.53,1.0,1.0,1.0
46.77,3194.9,1.0,1.0,1.0
46.78,3357.01,1.0,1.0,1.0
46.79,3681.93,1.0,1.0,1.0
46.8,3873.1,1.0,1.0,1.0
46.81,4156.87,1.0,1.0,1.0
46.82,4329.46,1.0,1.0,1.0
46.83,4658.96,1.0,1.0,1.0
46.84,5072.92,1.0,1.0,1.0
46.85,5622.54,1.0,1.0,1.0
46.86,6173.94,1.0,1.0,1.0
46.87,6729.39,1.0,1.0,1.0
46.88,7611.89,1.0,1.0,1.0
46.89,8672.72,1.0,1.0,1.0
46.9,9702.41,1.0,1.0,1.0
46.91,11462.9,1.0,1.0,1.0
46.92,14707.5,1.0,1.0,1.0
46.93,19452.5,1.0,1.0,1.0
46.94,24217.8,1.0,1.0,1.0
46.95,31146,1.0,1.0,1.0
46.96,36582.4,1.0,1.0,1.0
46.97,40368.7,1.0,1.0,1.0
46.98,47000.7,1.0,1.0,1.0
46.99,57858.6,1.0,1.0,1.0
47.0,70868.2,1.0,1.0,1.0
47.01,87282.6,1.0,1.0,1.0
47.02,109937,1.0,1.0,1.0
47.03,146242,1.0,1.0,1.0
47.04,202409,1.0,1.0,1.0
47.05,294790,1.0,1.0,1.0
47.06,501322,1.0,1.0,1.0
47.07,1137521.0,1.0,1.0,1.0
47.08,3491662.0,1.0,1.0,1.0
47.09,32171676.0,1.0,1.0,1.0
47.1,12031358.0,1.0,1.0,1.0
47.11,1082685.25,1.0,1.0,1.0
47.12,372651.875,1.0,1.0,1.0
47.13,194164,1.0,1.0,1.0
47.14,115468,1.0,1.0,1.0
47.15,74854.8,1.0,1.0,1.0
47.16,51780.5,1.0,1.0,1.0
47.17,38480.3,1.0,1.0,1.0
47.18,30064.9,1.0,1.0,1.0
47.19,23865.6,1.0,1.0,1.0
47.2,19833.2,1.0,1.0,1.0
47.21,16260.1,1.0,1.0,1.0
47.22,13838.7,1.0,1.0,1.0
47.23,11844.6,1.0,1.0,1.0
47.24,10133.1,1.0,1.0,1.0
47.25,9061.84,1.0,1.0,1.0
47.26,7893.03,1.0,1.0,1.0
47.27,6920.01,1.0,1.0,1.0
47.28,6326.66,1.0,1.0,1.0
47.29,5508.0,1.0,1.0,1.0
47.3,5082.1,1.0,1.0,1.0
47.31,4387.49,1.0,1.0,1.0
47.32,4207.08,1.0,1.0,1.0
47.33,3762.49,1.0,1.0,1.0
47.34,3526.01,1.0,1.0,1.0
47.35,3161.57,1.0,1.0,1.0
47.36,2949.52,1.0,1.0,1.0
47.37,2752.06,1.0,1.0,1.0
47.38,2603.561,1.0,1.0,1.0
47.39,2352.03,1.0,1.0,1.0
47.4,2161.49,1.0,1.0,1.0
47.41,1994.49,1.0,1.0,1.0
47.42,1884.55,1.0,1.0,1.0
47.43,1871.47,1.0,1.0,1.0
47.44,1707.52,1.0,1.0,1.0
47.45,1663.54,1.0,1.0,1.0
47.46,1552.45,1.0,1.0,1.0
47.47,1452.58,1.0,1.0,1.0
47.48,1395.46,1.0,1.0,1.0
47.49,1224.49,1.0,1.0,1.0
47.5,1141.0,1.0,1.0,1.0
47.51,1102.54,1.0,1.0,1.0
47.52,1135.02,1.0,1.0,1.0
47.53,1037.49,1.0,1.0,1.0
47.54,1025.46,1.0,1.0,1.0
47.55,1048.0,1.0,1.0,1.0
47.56,886.0333,1.0,1.0,1.0
47.57,865.5389,1.0,1.0,1.0
47.58,841.0,1.0,1.0,1.0
47.59,875.4833,1.0,1.0,1.0
47.6,757.0333,1.0,1.0,1.0
47.61,703.4722,1.0,1.0,1.0
47.62,688.5167,1.0,1.0,1.0
47.63,664.0222,1.0,1.0,1.0
47.64,650.4722,1.0,1.0,1.0
47.65,661.9778,1.0,1.0,1.0
47.66,643.4611,1.0,1.0,1.0
47.67,621.55,1.0,1.0,1.0
47.68,572.5278,1.0,1.0,1.0
47.69,560.0111,1.0,1.0,1.0
47.7,545.9778,1.0,1.0,1.0
47.71,505.9778,1.0,1.0,1.0
47.72,547.5389,1.0,1.0,1.0
47.73,442.9889,1.0,1.0,1.0
47.74,507.0444,1.0,1.0,1.0
47.75,434.4611,1.0,1.0,1.0
47.76,424.0333,1.0,1.0,1.0
47.77,405.9556,1.0,1.0,1.0
47.78,438.5167,1.0,1.0,1.0
47.79,405.0333,1.0,1.0,1.0
47.8,420.45,1.0,1.0,1.0
47.81,351.5167,1.0,1.0,1.0
47.82,333.5389,1.0,1.0,1.0
47.83,365.9667,1.0,1.0,1.0
47.84,301.0,1.0,1.0,1.0
47.85,344.0222,1.0,1.0,1.0
47.86,339.4833,1.0,1.0,1.0
47.87,321.5167,1.0,1.0,1.0
47.88,305.0,1.0,1.0,1.0
47.89,283.4722,1.0,1.0,1.0
47.9,306.0111,1.0,1.0,1.0
47.91,306.0222,1.0,1.0,1.0
47.92,262.4944,1.0,1.0,1.0
47.93,258.5167,1.0,1.0,1.0
47.94,234.9889,1.0,1.0,1.0
47.95,243.0,1.0,1.0,1.0
47.96,238.9778,1.0,1.0,1.0
47.97,249.9889,1.0,1.0,1.0
47.98,252.0444,1.0,1.0,1.0
47.99,227.4833,1.0,1.0,1.0
48.0,219.5056,1.0,1.0,1.0
48.01,237.5056,1.0,1.0,1.0
48.02,215.0,1.0,1.0,1.0
48.03,205.9889,1.0,1.0,1.0
48.04,202.0,1.0,1.0,1.0
48.05,184.0,1.0,1.0,1.0
48.06,179.0111,1.0,1.0,1.0
48.07,191.9556,1.0,1.0,1.0
48.08,208.5278,1.0,1.0,1.0
48.09,181.5167,1.0,1.0,1.0
48.1,173.0,1.0,1.0,1.0
48.11,186.0,1.0,1.0,1.0
48.12,157.9889,1.0,1.0,1.0
48.13,183.4833,1.0,1.0,1.0
48.14,174.0,1.0,1.0,1.0
48.15,173.5278,1.0,1.0,1.0
48.16,169.4944,1.0,1.0,1.0
48.17,160.0,1.0,1.0,1.0
48.18,147.0,1.0,1.0,1.0
48.19,118.5056,1.0,1.0,1.0
48.2,128.5056,1.0,1.0,1.0
48.21,135.4944,1.0,1.0,1.0
48.22,161.0111,1.0,1.0,1.0
48.23,141.5056,1.0,1.0,1.0
48.24,137.4833,1.0,1.0,1.0
48.25,133.4833,1.0,1.0,1.0
48.26,129.5278,1.0,1.0,1.0
48.27,119.4944,1.0,1.0,1.0
48.28,128.4944,1.0,1.0,1.0
48.29,124.5056,1.0,1.0,1.0
48.3,116.4944,1.0,1.0,1.0
48.31,133.5056,1.0,1.0,1.0
48.32,114.4944,1.0,1.0,1.0
48.33,105.5056,1.0,1.0,1.0
48.34,129.9889,1.0,1.0,1.0
48.35,122.0222,1.0,1.0,1.0
48.36,116.4944,1.0,1.0,1.0
48.37,107.0,1.0,1.0,1.0
48.38,115.9889,1.0,1.0,1.0
48.39,93.5167,1.0,1.0,1.0
48.4,120.4833,1.0,1.0,1.0
48.41,127.9889,1.0,1.0,1.0
48.42,127.0222,1.0,1.0,1.0
48.43,101.4944,1.0,1.0,1.0
48.44,116.4944,1.0,1.0,1.0
48.45,111.5167,1.0,1.0,1.0
48.46,100.9889,1.0,1.0,1.0
48.47,115.0,1.0,1.0,1.0
48.48,99.0111,1.0,1.0,1.0
48.49,90.4944,1.0,1.0,1.0
48.5,97.0,1.0,1.0,1.0
48.51,80.9889,1.0,1.0,1.0
48.52,94.5167,1.0,1.0,1.0
48.53,99.4944,1.0,1.0,1.0
48.54,88.5056,1.0,1.0,1.0
48.55,91.4833,1.0,1.0,1.0
48.56,138.0111,1.0,1.0,1.0
48.57,99.9889,1.0,1.0,1.0
48.58,81.5056,1.0,1.0,1.0
48.59,76.0111,1.0,1.0,1.0
48.6,106.0,1.0,1.0,1.0
48.61,62.9667,1.0,1.0,1.0
48.62,90.5278,1.0,1.0,1.0
48.63,90.4944,1.0,1.0,1.0
48.64,86.0111,1.0,1.0,1.0
48.65,45.9889,1.0,1.0,1.0
48.66,69.0,1.0,1.0,1.0
48.67,73.5056,1.0,1.0,1.0
48.68,77.4944,1.0,1.0,1.0
48.69,92.5056,1.0,1.0,1.0
48.7,89.0,1.0,1.0,1.0
48.71,92.4944,1.0,1.0,1.0
48.72,94.4944,1.0,1.0,1.0
48.73,105.5167,1.0,1.0,1.0
48.74,96.4833,1.0,1.0,1.0
48.75,83.5056,1.0,1.0,1.0
48.76,94.4944,1.0,1.0,1.0
48.77,71.0,1.0,1.0,1.0
48.78,67.5167,1.0,1.0,1.0
48.79,80.0,1.0,1.0,1.0
48.8,49.0,1.0,1.0,1.0
48.81,70.0,1.0,1.0,1.0
48.82,84.4944,1.0,1.0,1.0
48.83,81.5056,1.0,1.0,1.0
48.84,73.9889,1.0,1.0,1.0
48.85,69.0111,1.0,1.0,1.0
48.86,61.4944,1.0,1.0,1.0
48.87,67.4944,1.0,1.0,1.0
48.88,56.5056,1.0,1.0,1.0
48.89,71.4944,1.0,1.0,1.0
48.9,47.5056,1.0,1.0,1.0
48.91,79.0,1.0,1.0,1.0
48.92,60.4833,1.0,1.0,1.0
48.93,93.0222,1.0,1.0,1.0
48.94,62.9778,1.0,1.0,1.0
48.95,75.0111,1.0,1.0,1.0
48.96,77.5056,1.0,1.0,1.0
48.97,66.0,1.0,1.0,1.0
48.98,58.5056,1.0,1.0,1.0
48.99,53.9889,1.0,1.0,1.0
49.0,69.0111,1.0,1.0,1.0
49.01,65.0,1.0,1.0,1.0
49.02,55.9889,1.0,1.0,1.0
49.03,68.0,1.0,1.0,1.0
49.04,75.5056,1.0,1.0,1.0
49.05,58.5056,1.0,1.0,1.0
49.06,62.4833,1.0,1.0,1.0
49.07,89.5056,1.0,1.0,1.0
49.08,57.0111,1.0,1.0,1.0
49.09,73.4944,1.0,1.0,1.0
49.1,43.9889,1.0,1.0,1.0
49.11,65.5167,1.0,1.0,1.0
49.12,56.0,1.0,1.0,1.0
49.13,57.0,1.0,1.0,1.0
49.14,57.4833,1.0,1.0,1.0
49.15,47.5167,1.0,1.0,1.0
49.16,48.4944,1.0,1.0,1.0
49.17,50.4944,1.0,1.0,1.0
49.18,66.0111,1.0,1.0,1.0
49.19,53.0,1.0,1.0,1.0
49.2,41.4833,1.0,1.0,1.0
49.21,48.0111,1.0,1.0,1.0
49.22,78.0,1.0,1.0,1.0
49.23,53.5056,1.0,1.0,1.0
49.24,57.0,1.0,1.0,1.0
49.25,59.0,1.0,1.0,1.0
49.26,54.9889,1.0,1.0,1.0
49.27,65.4944,1.0,1.0,1.0
49.28,69.5056,1.0,1.0,1.0
49.29,58.5056,1.0,1.0,1.0
49.3,43.5056,1.0,1.0,1.0
49.31,42.0,1.0,1.0,1.0
49.32,52.0,1.0,1.0,1.0
49.33,67.0,1.0,1.0,1.0
49.34,66.0,1.0,1.0,1.0
49.35,37.9889,1.0,1.0,1.0
49.36,45.5056,1.0,1.0,1.0
49.37,40.5056,1.0,1.0,1.0
49.38,43.9889,1.0,1.0,1.0
49.39,66.0111,1.0,1.0,1.0
49.4,41.4944,1.0,1.0,1.0
49.41,65.4944,1.0,1.0,1.0
49.42,38.9889,1.0,1.0,1.0
49.43,29.5167,1.0,1.0,1.0
49.44,51.5056,1.0,1.0,1.0
49.45,70.9889,1.0,1.0,1.0
49.46,52.5056,1.0,1.0,1.0
49.47,58.0,1.0,1.0,1.0
49.48,43.0,1.0,1.0,1.0
49.49,66.4944,1.0,1.0,1.0
49.5,36.0,1.0,1.0,1.0
49.51,51.0,1.0,1.0,1.0
49.52,56.0111,1.0,1.0,1.0
49.53,39.0,1.0,1.0,1.0
49.54,40.9889,1.0,1.0,1.0
49.55,60.0111,1.0,1.0,1.0
49.56,56.0,1.0,1.0,1.0
49.57,49.0,1.0,1.0,1.0
49.58,50.4833,1.0,1.0,1.0
49.59,50.5167,1.0,1.0,1.0
49.6,43.4944,1.0,1.0,1.0
49.61,39.5056,1.0,1.0,1.0
49.62,60.4944,1.0,1.0,1.0
49.63,46.5056,1.0,1.0,1.0
49.64,41.0,1.0,1.0,1.0
49.65,54.0,1.0,1.0,1.0
49.66,52.9889,1.0,1.0,1.0
49.67,57.0,1.0,1.0,1.0
49.68,46.0111,1.0,1.0,1.0
49.69,51.0,1.0,1.0,1.0
49.7,48.9889,1.0,1.0,1.0
49.71,51.5056,1.0,1.0,1.0
49.72,45.5056,1.0,1.0,1.0
49.73,62.4833,1.0,1.0,1.0
49.74,66.0111,1.0,1.0,1.0
49.75,51.5056,1.0,1.0,1.0
49.76,32.4944,1.0,1.0,1.0
49.77,37.5056,1.0,1.0,1.0
49.78,45.0,1.0,1.0,1.0
49.79,41.9889,1.0,1.0,1.0
49.8,40.5056,1.0,1.0,1.0
49.81,49.4944,1.0,1.0,1.0
49.82,43.5056,1.0,1.0,1.0
49.83,53.0,1.0,1.0,1.0
49.84,48.5056,1.0,1.0,1.0
49.85,33.4944,1.0,1.0,1.0
49.86,58.5056,1.0,1.0,1.0
49.87,33.4944,1.0,1.0,1.0
49.88,49.4944,1.0,1.0,1.0
49.89,34.5056,1.0,1.0,1.0
49.9,52.0,1.0,1.0,1.0
49.91,35.0,1.0,1.0,1.0
49.92,35.5056,1.0,1.0,1.0
49.93,35.4944,1.0,1.0,1.0
49.94,37.0,1.0,1.0,1.0
49.95,40.0,1.0,1.0,1.0
49.96,30.5056,1.0,1.0,1.0
49.97,45.4944,1.0,1.0,1.0
49.98,37.5056,1.0,1.0,1.0
49.99,41.0,1.0,1.0,1.0
50.0,41.0,1.0,1.0,1.0
50.01,53.4833,1.0,1.0,1.0
50.02,40.4944,1.0,1.0,1.0
50.03,46.5167,1.0,1.0,1.0
50.04,44.0,1.0,1.0,1.0
50.05,35.0,1.0,1.0,1.0
50.06,48.9889,1.0,1.0,1.0
50.07,55.0111,1.0,1.0,1.0
50.08,41.0,1.0,1.0,1.0
50.09,40.5056,1.0,1.0,1.0
50.1,50.4944,1.0,1.0,1.0
50.11,31.4944,1.0,1.0,1.0
50.12,44.0111,1.0,1.0,1.0
50.13,49.0,1.0,1.0,1.0
50.14,37.4944,1.0,1.0,1.0
50.15,58.5056,1.0,1.0,1.0
50.16,39.0,1.0,1.0,1.0
50.17,37.0,1.0,1.0,1.0
50.18,41.0,1.0,1.0,1.0
50.19,54.0,1.0,1.0,1.0
50.2,53.4833,1.0,1.0,1.0
50.21,31.5167,1.0,1.0,1.0
50.22,44.4944,1.0,1.0,1.0
50.23,44.5056,1.0,1.0,1.0
50.24,36.0,1.0,1.0,1.0
50.25,46.0,1.0,1.0,1.0
50.26,41.0,1.0,1.0,1.0
50.27,36.0,1.0,1.0,1.0
50.28,43.4944,1.0,1.0,1.0
50.29,28.0,1.0,1.0,1.0
50.3,40.9889,1.0,1.0,1.0
50.31,42.0111,1.0,1.0,1.0
50.32,58.4833,1.0,1.0,1.0
50.33,48.0222,1.0,1.0,1.0
50.34,38.0,1.0,1.0,1.0
50.35,49.4944,1.0,1.0,1.0
50.36,26.5056,1.0,1.0,1.0
50.37,38.4833,1.0,1.0,1.0
50.38,54.0111,1.0,1.0,1.0
50.39,27.4944,1.0,1.0,1.0
50.4,36.5056,1.0,1.0,1.0
50.41,45.0,1.0,1.0,1.0
50.42,44.5056,1.0,1.0,1.0
50.43,40.4944,1.0,1.0,1.0
50.44,36.5056,1.0,1.0,1.0
50.45,44.0,1.0,1.0,1.0
50.46,52.9889,1.0,1.0,1.0
50.47,43.0111,1.0,1.0,1.0
50.48,48.4944,1.0,1.0,1.0
50.49,38.5056,1.0,1.0,1.0
50.5,29.0,1.0,1.0,1.0
50.51,25.4944,1.0,1.0,1.0
50.52,33.5056,1.0,1.0,1.0
50.53,31.4833,1.0,1.0,1.0
50.54,42.5167,1.0,1.0,1.0
50.55,29.4944,1.0,1.0,1.0
50.56,35.4944,1.0,1.0,1.0
50.57,44.0111,1.0,1.0,1.0
50.58,20.0,1.0,1.0,1.0
50.59,34.0,1.0,1.0,1.0
50.6,34.0,1.0,1.0,1.0
50.61,44.0,1.0,1.0,1.0
50.62,42.0,1.0,1.0,1.0
50.63,33.0,1.0,1.0,1.0
50.64,36.4944,1.0,1.0,1.0
50.65,30.5056,1.0,1.0,1.0
50.66,33.0,1.0,1.0,1.0
50.67,59.9889,1.0,1.0,1.0
50.68,52.5056,1.0,1.0,1.0
50.69,39.5056,1.0,1.0,1.0
50.7,35.4944,1.0,1.0,1.0
50.71,28.9889,1.0,1.0,1.0
50.72,32.0111,1.0,1.0,1.0
50.73,50.0,1.0,1.0,1.0
50.74,53.9889,1.0,1.0,1.0
50.75,29.0111,1.0,1.0,1.0
50.76,48.5056,1.0,1.0,1.0
50.77,46.0,1.0,1.0,1.0
50.78,38.4944,1.0,1.0,1.0
50.79,31.0,1.0,1.0,1.0
50.8,43.0,1.0,1.0,1.0
50.81,33.5056,1.0,1.0,1.0
50.82,47.9889,1.0,1.0,1.0
50.83,48.0111,1.0,1.0,1.0
50.84,38.4944,1.0,1.0,1.0
50.85,55.5056,1.0,1.0,1.0
50.86,26.0,1.0,1.0,1.0
50.87,25.0,1.0,1.0,1.0
50.88,38.0,1.0,1.0,1.0
50.89,30.0,1.0,1.0,1.0
50.9,37.0,1.0,1.0,1.0
50.91,34.4944,1.0,1.0,1.0
50.92,26.9889,1.0,1.0,1.0
50.93,25.5167,1.0,1.0,1.0
50.94,53.0,1.0,1.0,1.0
50.95,38.4944,1.0,1.0,1.0
50.96,49.0,1.0,1.0,1.0
50.97,40.5056,1.0,1.0,1.0
50.98,23.4944,1.0,1.0,1.0
50.99,40.5056,1.0,1.0,1.0
51.0,36.0,1.0,1.0,1.0
51.01,39.4944,1.0,1.0,1.0
51.02,50.9889,1.0,1.0,1.0
51.03,33.5167,1.0,1.0,1.0
51.04,39.0,1.0,1.0,1.0
51.05,49.4944,1.0,1.0,1.0
51.06,36.4944,1.0,1.0,1.0
51.07,29.5056,1.0,1.0,1.0
51.08,40.5056,1.0,1.0,1.0
51.09,35.4944,1.0,1.0,1.0
51.1,38.5056,1.0,1.0,1.0
51.11,27.9889,1.0,1.0,1.0
51.12,42.0111,1.0,1.0,1.0
51.13,48.0,1.0,1.0,1.0
51.14,31.4944,1.0,1.0,1.0
51.15,44.4944,1.0,1.0,1.0
51.16,41.0111,1.0,1.0,1.0
51.17,39.9889,1.0,1.0,1.0
51.18,36.0111,1.0,1.0,1.0
51.19,30.0,1.0,1.0,1.0
51.2,49.0,1.0,1.0,1.0
51.21,43.0,1.0,1.0,1.0
51.22,42.0,1.0,1.0,1.0
51.23,17.4944,1.0,1.0,1.0
51.24,36.5056,1.0,1.0,1.0
51.25,44.0,1.0,1.0,1.0
51.26,32.9889,1.0,1.0,1.0
51.27,29.0111,1.0,1.0,1.0
51.28,38.9889,1.0,1.0,1.0
51.29,43.5056,1.0,1.0,1.0
51.3,46.0,1.0,1.0,1.0
51.31,60.5056,1.0,1.0,1.0
51.32,29.4944,1.0,1.0,1.0
51.33,30.5056,1.0,1.0,1.0
51.34,25.9889,1.0,1.0,1.0
51.35,36.0111,1.0,1.0,1.0
51.36,30.4944,1.0,1.0,1.0
51.37,25.5056,1.0,1.0,1.0
51.38,37.4944,1.0,1.0,1.0
51.39,29.5056,1.0,1.0,1.0
51.4,41.9889,1.0,1.0,1.0
51.41,28.0111,1.0,1.0,1.0
51.42,21.0,1.0,1.0,1.0
51.43,41.4944,1.0,1.0,1.0
51.44,45.5056,1.0,1.0,1.0
51.45,36.0,1.0,1.0,1.0
51.46,33.0,1.0,1.0,1.0
51.47,30.0,1.0,1.0,1.0
51.48,38.0,1.0,1.0,1.0
51.49,32.0,1.0,1.0,1.0
51.5,36.9889,1.0,1.0,1.0
51.51,30.0111,1.0,1.0,1.0
51.52,23.9889,1.0,1.0,1.0
51.53,35.0111,1.0,1.0,1.0
51.54,45.0,1.0,1.0,1.0
51.55,44.4944,1.0,1.0,1.0
51.56,41.5056,1.0,1.0,1.0
51.57,37.0,1.0,1.0,1.0
51.58,40.4944,1.0,1.0,1.0
51.59,31.5056,1.0,1.0,1.0
51.6,29.9889,1.0,1.0,1.0
51.61,30.0111,1.0,1.0,1.0
51.62,42.0,1.0,1.0,1.0
51.63,25.4944,1.0,1.0,1.0
51.64,32.0,1.0,1.0,1.0
51.65,34.0,1.0,1.0,1.0
51.66,30.0,1.0,1.0,1.0
51.67,43.0,1.0,1.0,1.0
51.68,39.0,1.0,1.0,1.0
51.69,46.5056,1.0,1.0,1.0
51.7,40.9889,1.0,1.0,1.0
51.71,39.5056,1.0,1.0,1.0
51.72,32.9889,1.0,1.0,1.0
51.73,30.0111,1.0,1.0,1.0
51.74,40.5056,1.0,1.0,1.0
51.75,27.0,1.0,1.0,1.0
51.76,40.4944,1.0,1.0,1.0
51.77,46.9889,1.0,1.0,1.0
51.78,43.5167,1.0,1.0,1.0
51.79,19.0,1.0,1.0,1.0
51.8,47.0,1.0,1.0,1.0
51.81,32.0,1.0,1.0,1.0
51.82,51.4944,1.0,1.0,1.0
51.83,27.0,1.0,1.0,1.0
51.84,42.0,1.0,1.0,1.0
51.85,30.5056,1.0,1.0,1.0
51.86,23.0,1.0,1.0,1.0
51.87,24.4944,1.0,1.0,1.0
51.88,30.5056,1.0,1.0,1.0
51.89,25.0,1.0,1.0,1.0
51.9,45.0,1.0,1.0,1.0
51.91,32.0,1.0,1.0,1.0
51.92,40.9889,1.0,1.0,1.0
51.93,47.0,1.0,1.0,1.0
51.94,39.5056,1.0,1.0,1.0
51.95,29.5056,1.0,1.0,1.0
51.96,30.4944,1.0,1.0,1.0
51.97,28.0,1.0,1.0,1.0
51.98,23.5056,1.0,1.0,1.0
51.99,34.0,1.0,1.0,1.0
52.0,21.9889,1.0,1.0,1.0