File: XRD:XRR/RIXS 214/M12/M12f_L2NOT_200_XRD.csv
#twotheta, yobs, ycal, bkg, diff
42.0,195.4944,1.0,1.0,1.0
42.01,232.4944,1.0,1.0,1.0
42.02,263.9889,1.0,1.0,1.0
42.03,249.0111,1.0,1.0,1.0
42.04,245.5056,1.0,1.0,1.0
42.05,290.4833,1.0,1.0,1.0
42.06,338.5278,1.0,1.0,1.0
42.07,365.9778,1.0,1.0,1.0
42.08,358.0,1.0,1.0,1.0
42.09,425.9889,1.0,1.0,1.0
42.1,464.9778,1.0,1.0,1.0
42.11,502.4944,1.0,1.0,1.0
42.12,567.5278,1.0,1.0,1.0
42.13,600.4944,1.0,1.0,1.0
42.14,628.9667,1.0,1.0,1.0
42.15,687.0333,1.0,1.0,1.0
42.16,688.4944,1.0,1.0,1.0
42.17,815.9445,1.0,1.0,1.0
42.18,879.0,1.0,1.0,1.0
42.19,906.4833,1.0,1.0,1.0
42.2,1027.53,1.0,1.0,1.0
42.21,1081.43,1.0,1.0,1.0
42.22,1123.58,1.0,1.0,1.0
42.23,1183.439,1.0,1.0,1.0
42.24,1265.02,1.0,1.0,1.0
42.25,1321.96,1.0,1.0,1.0
42.26,1424.51,1.0,1.0,1.0
42.27,1528.97,1.0,1.0,1.0
42.28,1626.42,1.0,1.0,1.0
42.29,1712.04,1.0,1.0,1.0
42.3,1811.561,1.0,1.0,1.0
42.31,1950.98,1.0,1.0,1.0
42.32,1993.92,1.0,1.0,1.0
42.33,2103.561,1.0,1.0,1.0
42.34,2265.92,1.0,1.0,1.0
42.35,2344.51,1.0,1.0,1.0
42.36,2510.47,1.0,1.0,1.0
42.37,2588.03,1.0,1.0,1.0
42.38,2657.47,1.0,1.0,1.0
42.39,2861.45,1.0,1.0,1.0
42.4,2918.02,1.0,1.0,1.0
42.41,2979.45,1.0,1.0,1.0
42.42,3221.561,1.0,1.0,1.0
42.43,3291.49,1.0,1.0,1.0
42.44,3439.48,1.0,1.0,1.0
42.45,3587.98,1.0,1.0,1.0
42.46,3659.46,1.0,1.0,1.0
42.47,3742.02,1.0,1.0,1.0
42.48,4009.43,1.0,1.0,1.0
42.49,4117.12,1.0,1.0,1.0
42.5,4305.82,1.0,1.0,1.0
42.51,4368.09,1.0,1.0,1.0
42.52,4595.43,1.0,1.0,1.0
42.53,4773.439,1.0,1.0,1.0
42.54,4824.978,1.0,1.0,1.0
42.55,4958.51,1.0,1.0,1.0
42.56,5220.9,1.0,1.0,1.0
42.57,5291.55,1.0,1.0,1.0
42.58,5499.55,1.0,1.0,1.0
42.59,5591.48,1.0,1.0,1.0
42.6,5764.99,1.0,1.0,1.0
42.61,5887.92,1.0,1.0,1.0
42.62,5987.99,1.0,1.0,1.0
42.63,6049.62,1.0,1.0,1.0
42.64,6100.34,1.0,1.0,1.0
42.65,6229.11,1.0,1.0,1.0
42.66,6439.83,1.0,1.0,1.0
42.67,6601.52,1.0,1.0,1.0
42.68,6739.06,1.0,1.0,1.0
42.69,6909.04,1.0,1.0,1.0
42.7,7011.93,1.0,1.0,1.0
42.71,7130.47,1.0,1.0,1.0
42.72,7001.439,1.0,1.0,1.0
42.73,7326.64,1.0,1.0,1.0
42.74,7302.8,1.0,1.0,1.0
42.75,7428.02,1.0,1.0,1.0
42.76,7622.49,1.0,1.0,1.0
42.77,7612.59,1.0,1.0,1.0
42.78,7757.96,1.0,1.0,1.0
42.79,7873.45,1.0,1.0,1.0
42.8,7783.92,1.0,1.0,1.0
42.81,7952.57,1.0,1.0,1.0
42.82,7929.04,1.0,1.0,1.0
42.83,8104.47,1.0,1.0,1.0
42.84,8057.89,1.0,1.0,1.0
42.85,8177.51,1.0,1.0,1.0
42.86,8242.51,1.0,1.0,1.0
42.87,8324.167,1.0,1.0,1.0
42.88,8256.38,1.0,1.0,1.0
42.89,8135.561,1.0,1.0,1.0
42.9,8235.32,1.0,1.0,1.0
42.91,8317.64,1.0,1.0,1.0
42.92,8287.99,1.0,1.0,1.0
42.93,8277.07,1.0,1.0,1.0
42.94,8247.44,1.0,1.0,1.0
42.95,8186.03,1.0,1.0,1.0
42.96,8166.42,1.0,1.0,1.0
42.97,8137.66,1.0,1.0,1.0
42.98,8015.79,1.0,1.0,1.0
42.99,8112.62,1.0,1.0,1.0
43.0,7896.978,1.0,1.0,1.0
43.01,8022.59,1.0,1.0,1.0
43.02,7918.561,1.0,1.0,1.0
43.03,7966.31,1.0,1.0,1.0
43.04,7756.12,1.0,1.0,1.0
43.05,7725.98,1.0,1.0,1.0
43.06,7677.12,1.0,1.0,1.0
43.07,7397.86,1.0,1.0,1.0
43.08,7445.64,1.0,1.0,1.0
43.09,7422.99,1.0,1.0,1.0
43.1,7050.99,1.0,1.0,1.0
43.11,7181.94,1.0,1.0,1.0
43.12,6988.54,1.0,1.0,1.0
43.13,6878.47,1.0,1.0,1.0
43.14,6714.59,1.0,1.0,1.0
43.15,6735.94,1.0,1.0,1.0
43.16,6408.1,1.0,1.0,1.0
43.17,6270.0,1.0,1.0,1.0
43.18,6049.49,1.0,1.0,1.0
43.19,6041.87,1.0,1.0,1.0
43.2,5854.09,1.0,1.0,1.0
43.21,5869.11,1.0,1.0,1.0
43.22,5594.37,1.0,1.0,1.0
43.23,5503.23,1.0,1.0,1.0
43.24,5446.91,1.0,1.0,1.0
43.25,5088.52,1.0,1.0,1.0
43.26,4894.51,1.0,1.0,1.0
43.27,4962.57,1.0,1.0,1.0
43.28,4753.94,1.0,1.0,1.0
43.29,4552.06,1.0,1.0,1.0
43.3,4329.439,1.0,1.0,1.0
43.31,4296.561,1.0,1.0,1.0
43.32,4081.0,1.0,1.0,1.0
43.33,4103.53,1.0,1.0,1.0
43.34,3822.48,1.0,1.0,1.0
43.35,3693.62,1.0,1.0,1.0
43.36,3518.07,1.0,1.0,1.0
43.37,3318.96,1.0,1.0,1.0
43.38,3226.43,1.0,1.0,1.0
43.39,3153.59,1.0,1.0,1.0
43.4,2939.03,1.0,1.0,1.0
43.41,2789.55,1.0,1.0,1.0
43.42,2668.439,1.0,1.0,1.0
43.43,2504.439,1.0,1.0,1.0
43.44,2472.62,1.0,1.0,1.0
43.45,2299.46,1.0,1.0,1.0
43.46,2117.58,1.0,1.0,1.0
43.47,2056.53,1.0,1.0,1.0
43.48,1859.439,1.0,1.0,1.0
43.49,1816.55,1.0,1.0,1.0
43.5,1635.43,1.0,1.0,1.0
43.51,1604.07,1.0,1.0,1.0
43.52,1498.55,1.0,1.0,1.0
43.53,1402.98,1.0,1.0,1.0
43.54,1359.51,1.0,1.0,1.0
43.55,1239.51,1.0,1.0,1.0
43.56,1166.51,1.0,1.0,1.0
43.57,1106.01,1.0,1.0,1.0
43.58,1070.53,1.0,1.0,1.0
43.59,898.5056,1.0,1.0,1.0
43.6,847.5167,1.0,1.0,1.0
43.61,779.4944,1.0,1.0,1.0
43.62,704.5278,1.0,1.0,1.0
43.63,698.4944,1.0,1.0,1.0
43.64,660.4833,1.0,1.0,1.0
43.65,689.0222,1.0,1.0,1.0
43.66,593.5278,1.0,1.0,1.0
43.67,585.4944,1.0,1.0,1.0
43.68,482.4611,1.0,1.0,1.0
43.69,424.5056,1.0,1.0,1.0
43.7,473.0444,1.0,1.0,1.0
43.71,412.4722,1.0,1.0,1.0
43.72,424.4944,1.0,1.0,1.0
43.73,414.0,1.0,1.0,1.0
43.74,420.5278,1.0,1.0,1.0
43.75,387.4833,1.0,1.0,1.0
43.76,345.0,1.0,1.0,1.0
43.77,420.0,1.0,1.0,1.0
43.78,369.5056,1.0,1.0,1.0
43.79,369.9889,1.0,1.0,1.0
43.8,370.5056,1.0,1.0,1.0
43.81,392.9889,1.0,1.0,1.0
43.82,426.5389,1.0,1.0,1.0
43.83,423.45,1.0,1.0,1.0
43.84,496.0444,1.0,1.0,1.0
43.85,416.4611,1.0,1.0,1.0
43.86,506.9889,1.0,1.0,1.0
43.87,483.5278,1.0,1.0,1.0
43.88,515.9889,1.0,1.0,1.0
43.89,550.4722,1.0,1.0,1.0
43.9,542.0333,1.0,1.0,1.0
43.91,581.5056,1.0,1.0,1.0
43.92,590.9889,1.0,1.0,1.0
43.93,657.4833,1.0,1.0,1.0
43.94,688.0222,1.0,1.0,1.0
43.95,640.9889,1.0,1.0,1.0
43.96,693.4833,1.0,1.0,1.0
43.97,712.0222,1.0,1.0,1.0
43.98,753.9889,1.0,1.0,1.0
43.99,807.9445,1.0,1.0,1.0
44.0,776.5389,1.0,1.0,1.0
44.01,784.4944,1.0,1.0,1.0
44.02,784.0111,1.0,1.0,1.0
44.03,786.0111,1.0,1.0,1.0
44.04,855.9778,1.0,1.0,1.0
44.05,875.9889,1.0,1.0,1.0
44.06,886.55,1.0,1.0,1.0
44.07,817.4389,1.0,1.0,1.0
44.08,899.0555,1.0,1.0,1.0
44.09,885.4944,1.0,1.0,1.0
44.1,895.9889,1.0,1.0,1.0
44.11,848.4833,1.0,1.0,1.0
44.12,890.4278,1.0,1.0,1.0
44.13,951.5833,1.0,1.0,1.0
44.14,957.5167,1.0,1.0,1.0
44.15,943.4944,1.0,1.0,1.0
44.16,968.4611,1.0,1.0,1.0
44.17,945.4944,1.0,1.0,1.0
44.18,917.0111,1.0,1.0,1.0
44.19,897.0333,1.0,1.0,1.0
44.2,920.9778,1.0,1.0,1.0
44.21,957.0111,1.0,1.0,1.0
44.22,929.4833,1.0,1.0,1.0
44.23,864.0,1.0,1.0,1.0
44.24,847.0,1.0,1.0,1.0
44.25,879.5167,1.0,1.0,1.0
44.26,866.9889,1.0,1.0,1.0
44.27,852.5278,1.0,1.0,1.0
44.28,817.4833,1.0,1.0,1.0
44.29,778.4611,1.0,1.0,1.0
44.3,736.0333,1.0,1.0,1.0
44.31,750.5056,1.0,1.0,1.0
44.32,745.0111,1.0,1.0,1.0
44.33,726.4944,1.0,1.0,1.0
44.34,713.5167,1.0,1.0,1.0
44.35,664.45,1.0,1.0,1.0
44.36,655.5389,1.0,1.0,1.0
44.37,663.0,1.0,1.0,1.0
44.38,612.0222,1.0,1.0,1.0
44.39,590.5056,1.0,1.0,1.0
44.4,613.9778,1.0,1.0,1.0
44.41,540.0111,1.0,1.0,1.0
44.42,571.0,1.0,1.0,1.0
44.43,498.5278,1.0,1.0,1.0
44.44,508.9556,1.0,1.0,1.0
44.45,468.0444,1.0,1.0,1.0
44.46,468.4833,1.0,1.0,1.0
44.47,442.4833,1.0,1.0,1.0
44.48,466.5167,1.0,1.0,1.0
44.49,441.5056,1.0,1.0,1.0
44.5,425.0111,1.0,1.0,1.0
44.51,386.5056,1.0,1.0,1.0
44.52,374.9445,1.0,1.0,1.0
44.53,358.5278,1.0,1.0,1.0
44.54,357.5278,1.0,1.0,1.0
44.55,324.0111,1.0,1.0,1.0
44.56,280.4833,1.0,1.0,1.0
44.57,347.9889,1.0,1.0,1.0
44.58,331.9889,1.0,1.0,1.0
44.59,270.5278,1.0,1.0,1.0
44.6,288.4833,1.0,1.0,1.0
44.61,302.5056,1.0,1.0,1.0
44.62,286.4944,1.0,1.0,1.0
44.63,285.0222,1.0,1.0,1.0
44.64,280.4833,1.0,1.0,1.0
44.65,280.0,1.0,1.0,1.0
44.66,291.9889,1.0,1.0,1.0
44.67,297.0111,1.0,1.0,1.0
44.68,300.9889,1.0,1.0,1.0
44.69,298.5056,1.0,1.0,1.0
44.7,363.4944,1.0,1.0,1.0
44.71,300.0333,1.0,1.0,1.0
44.72,331.5056,1.0,1.0,1.0
44.73,306.9667,1.0,1.0,1.0
44.74,385.0,1.0,1.0,1.0
44.75,332.4944,1.0,1.0,1.0
44.76,339.4944,1.0,1.0,1.0
44.77,374.5167,1.0,1.0,1.0
44.78,350.4833,1.0,1.0,1.0
44.79,351.9778,1.0,1.0,1.0
44.8,388.5167,1.0,1.0,1.0
44.81,407.4833,1.0,1.0,1.0
44.82,437.5278,1.0,1.0,1.0
44.83,387.9889,1.0,1.0,1.0
44.84,435.5056,1.0,1.0,1.0
44.85,451.0111,1.0,1.0,1.0
44.86,461.4944,1.0,1.0,1.0
44.87,495.9889,1.0,1.0,1.0
44.88,528.5056,1.0,1.0,1.0
44.89,576.4833,1.0,1.0,1.0
44.9,554.9778,1.0,1.0,1.0
44.91,535.55,1.0,1.0,1.0
44.92,506.4833,1.0,1.0,1.0
44.93,560.45,1.0,1.0,1.0
44.94,537.0222,1.0,1.0,1.0
44.95,573.5056,1.0,1.0,1.0
44.96,625.4722,1.0,1.0,1.0
44.97,616.0,1.0,1.0,1.0
44.98,623.55,1.0,1.0,1.0
44.99,631.9778,1.0,1.0,1.0
45.0,540.4944,1.0,1.0,1.0
45.01,664.5056,1.0,1.0,1.0
45.02,631.4833,1.0,1.0,1.0
45.03,659.0444,1.0,1.0,1.0
45.04,628.0,1.0,1.0,1.0
45.05,647.5056,1.0,1.0,1.0
45.06,638.4389,1.0,1.0,1.0
45.07,676.0111,1.0,1.0,1.0
45.08,673.5611,1.0,1.0,1.0
45.09,729.4278,1.0,1.0,1.0
45.1,700.0444,1.0,1.0,1.0
45.11,623.0,1.0,1.0,1.0
45.12,727.4833,1.0,1.0,1.0
45.13,681.9889,1.0,1.0,1.0
45.14,661.0444,1.0,1.0,1.0
45.15,640.9556,1.0,1.0,1.0
45.16,667.5167,1.0,1.0,1.0
45.17,635.0111,1.0,1.0,1.0
45.18,668.0,1.0,1.0,1.0
45.19,637.4722,1.0,1.0,1.0
45.2,637.4944,1.0,1.0,1.0
45.21,608.5167,1.0,1.0,1.0
45.22,652.0222,1.0,1.0,1.0
45.23,600.0,1.0,1.0,1.0
45.24,586.4944,1.0,1.0,1.0
45.25,632.0111,1.0,1.0,1.0
45.26,601.5056,1.0,1.0,1.0
45.27,603.9778,1.0,1.0,1.0
45.28,572.4722,1.0,1.0,1.0
45.29,576.0222,1.0,1.0,1.0
45.3,552.0111,1.0,1.0,1.0
45.31,599.0222,1.0,1.0,1.0
45.32,581.4833,1.0,1.0,1.0
45.33,581.5056,1.0,1.0,1.0
45.34,541.9889,1.0,1.0,1.0
45.35,533.0222,1.0,1.0,1.0
45.36,544.9778,1.0,1.0,1.0
45.37,488.5167,1.0,1.0,1.0
45.38,503.0333,1.0,1.0,1.0
45.39,569.9556,1.0,1.0,1.0
45.4,550.0,1.0,1.0,1.0
45.41,515.0111,1.0,1.0,1.0
45.42,517.4611,1.0,1.0,1.0
45.43,527.5278,1.0,1.0,1.0
45.44,585.45,1.0,1.0,1.0
45.45,476.5278,1.0,1.0,1.0
45.46,506.0111,1.0,1.0,1.0
45.47,505.0111,1.0,1.0,1.0
45.48,547.4833,1.0,1.0,1.0
45.49,469.5278,1.0,1.0,1.0
45.5,533.4722,1.0,1.0,1.0
45.51,489.9889,1.0,1.0,1.0
45.52,521.5167,1.0,1.0,1.0
45.53,532.5167,1.0,1.0,1.0
45.54,561.4833,1.0,1.0,1.0
45.55,556.9889,1.0,1.0,1.0
45.56,647.0333,1.0,1.0,1.0
45.57,578.9556,1.0,1.0,1.0
45.58,592.5167,1.0,1.0,1.0
45.59,603.9889,1.0,1.0,1.0
45.6,638.9778,1.0,1.0,1.0
45.61,651.5389,1.0,1.0,1.0
45.62,647.5167,1.0,1.0,1.0
45.63,632.5056,1.0,1.0,1.0
45.64,697.4611,1.0,1.0,1.0
45.65,702.4833,1.0,1.0,1.0
45.66,703.5611,1.0,1.0,1.0
45.67,708.4167,1.0,1.0,1.0
45.68,814.0333,1.0,1.0,1.0
45.69,790.9889,1.0,1.0,1.0
45.7,814.5167,1.0,1.0,1.0
45.71,804.4833,1.0,1.0,1.0
45.72,884.0222,1.0,1.0,1.0
45.73,852.9778,1.0,1.0,1.0
45.74,883.9889,1.0,1.0,1.0
45.75,912.0111,1.0,1.0,1.0
45.76,960.0,1.0,1.0,1.0
45.77,1004.01,1.0,1.0,1.0
45.78,1001.48,1.0,1.0,1.0
45.79,1063.0,1.0,1.0,1.0
45.8,1074.47,1.0,1.0,1.0
45.81,1183.52,1.0,1.0,1.0
45.82,1119.01,1.0,1.0,1.0
45.83,1175.01,1.0,1.0,1.0
45.84,1140.98,1.0,1.0,1.0
45.85,1216.48,1.0,1.0,1.0
45.86,1238.45,1.0,1.0,1.0
45.87,1273.04,1.0,1.0,1.0
45.88,1328.96,1.0,1.0,1.0
45.89,1363.53,1.0,1.0,1.0
45.9,1448.48,1.0,1.0,1.0
45.91,1430.46,1.0,1.0,1.0
45.92,1481.03,1.0,1.0,1.0
45.93,1524.51,1.0,1.0,1.0
45.94,1621.01,1.0,1.0,1.0
45.95,1568.47,1.0,1.0,1.0
45.96,1635.03,1.0,1.0,1.0
45.97,1735.48,1.0,1.0,1.0
45.98,1801.02,1.0,1.0,1.0
45.99,1752.0,1.0,1.0,1.0
46.0,1868.37,1.0,1.0,1.0
46.01,1955.49,1.0,1.0,1.0
46.02,1951.52,1.0,1.0,1.0
46.03,2147.03,1.0,1.0,1.0
46.04,2100.07,1.0,1.0,1.0
46.05,2062.91,1.0,1.0,1.0
46.06,2216.46,1.0,1.0,1.0
46.07,2304.57,1.0,1.0,1.0
46.08,2418.96,1.0,1.0,1.0
46.09,2478.49,1.0,1.0,1.0
46.1,2450.97,1.0,1.0,1.0
46.11,2638.57,1.0,1.0,1.0
46.12,2679.42,1.0,1.0,1.0
46.13,2848.01,1.0,1.0,1.0
46.14,2960.91,1.0,1.0,1.0
46.15,3193.14,1.0,1.0,1.0
46.16,3178.93,1.0,1.0,1.0
46.17,3360.89,1.0,1.0,1.0
46.18,3504.59,1.0,1.0,1.0
46.19,3873.43,1.0,1.0,1.0
46.2,4033.43,1.0,1.0,1.0
46.21,4280.02,1.0,1.0,1.0
46.22,4487.439,1.0,1.0,1.0
46.23,4818.45,1.0,1.0,1.0
46.24,4977.43,1.0,1.0,1.0
46.25,5465.45,1.0,1.0,1.0
46.26,5923.06,1.0,1.0,1.0
46.27,6416.46,1.0,1.0,1.0
46.28,7139.33,1.0,1.0,1.0
46.29,7909.92,1.0,1.0,1.0
46.3,8690.94,1.0,1.0,1.0
46.31,9727.28,1.0,1.0,1.0
46.32,11151.4,1.0,1.0,1.0
46.33,13089.1,1.0,1.0,1.0
46.34,15343.3,1.0,1.0,1.0
46.35,18830.5,1.0,1.0,1.0
46.36,24341.3,1.0,1.0,1.0
46.37,32912.1,1.0,1.0,1.0
46.38,47899.668,1.0,1.0,1.0
46.39,74189,1.0,1.0,1.0
46.4,121256,1.0,1.0,1.0
46.41,188279,1.0,1.0,1.0
46.42,277871,1.0,1.0,1.0
46.43,397055,1.0,1.0,1.0
46.44,567013.75,1.0,1.0,1.0
46.45,814597.125,1.0,1.0,1.0
46.46,1200390.875,1.0,1.0,1.0
46.47,1868038.75,1.0,1.0,1.0
46.48,3490758.0,1.0,1.0,1.0
46.49,9887479.0,1.0,1.0,1.0
46.5,23887950.0,1.0,1.0,1.0
46.51,29845924.0,1.0,1.0,1.0
46.52,22197048.0,1.0,1.0,1.0
46.53,11860559.0,1.0,1.0,1.0
46.54,2746345.75,1.0,1.0,1.0
46.55,852721.0,1.0,1.0,1.0
46.56,408053.875,1.0,1.0,1.0
46.57,211710,1.0,1.0,1.0
46.58,118198,1.0,1.0,1.0
46.59,70752.4,1.0,1.0,1.0
46.6,44963.5,1.0,1.0,1.0
46.61,32397.7,1.0,1.0,1.0
46.62,24729.2,1.0,1.0,1.0
46.63,19486.3,1.0,1.0,1.0
46.64,16077.4,1.0,1.0,1.0
46.65,13315.7,1.0,1.0,1.0
46.66,11277,1.0,1.0,1.0
46.67,9670.52,1.0,1.0,1.0
46.68,8369.74,1.0,1.0,1.0
46.69,7442.11,1.0,1.0,1.0
46.7,6538.08,1.0,1.0,1.0
46.71,5773.59,1.0,1.0,1.0
46.72,5193.45,1.0,1.0,1.0
46.73,4673.62,1.0,1.0,1.0
46.74,4067.46,1.0,1.0,1.0
46.75,3770.63,1.0,1.0,1.0
46.76,3342.53,1.0,1.0,1.0
46.77,3129.0,1.0,1.0,1.0
46.78,2824.07,1.0,1.0,1.0
46.79,2571.561,1.0,1.0,1.0
46.8,2333.48,1.0,1.0,1.0
46.81,2156.54,1.0,1.0,1.0
46.82,2086.9,1.0,1.0,1.0
46.83,1882.13,1.0,1.0,1.0
46.84,1765.51,1.0,1.0,1.0
46.85,1571.48,1.0,1.0,1.0
46.86,1487.01,1.0,1.0,1.0
46.87,1459.55,1.0,1.0,1.0
46.88,1384.96,1.0,1.0,1.0
46.89,1187.57,1.0,1.0,1.0
46.9,1182.49,1.0,1.0,1.0
46.91,1162.49,1.0,1.0,1.0
46.92,1065.52,1.0,1.0,1.0
46.93,1005.48,1.0,1.0,1.0
46.94,911.9556,1.0,1.0,1.0
46.95,849.0778,1.0,1.0,1.0
46.96,830.45,1.0,1.0,1.0
46.97,806.5389,1.0,1.0,1.0
46.98,721.4833,1.0,1.0,1.0
46.99,679.4944,1.0,1.0,1.0
47.0,705.5167,1.0,1.0,1.0
47.01,706.4944,1.0,1.0,1.0
47.02,620.0222,1.0,1.0,1.0
47.03,618.9889,1.0,1.0,1.0
47.04,552.0,1.0,1.0,1.0
47.05,530.0333,1.0,1.0,1.0
47.06,485.5056,1.0,1.0,1.0
47.07,504.0111,1.0,1.0,1.0
47.08,499.4833,1.0,1.0,1.0
47.09,397.4944,1.0,1.0,1.0
47.1,443.5167,1.0,1.0,1.0
47.11,468.5056,1.0,1.0,1.0
47.12,386.9667,1.0,1.0,1.0
47.13,365.5278,1.0,1.0,1.0
47.14,394.4944,1.0,1.0,1.0
47.15,384.0,1.0,1.0,1.0
47.16,367.0,1.0,1.0,1.0
47.17,352.0111,1.0,1.0,1.0
47.18,347.9778,1.0,1.0,1.0
47.19,312.5056,1.0,1.0,1.0
47.2,326.0222,1.0,1.0,1.0
47.21,336.9778,1.0,1.0,1.0
47.22,327.5278,1.0,1.0,1.0
47.23,310.4833,1.0,1.0,1.0
47.24,295.4944,1.0,1.0,1.0
47.25,298.5389,1.0,1.0,1.0
47.26,270.9889,1.0,1.0,1.0
47.27,258.9778,1.0,1.0,1.0
47.28,258.0,1.0,1.0,1.0
47.29,247.5167,1.0,1.0,1.0
47.3,215.0111,1.0,1.0,1.0
47.31,212.9778,1.0,1.0,1.0
47.32,253.5278,1.0,1.0,1.0
47.33,252.9667,1.0,1.0,1.0
47.34,219.0,1.0,1.0,1.0
47.35,210.0,1.0,1.0,1.0
47.36,176.0222,1.0,1.0,1.0
47.37,176.4833,1.0,1.0,1.0
47.38,156.5167,1.0,1.0,1.0
47.39,207.4833,1.0,1.0,1.0
47.4,155.0111,1.0,1.0,1.0
47.41,182.9889,1.0,1.0,1.0
47.42,127.5056,1.0,1.0,1.0
47.43,144.5056,1.0,1.0,1.0
47.44,154.9889,1.0,1.0,1.0
47.45,155.5167,1.0,1.0,1.0
47.46,120.0111,1.0,1.0,1.0
47.47,132.4833,1.0,1.0,1.0
47.48,140.5167,1.0,1.0,1.0
47.49,137.4833,1.0,1.0,1.0
47.5,114.0,1.0,1.0,1.0
47.51,106.5056,1.0,1.0,1.0
47.52,113.9889,1.0,1.0,1.0
47.53,102.5167,1.0,1.0,1.0
47.54,73.4944,1.0,1.0,1.0
47.55,88.0,1.0,1.0,1.0
47.56,83.5056,1.0,1.0,1.0
47.57,90.0,1.0,1.0,1.0
47.58,94.4944,1.0,1.0,1.0
47.59,90.5056,1.0,1.0,1.0
47.6,63.9778,1.0,1.0,1.0
47.61,66.5278,1.0,1.0,1.0
47.62,63.9889,1.0,1.0,1.0
47.63,91.5056,1.0,1.0,1.0
47.64,79.9889,1.0,1.0,1.0
47.65,92.5167,1.0,1.0,1.0
47.66,67.4944,1.0,1.0,1.0
47.67,51.5056,1.0,1.0,1.0
47.68,58.0,1.0,1.0,1.0
47.69,63.4944,1.0,1.0,1.0
47.7,77.5056,1.0,1.0,1.0
47.71,51.0,1.0,1.0,1.0
47.72,36.0,1.0,1.0,1.0
47.73,58.9889,1.0,1.0,1.0
47.74,59.5056,1.0,1.0,1.0
47.75,68.0,1.0,1.0,1.0
47.76,68.5056,1.0,1.0,1.0
47.77,38.0,1.0,1.0,1.0
47.78,30.9889,1.0,1.0,1.0
47.79,34.5056,1.0,1.0,1.0
47.8,43.0,1.0,1.0,1.0
47.81,64.0,1.0,1.0,1.0
47.82,41.4944,1.0,1.0,1.0
47.83,46.5056,1.0,1.0,1.0
47.84,38.0,1.0,1.0,1.0
47.85,29.9889,1.0,1.0,1.0
47.86,43.0111,1.0,1.0,1.0
47.87,33.9889,1.0,1.0,1.0
47.88,33.5167,1.0,1.0,1.0
47.89,38.4944,1.0,1.0,1.0
47.9,43.4944,1.0,1.0,1.0
47.91,35.5056,1.0,1.0,1.0
47.92,39.5056,1.0,1.0,1.0
47.93,32.4944,1.0,1.0,1.0
47.94,34.5056,1.0,1.0,1.0
47.95,35.0,1.0,1.0,1.0
47.96,49.4944,1.0,1.0,1.0
47.97,44.5056,1.0,1.0,1.0
47.98,40.0,1.0,1.0,1.0
47.99,47.4944,1.0,1.0,1.0
48.0,18.5056,1.0,1.0,1.0
48.01,28.9889,1.0,1.0,1.0
48.02,38.5056,1.0,1.0,1.0
48.03,31.5056,1.0,1.0,1.0
48.04,24.0,1.0,1.0,1.0
48.05,35.4944,1.0,1.0,1.0
48.06,32.5056,1.0,1.0,1.0
48.07,30.9889,1.0,1.0,1.0
48.08,26.0,1.0,1.0,1.0
48.09,29.0111,1.0,1.0,1.0
48.1,32.0,1.0,1.0,1.0
48.11,29.4944,1.0,1.0,1.0
48.12,29.0,1.0,1.0,1.0
48.13,25.5056,1.0,1.0,1.0
48.14,23.4944,1.0,1.0,1.0
48.15,13.5056,1.0,1.0,1.0
48.16,30.0,1.0,1.0,1.0
48.17,35.4944,1.0,1.0,1.0
48.18,28.5056,1.0,1.0,1.0
48.19,33.4944,1.0,1.0,1.0
48.2,16.0,1.0,1.0,1.0
48.21,22.5056,1.0,1.0,1.0
48.22,32.4944,1.0,1.0,1.0
48.23,21.5056,1.0,1.0,1.0
48.24,17.4944,1.0,1.0,1.0
48.25,22.5056,1.0,1.0,1.0
48.26,7.0,1.0,1.0,1.0
48.27,18.4944,1.0,1.0,1.0
48.28,21.5056,1.0,1.0,1.0
48.29,16.0,1.0,1.0,1.0
48.3,23.4944,1.0,1.0,1.0
48.31,23.5056,1.0,1.0,1.0
48.32,13.0,1.0,1.0,1.0
48.33,34.4944,1.0,1.0,1.0
48.34,26.5056,1.0,1.0,1.0
48.35,22.0,1.0,1.0,1.0
48.36,30.0,1.0,1.0,1.0
48.37,20.0,1.0,1.0,1.0
48.38,25.0,1.0,1.0,1.0
48.39,12.0,1.0,1.0,1.0
48.4,10.9889,1.0,1.0,1.0
48.41,21.0111,1.0,1.0,1.0
48.42,25.0,1.0,1.0,1.0
48.43,11.0,1.0,1.0,1.0
48.44,13.0,1.0,1.0,1.0
48.45,15.0,1.0,1.0,1.0
48.46,20.0,1.0,1.0,1.0
48.47,11.4944,1.0,1.0,1.0
48.48,10.5056,1.0,1.0,1.0
48.49,17.0,1.0,1.0,1.0
48.5,14.0,1.0,1.0,1.0
48.51,23.4944,1.0,1.0,1.0
48.52,13.4944,1.0,1.0,1.0
48.53,21.0111,1.0,1.0,1.0
48.54,20.0,1.0,1.0,1.0
48.55,5.0,1.0,1.0,1.0
48.56,14.0,1.0,1.0,1.0
48.57,9.0,1.0,1.0,1.0
48.58,20.0,1.0,1.0,1.0
48.59,13.0,1.0,1.0,1.0
48.6,10.0,1.0,1.0,1.0
48.61,4.0,1.0,1.0,1.0
48.62,5.0,1.0,1.0,1.0
48.63,14.0,1.0,1.0,1.0
48.64,7.0,1.0,1.0,1.0
48.65,16.0,1.0,1.0,1.0
48.66,0.4944,1.0,1.0,1.0
48.67,10.5056,1.0,1.0,1.0
48.68,11.0,1.0,1.0,1.0
48.69,19.0,1.0,1.0,1.0
48.7,11.0,1.0,1.0,1.0
48.71,9.0,1.0,1.0,1.0
48.72,4.4944,1.0,1.0,1.0
48.73,10.5056,1.0,1.0,1.0
48.74,9.0,1.0,1.0,1.0
48.75,2.0,1.0,1.0,1.0
48.76,6.0,1.0,1.0,1.0
48.77,3.0,1.0,1.0,1.0
48.78,12.0,1.0,1.0,1.0
48.79,19.0,1.0,1.0,1.0
48.8,1.4944,1.0,1.0,1.0
48.81,10.5056,1.0,1.0,1.0
48.82,14.0,1.0,1.0,1.0
48.83,7.0,1.0,1.0,1.0
48.84,13.4944,1.0,1.0,1.0
48.85,12.5056,1.0,1.0,1.0
48.86,5.0,1.0,1.0,1.0
48.87,8.0,1.0,1.0,1.0
48.88,6.0,1.0,1.0,1.0
48.89,14.4944,1.0,1.0,1.0
48.9,19.4944,1.0,1.0,1.0
48.91,1.5056,1.0,1.0,1.0
48.92,14.5056,1.0,1.0,1.0
48.93,21.4944,1.0,1.0,1.0
48.94,6.0,1.0,1.0,1.0
48.95,15.0,1.0,1.0,1.0
48.96,5.5056,1.0,1.0,1.0
48.97,4.0,1.0,1.0,1.0
48.98,3.4944,1.0,1.0,1.0
48.99,7.5056,1.0,1.0,1.0
49.0,13.0,1.0,1.0,1.0
49.01,10.0,1.0,1.0,1.0
49.02,4.0,1.0,1.0,1.0
49.03,6.0,1.0,1.0,1.0
49.04,9.4944,1.0,1.0,1.0
49.05,6.5056,1.0,1.0,1.0
49.06,5.0,1.0,1.0,1.0
49.07,13.0,1.0,1.0,1.0
49.08,9.0,1.0,1.0,1.0
49.09,8.0,1.0,1.0,1.0
49.1,10.0,1.0,1.0,1.0
49.11,7.0,1.0,1.0,1.0
49.12,9.0,1.0,1.0,1.0
49.13,8.0,1.0,1.0,1.0
49.14,11.0,1.0,1.0,1.0
49.15,12.0,1.0,1.0,1.0
49.16,17.0,1.0,1.0,1.0
49.17,5.0,1.0,1.0,1.0
49.18,13.9889,1.0,1.0,1.0
49.19,5.0,1.0,1.0,1.0
49.2,1.0111,1.0,1.0,1.0
49.21,10.0,1.0,1.0,1.0
49.22,7.4944,1.0,1.0,1.0
49.23,13.5056,1.0,1.0,1.0
49.24,17.0,1.0,1.0,1.0
49.25,11.0,1.0,1.0,1.0
49.26,13.0,1.0,1.0,1.0
49.27,2.0,1.0,1.0,1.0
49.28,12.0,1.0,1.0,1.0
49.29,2.0,1.0,1.0,1.0
49.3,3.0,1.0,1.0,1.0
49.31,26.0,1.0,1.0,1.0
49.32,5.4944,1.0,1.0,1.0
49.33,8.5056,1.0,1.0,1.0
49.34,6.0,1.0,1.0,1.0
49.35,6.4944,1.0,1.0,1.0
49.36,12.5056,1.0,1.0,1.0
49.37,5.4944,1.0,1.0,1.0
49.38,3.5056,1.0,1.0,1.0
49.39,8.0,1.0,1.0,1.0
49.4,8.0,1.0,1.0,1.0
49.41,9.0,1.0,1.0,1.0
49.42,15.4944,1.0,1.0,1.0
49.43,5.5056,1.0,1.0,1.0
49.44,9.9889,1.0,1.0,1.0
49.45,3.0111,1.0,1.0,1.0
49.46,8.0,1.0,1.0,1.0
49.47,7.4944,1.0,1.0,1.0
49.48,21.0,1.0,1.0,1.0
49.49,9.0,1.0,1.0,1.0
49.5,12.0,1.0,1.0,1.0
49.51,6.0,1.0,1.0,1.0
49.52,8.4944,1.0,1.0,1.0
49.53,11.0111,1.0,1.0,1.0
49.54,5.0,1.0,1.0,1.0
49.55,5.0,1.0,1.0,1.0
49.56,12.0,1.0,1.0,1.0
49.57,13.0,1.0,1.0,1.0
49.58,5.0,1.0,1.0,1.0
49.59,8.0,1.0,1.0,1.0
49.6,5.0,1.0,1.0,1.0
49.61,7.0,1.0,1.0,1.0
49.62,9.0,1.0,1.0,1.0
49.63,12.0,1.0,1.0,1.0
49.64,4.0,1.0,1.0,1.0
49.65,5.0,1.0,1.0,1.0
49.66,6.0,1.0,1.0,1.0
49.67,4.0,1.0,1.0,1.0
49.68,5.0,1.0,1.0,1.0
49.69,0.0,1.0,1.0,1.0
49.7,5.4944,1.0,1.0,1.0
49.71,3.5056,1.0,1.0,1.0
49.72,2.0,1.0,1.0,1.0
49.73,2.0,1.0,1.0,1.0
49.74,8.0,1.0,1.0,1.0
49.75,7.0,1.0,1.0,1.0
49.76,4.0,1.0,1.0,1.0
49.77,5.0,1.0,1.0,1.0
49.78,15.0,1.0,1.0,1.0
49.79,12.0,1.0,1.0,1.0
49.8,4.0,1.0,1.0,1.0
49.81,4.0,1.0,1.0,1.0
49.82,6.0,1.0,1.0,1.0
49.83,8.0,1.0,1.0,1.0
49.84,7.0,1.0,1.0,1.0
49.85,4.0,1.0,1.0,1.0
49.86,6.0,1.0,1.0,1.0
49.87,2.0,1.0,1.0,1.0
49.88,11.0,1.0,1.0,1.0
49.89,8.4944,1.0,1.0,1.0
49.9,7.5056,1.0,1.0,1.0
49.91,6.0,1.0,1.0,1.0
49.92,0.0,1.0,1.0,1.0
49.93,0.0,1.0,1.0,1.0
49.94,13.0,1.0,1.0,1.0
49.95,8.0,1.0,1.0,1.0
49.96,5.0,1.0,1.0,1.0
49.97,4.4944,1.0,1.0,1.0
49.98,12.5056,1.0,1.0,1.0
49.99,2.0,1.0,1.0,1.0
50.0,0.0,1.0,1.0,1.0
50.01,8.0,1.0,1.0,1.0
50.02,5.0,1.0,1.0,1.0
50.03,7.0,1.0,1.0,1.0
50.04,5.0,1.0,1.0,1.0
50.05,13.0,1.0,1.0,1.0
50.06,6.0,1.0,1.0,1.0
50.07,6.0,1.0,1.0,1.0
50.08,14.0,1.0,1.0,1.0
50.09,10.0,1.0,1.0,1.0
50.1,2.0,1.0,1.0,1.0
50.11,6.0,1.0,1.0,1.0
50.12,2.0,1.0,1.0,1.0
50.13,5.0,1.0,1.0,1.0
50.14,8.0,1.0,1.0,1.0
50.15,5.0,1.0,1.0,1.0
50.16,2.0,1.0,1.0,1.0
50.17,10.0,1.0,1.0,1.0
50.18,7.0,1.0,1.0,1.0
50.19,2.0,1.0,1.0,1.0
50.2,12.4944,1.0,1.0,1.0
50.21,8.5056,1.0,1.0,1.0
50.22,5.0,1.0,1.0,1.0
50.23,0.0,1.0,1.0,1.0
50.24,6.0,1.0,1.0,1.0
50.25,4.0,1.0,1.0,1.0
50.26,6.0,1.0,1.0,1.0
50.27,8.0,1.0,1.0,1.0
50.28,8.0,1.0,1.0,1.0
50.29,8.0,1.0,1.0,1.0
50.3,9.0,1.0,1.0,1.0
50.31,10.0,1.0,1.0,1.0
50.32,3.0,1.0,1.0,1.0
50.33,6.0,1.0,1.0,1.0
50.34,7.0,1.0,1.0,1.0
50.35,2.0,1.0,1.0,1.0
50.36,4.0,1.0,1.0,1.0
50.37,4.4944,1.0,1.0,1.0
50.38,3.0,1.0,1.0,1.0
50.39,8.5056,1.0,1.0,1.0
50.4,5.0,1.0,1.0,1.0
50.41,7.4944,1.0,1.0,1.0
50.42,7.5056,1.0,1.0,1.0
50.43,6.0,1.0,1.0,1.0
50.44,5.0,1.0,1.0,1.0
50.45,7.0,1.0,1.0,1.0
50.46,6.0,1.0,1.0,1.0
50.47,2.0,1.0,1.0,1.0
50.48,2.4944,1.0,1.0,1.0
50.49,10.0,1.0,1.0,1.0
50.5,8.0,1.0,1.0,1.0
50.51,3.5056,1.0,1.0,1.0
50.52,8.0,1.0,1.0,1.0
50.53,6.0,1.0,1.0,1.0
50.54,3.4944,1.0,1.0,1.0
50.55,7.0,1.0,1.0,1.0
50.56,10.5056,1.0,1.0,1.0
50.57,4.0,1.0,1.0,1.0
50.58,5.0,1.0,1.0,1.0
50.59,4.0,1.0,1.0,1.0
50.6,8.0,1.0,1.0,1.0
50.61,2.0,1.0,1.0,1.0
50.62,9.0,1.0,1.0,1.0
50.63,4.0,1.0,1.0,1.0
50.64,5.0,1.0,1.0,1.0
50.65,9.0,1.0,1.0,1.0
50.66,7.0,1.0,1.0,1.0
50.67,7.0,1.0,1.0,1.0
50.68,2.0,1.0,1.0,1.0
50.69,2.0,1.0,1.0,1.0
50.7,7.0,1.0,1.0,1.0
50.71,4.0,1.0,1.0,1.0
50.72,9.0,1.0,1.0,1.0
50.73,7.0,1.0,1.0,1.0
50.74,9.0,1.0,1.0,1.0
50.75,13.0,1.0,1.0,1.0
50.76,7.0,1.0,1.0,1.0
50.77,6.0,1.0,1.0,1.0
50.78,7.0,1.0,1.0,1.0
50.79,5.0,1.0,1.0,1.0
50.8,3.0,1.0,1.0,1.0
50.81,7.0,1.0,1.0,1.0
50.82,8.0,1.0,1.0,1.0
50.83,0.0,1.0,1.0,1.0
50.84,3.0,1.0,1.0,1.0
50.85,13.0,1.0,1.0,1.0
50.86,7.0,1.0,1.0,1.0
50.87,10.0,1.0,1.0,1.0
50.88,0.0,1.0,1.0,1.0
50.89,9.0,1.0,1.0,1.0
50.9,6.0,1.0,1.0,1.0
50.91,4.0,1.0,1.0,1.0
50.92,2.0,1.0,1.0,1.0
50.93,14.0,1.0,1.0,1.0
50.94,14.0,1.0,1.0,1.0
50.95,6.0,1.0,1.0,1.0
50.96,4.0,1.0,1.0,1.0
50.97,9.0,1.0,1.0,1.0
50.98,8.0,1.0,1.0,1.0
50.99,7.0,1.0,1.0,1.0
51.0,12.0,1.0,1.0,1.0
51.01,2.0,1.0,1.0,1.0
51.02,3.4944,1.0,1.0,1.0
51.03,2.5056,1.0,1.0,1.0
51.04,1.0,1.0,1.0,1.0
51.05,0.0,1.0,1.0,1.0
51.06,7.0,1.0,1.0,1.0
51.07,8.0,1.0,1.0,1.0
51.08,10.0,1.0,1.0,1.0
51.09,7.4944,1.0,1.0,1.0
51.1,18.5056,1.0,1.0,1.0
51.11,15.0,1.0,1.0,1.0
51.12,6.4944,1.0,1.0,1.0
51.13,7.5056,1.0,1.0,1.0
51.14,6.0,1.0,1.0,1.0
51.15,0.0,1.0,1.0,1.0
51.16,2.0,1.0,1.0,1.0
51.17,6.0,1.0,1.0,1.0
51.18,4.0,1.0,1.0,1.0
51.19,12.0,1.0,1.0,1.0
51.2,8.0,1.0,1.0,1.0
51.21,10.4944,1.0,1.0,1.0
51.22,10.4944,1.0,1.0,1.0
51.23,5.0111,1.0,1.0,1.0
51.24,2.0,1.0,1.0,1.0
51.25,13.0,1.0,1.0,1.0
51.26,0.0,1.0,1.0,1.0
51.27,8.0,1.0,1.0,1.0
51.28,3.0,1.0,1.0,1.0
51.29,6.0,1.0,1.0,1.0
51.3,5.0,1.0,1.0,1.0
51.31,5.0,1.0,1.0,1.0
51.32,6.0,1.0,1.0,1.0
51.33,12.0,1.0,1.0,1.0
51.34,8.0,1.0,1.0,1.0
51.35,9.0,1.0,1.0,1.0
51.36,7.4944,1.0,1.0,1.0
51.37,3.5056,1.0,1.0,1.0
51.38,10.0,1.0,1.0,1.0
51.39,0.0,1.0,1.0,1.0
51.4,2.0,1.0,1.0,1.0
51.41,12.0,1.0,1.0,1.0
51.42,4.0,1.0,1.0,1.0
51.43,2.0,1.0,1.0,1.0
51.44,0.0,1.0,1.0,1.0
51.45,1.4944,1.0,1.0,1.0
51.46,31.0,1.0,1.0,1.0
51.47,6.5056,1.0,1.0,1.0
51.48,4.0,1.0,1.0,1.0
51.49,0.4944,1.0,1.0,1.0
51.5,1.5056,1.0,1.0,1.0
51.51,10.0,1.0,1.0,1.0
51.52,7.0,1.0,1.0,1.0
51.53,4.0,1.0,1.0,1.0
51.54,6.0,1.0,1.0,1.0
51.55,9.0,1.0,1.0,1.0
51.56,3.4944,1.0,1.0,1.0
51.57,5.5056,1.0,1.0,1.0
51.58,7.0,1.0,1.0,1.0
51.59,11.0,1.0,1.0,1.0
51.6,13.0,1.0,1.0,1.0
51.61,9.0,1.0,1.0,1.0
51.62,3.0,1.0,1.0,1.0
51.63,15.0,1.0,1.0,1.0
51.64,2.0,1.0,1.0,1.0
51.65,9.0,1.0,1.0,1.0
51.66,10.0,1.0,1.0,1.0
51.67,7.4944,1.0,1.0,1.0
51.68,12.5056,1.0,1.0,1.0
51.69,0.0,1.0,1.0,1.0
51.7,8.0,1.0,1.0,1.0
51.71,0.0,1.0,1.0,1.0
51.72,7.0,1.0,1.0,1.0
51.73,9.0,1.0,1.0,1.0
51.74,0.0,1.0,1.0,1.0
51.75,3.0,1.0,1.0,1.0
51.76,5.4944,1.0,1.0,1.0
51.77,7.5056,1.0,1.0,1.0
51.78,22.0,1.0,1.0,1.0
51.79,0.0,1.0,1.0,1.0
51.8,7.0,1.0,1.0,1.0
51.81,3.0,1.0,1.0,1.0
51.82,0.0,1.0,1.0,1.0
51.83,3.0,1.0,1.0,1.0
51.84,10.0,1.0,1.0,1.0
51.85,7.0,1.0,1.0,1.0
51.86,0.4944,1.0,1.0,1.0
51.87,6.5056,1.0,1.0,1.0
51.88,3.0,1.0,1.0,1.0
51.89,10.0,1.0,1.0,1.0
51.9,3.0,1.0,1.0,1.0
51.91,2.0,1.0,1.0,1.0
51.92,6.0,1.0,1.0,1.0
51.93,0.0,1.0,1.0,1.0
51.94,4.0,1.0,1.0,1.0
51.95,9.0,1.0,1.0,1.0
51.96,7.0,1.0,1.0,1.0
51.97,12.0,1.0,1.0,1.0
51.98,2.0,1.0,1.0,1.0
51.99,12.0,1.0,1.0,1.0
52.0,9.0,1.0,1.0,1.0