File: XRD:XRR/LCO/22152_LCOL/22152_LCOL_XRD.csv
#twotheta, yobs, ycal, bkg, diff
42.0,46.5056,1.0,1.0,1.0
42.01,40.0,1.0,1.0,1.0
42.02,40.4944,1.0,1.0,1.0
42.03,50.0,1.0,1.0,1.0
42.04,37.5056,1.0,1.0,1.0
42.05,33.9889,1.0,1.0,1.0
42.06,41.5056,1.0,1.0,1.0
42.07,37.0,1.0,1.0,1.0
42.08,27.0,1.0,1.0,1.0
42.09,50.0,1.0,1.0,1.0
42.1,43.0,1.0,1.0,1.0
42.11,48.5056,1.0,1.0,1.0
42.12,38.4944,1.0,1.0,1.0
42.13,35.5056,1.0,1.0,1.0
42.14,30.0,1.0,1.0,1.0
42.15,38.4944,1.0,1.0,1.0
42.16,34.0,1.0,1.0,1.0
42.17,39.0,1.0,1.0,1.0
42.18,50.0,1.0,1.0,1.0
42.19,23.5056,1.0,1.0,1.0
42.2,43.0,1.0,1.0,1.0
42.21,42.0,1.0,1.0,1.0
42.22,28.0,1.0,1.0,1.0
42.23,26.0,1.0,1.0,1.0
42.24,31.4944,1.0,1.0,1.0
42.25,26.5056,1.0,1.0,1.0
42.26,36.0,1.0,1.0,1.0
42.27,41.9889,1.0,1.0,1.0
42.28,35.0111,1.0,1.0,1.0
42.29,41.0,1.0,1.0,1.0
42.3,24.0,1.0,1.0,1.0
42.31,19.0,1.0,1.0,1.0
42.32,32.0,1.0,1.0,1.0
42.33,47.0,1.0,1.0,1.0
42.34,26.4944,1.0,1.0,1.0
42.35,36.5056,1.0,1.0,1.0
42.36,32.4944,1.0,1.0,1.0
42.37,29.5056,1.0,1.0,1.0
42.38,23.9889,1.0,1.0,1.0
42.39,25.5056,1.0,1.0,1.0
42.4,33.5056,1.0,1.0,1.0
42.41,30.4944,1.0,1.0,1.0
42.42,28.5056,1.0,1.0,1.0
42.43,21.0,1.0,1.0,1.0
42.44,26.0,1.0,1.0,1.0
42.45,24.0,1.0,1.0,1.0
42.46,15.0,1.0,1.0,1.0
42.47,32.0,1.0,1.0,1.0
42.48,17.4944,1.0,1.0,1.0
42.49,30.5056,1.0,1.0,1.0
42.5,7.0,1.0,1.0,1.0
42.51,18.0,1.0,1.0,1.0
42.52,31.0,1.0,1.0,1.0
42.53,29.0,1.0,1.0,1.0
42.54,7.0,1.0,1.0,1.0
42.55,9.0,1.0,1.0,1.0
42.56,21.4944,1.0,1.0,1.0
42.57,24.5056,1.0,1.0,1.0
42.58,18.0,1.0,1.0,1.0
42.59,13.4944,1.0,1.0,1.0
42.6,27.5056,1.0,1.0,1.0
42.61,47.4944,1.0,1.0,1.0
42.62,13.5056,1.0,1.0,1.0
42.63,23.4944,1.0,1.0,1.0
42.64,29.5056,1.0,1.0,1.0
42.65,15.0,1.0,1.0,1.0
42.66,32.0,1.0,1.0,1.0
42.67,14.0,1.0,1.0,1.0
42.68,13.9889,1.0,1.0,1.0
42.69,18.0111,1.0,1.0,1.0
42.7,20.0,1.0,1.0,1.0
42.71,18.9889,1.0,1.0,1.0
42.72,37.5056,1.0,1.0,1.0
42.73,30.4944,1.0,1.0,1.0
42.74,27.0111,1.0,1.0,1.0
42.75,27.4944,1.0,1.0,1.0
42.76,33.0,1.0,1.0,1.0
42.77,29.0,1.0,1.0,1.0
42.78,24.5056,1.0,1.0,1.0
42.79,22.4944,1.0,1.0,1.0
42.8,26.5056,1.0,1.0,1.0
42.81,28.0,1.0,1.0,1.0
42.82,18.4944,1.0,1.0,1.0
42.83,25.5056,1.0,1.0,1.0
42.84,17.0,1.0,1.0,1.0
42.85,24.0,1.0,1.0,1.0
42.86,23.0,1.0,1.0,1.0
42.87,26.9889,1.0,1.0,1.0
42.88,24.0111,1.0,1.0,1.0
42.89,40.9889,1.0,1.0,1.0
42.9,32.5056,1.0,1.0,1.0
42.91,45.5056,1.0,1.0,1.0
42.92,37.4944,1.0,1.0,1.0
42.93,29.9889,1.0,1.0,1.0
42.94,51.0111,1.0,1.0,1.0
42.95,37.5056,1.0,1.0,1.0
42.96,39.0,1.0,1.0,1.0
42.97,50.0,1.0,1.0,1.0
42.98,44.4944,1.0,1.0,1.0
42.99,26.5056,1.0,1.0,1.0
43.0,29.4944,1.0,1.0,1.0
43.01,43.0,1.0,1.0,1.0
43.02,27.5056,1.0,1.0,1.0
43.03,44.4944,1.0,1.0,1.0
43.04,51.9889,1.0,1.0,1.0
43.05,57.5056,1.0,1.0,1.0
43.06,53.5056,1.0,1.0,1.0
43.07,56.0,1.0,1.0,1.0
43.08,61.5056,1.0,1.0,1.0
43.09,44.9889,1.0,1.0,1.0
43.1,55.0111,1.0,1.0,1.0
43.11,71.0,1.0,1.0,1.0
43.12,43.0,1.0,1.0,1.0
43.13,50.9889,1.0,1.0,1.0
43.14,57.0,1.0,1.0,1.0
43.15,70.0,1.0,1.0,1.0
43.16,51.4944,1.0,1.0,1.0
43.17,64.5056,1.0,1.0,1.0
43.18,60.5056,1.0,1.0,1.0
43.19,85.5056,1.0,1.0,1.0
43.2,80.4944,1.0,1.0,1.0
43.21,73.4944,1.0,1.0,1.0
43.22,57.4944,1.0,1.0,1.0
43.23,61.5167,1.0,1.0,1.0
43.24,84.9889,1.0,1.0,1.0
43.25,65.0111,1.0,1.0,1.0
43.26,80.9889,1.0,1.0,1.0
43.27,64.5056,1.0,1.0,1.0
43.28,84.5056,1.0,1.0,1.0
43.29,80.9889,1.0,1.0,1.0
43.3,74.0111,1.0,1.0,1.0
43.31,67.4833,1.0,1.0,1.0
43.32,63.5056,1.0,1.0,1.0
43.33,70.0111,1.0,1.0,1.0
43.34,75.9778,1.0,1.0,1.0
43.35,81.0222,1.0,1.0,1.0
43.36,65.9889,1.0,1.0,1.0
43.37,98.5056,1.0,1.0,1.0
43.38,80.4944,1.0,1.0,1.0
43.39,69.0,1.0,1.0,1.0
43.4,86.0,1.0,1.0,1.0
43.41,97.0,1.0,1.0,1.0
43.42,93.0,1.0,1.0,1.0
43.43,77.5056,1.0,1.0,1.0
43.44,103.0,1.0,1.0,1.0
43.45,72.9889,1.0,1.0,1.0
43.46,79.5167,1.0,1.0,1.0
43.47,81.9889,1.0,1.0,1.0
43.48,105.5056,1.0,1.0,1.0
43.49,85.0,1.0,1.0,1.0
43.5,77.4944,1.0,1.0,1.0
43.51,116.0111,1.0,1.0,1.0
43.52,98.4944,1.0,1.0,1.0
43.53,104.4833,1.0,1.0,1.0
43.54,86.5167,1.0,1.0,1.0
43.55,76.0,1.0,1.0,1.0
43.56,108.4944,1.0,1.0,1.0
43.57,72.0111,1.0,1.0,1.0
43.58,90.9889,1.0,1.0,1.0
43.59,80.0,1.0,1.0,1.0
43.6,86.5056,1.0,1.0,1.0
43.61,108.9889,1.0,1.0,1.0
43.62,76.5167,1.0,1.0,1.0
43.63,99.9889,1.0,1.0,1.0
43.64,92.9889,1.0,1.0,1.0
43.65,107.5167,1.0,1.0,1.0
43.66,85.5056,1.0,1.0,1.0
43.67,95.4833,1.0,1.0,1.0
43.68,97.5056,1.0,1.0,1.0
43.69,88.4944,1.0,1.0,1.0
43.7,96.5056,1.0,1.0,1.0
43.71,94.0111,1.0,1.0,1.0
43.72,84.9778,1.0,1.0,1.0
43.73,123.0222,1.0,1.0,1.0
43.74,77.0,1.0,1.0,1.0
43.75,82.4833,1.0,1.0,1.0
43.76,96.0111,1.0,1.0,1.0
43.77,114.4833,1.0,1.0,1.0
43.78,72.5167,1.0,1.0,1.0
43.79,89.4944,1.0,1.0,1.0
43.8,90.0,1.0,1.0,1.0
43.81,88.5056,1.0,1.0,1.0
43.82,85.9889,1.0,1.0,1.0
43.83,72.0,1.0,1.0,1.0
43.84,70.5167,1.0,1.0,1.0
43.85,53.9889,1.0,1.0,1.0
43.86,81.5056,1.0,1.0,1.0
43.87,68.4833,1.0,1.0,1.0
43.88,72.0111,1.0,1.0,1.0
43.89,83.0111,1.0,1.0,1.0
43.9,61.4944,1.0,1.0,1.0
43.91,66.9889,1.0,1.0,1.0
43.92,68.0111,1.0,1.0,1.0
43.93,70.5056,1.0,1.0,1.0
43.94,52.0,1.0,1.0,1.0
43.95,65.4944,1.0,1.0,1.0
43.96,44.0,1.0,1.0,1.0
43.97,74.5056,1.0,1.0,1.0
43.98,37.0,1.0,1.0,1.0
43.99,36.9889,1.0,1.0,1.0
44.0,62.0111,1.0,1.0,1.0
44.01,54.4944,1.0,1.0,1.0
44.02,54.0,1.0,1.0,1.0
44.03,68.4944,1.0,1.0,1.0
44.04,40.5056,1.0,1.0,1.0
44.05,55.4944,1.0,1.0,1.0
44.06,54.4944,1.0,1.0,1.0
44.07,55.5167,1.0,1.0,1.0
44.08,52.0,1.0,1.0,1.0
44.09,46.4944,1.0,1.0,1.0
44.1,53.0,1.0,1.0,1.0
44.11,36.0,1.0,1.0,1.0
44.12,43.5056,1.0,1.0,1.0
44.13,39.0,1.0,1.0,1.0
44.14,27.0,1.0,1.0,1.0
44.15,43.4944,1.0,1.0,1.0
44.16,29.0,1.0,1.0,1.0
44.17,34.0,1.0,1.0,1.0
44.18,45.5056,1.0,1.0,1.0
44.19,40.4944,1.0,1.0,1.0
44.2,20.4944,1.0,1.0,1.0
44.21,48.0111,1.0,1.0,1.0
44.22,38.9889,1.0,1.0,1.0
44.23,37.0111,1.0,1.0,1.0
44.24,38.0,1.0,1.0,1.0
44.25,18.4944,1.0,1.0,1.0
44.26,40.5056,1.0,1.0,1.0
44.27,20.4944,1.0,1.0,1.0
44.28,44.5056,1.0,1.0,1.0
44.29,39.4944,1.0,1.0,1.0
44.3,27.4944,1.0,1.0,1.0
44.31,65.0111,1.0,1.0,1.0
44.32,38.0,1.0,1.0,1.0
44.33,38.0,1.0,1.0,1.0
44.34,39.4944,1.0,1.0,1.0
44.35,50.5056,1.0,1.0,1.0
44.36,50.4944,1.0,1.0,1.0
44.37,52.0,1.0,1.0,1.0
44.38,50.0,1.0,1.0,1.0
44.39,45.5056,1.0,1.0,1.0
44.4,53.0,1.0,1.0,1.0
44.41,80.9778,1.0,1.0,1.0
44.42,65.4944,1.0,1.0,1.0
44.43,65.0222,1.0,1.0,1.0
44.44,50.5056,1.0,1.0,1.0
44.45,65.4833,1.0,1.0,1.0
44.46,77.0111,1.0,1.0,1.0
44.47,84.9889,1.0,1.0,1.0
44.48,69.0111,1.0,1.0,1.0
44.49,103.5056,1.0,1.0,1.0
44.5,91.4944,1.0,1.0,1.0
44.51,107.4944,1.0,1.0,1.0
44.52,120.0,1.0,1.0,1.0
44.53,94.5056,1.0,1.0,1.0
44.54,108.5056,1.0,1.0,1.0
44.55,130.4833,1.0,1.0,1.0
44.56,113.9889,1.0,1.0,1.0
44.57,155.5167,1.0,1.0,1.0
44.58,164.5056,1.0,1.0,1.0
44.59,144.9889,1.0,1.0,1.0
44.6,157.4944,1.0,1.0,1.0
44.61,143.4944,1.0,1.0,1.0
44.62,185.5056,1.0,1.0,1.0
44.63,201.4944,1.0,1.0,1.0
44.64,190.4944,1.0,1.0,1.0
44.65,189.0222,1.0,1.0,1.0
44.66,236.4944,1.0,1.0,1.0
44.67,197.0,1.0,1.0,1.0
44.68,221.0111,1.0,1.0,1.0
44.69,269.9667,1.0,1.0,1.0
44.7,240.5278,1.0,1.0,1.0
44.71,269.9889,1.0,1.0,1.0
44.72,281.0,1.0,1.0,1.0
44.73,292.4833,1.0,1.0,1.0
44.74,298.5167,1.0,1.0,1.0
44.75,322.4722,1.0,1.0,1.0
44.76,344.4944,1.0,1.0,1.0
44.77,345.0111,1.0,1.0,1.0
44.78,369.9667,1.0,1.0,1.0
44.79,361.0555,1.0,1.0,1.0
44.8,411.4833,1.0,1.0,1.0
44.81,396.0,1.0,1.0,1.0
44.82,377.9778,1.0,1.0,1.0
44.83,415.9889,1.0,1.0,1.0
44.84,421.0444,1.0,1.0,1.0
44.85,461.9667,1.0,1.0,1.0
44.86,507.0,1.0,1.0,1.0
44.87,476.0,1.0,1.0,1.0
44.88,480.9778,1.0,1.0,1.0
44.89,500.55,1.0,1.0,1.0
44.9,564.4389,1.0,1.0,1.0
44.91,570.5167,1.0,1.0,1.0
44.92,601.4944,1.0,1.0,1.0
44.93,596.0444,1.0,1.0,1.0
44.94,628.4722,1.0,1.0,1.0
44.95,654.5278,1.0,1.0,1.0
44.96,705.9333,1.0,1.0,1.0
44.97,620.0667,1.0,1.0,1.0
44.98,730.4833,1.0,1.0,1.0
44.99,723.9889,1.0,1.0,1.0
45.0,732.45,1.0,1.0,1.0
45.01,787.5167,1.0,1.0,1.0
45.02,835.9556,1.0,1.0,1.0
45.03,848.0667,1.0,1.0,1.0
45.04,797.9667,1.0,1.0,1.0
45.05,845.0333,1.0,1.0,1.0
45.06,906.4722,1.0,1.0,1.0
45.07,887.4833,1.0,1.0,1.0
45.08,906.5056,1.0,1.0,1.0
45.09,938.0333,1.0,1.0,1.0
45.1,944.9445,1.0,1.0,1.0
45.11,1001.09,1.0,1.0,1.0
45.12,1012.97,1.0,1.0,1.0
45.13,995.4944,1.0,1.0,1.0
45.14,1063.45,1.0,1.0,1.0
45.15,1038.01,1.0,1.0,1.0
45.16,1150.03,1.0,1.0,1.0
45.17,1048.46,1.0,1.0,1.0
45.18,1177.01,1.0,1.0,1.0
45.19,1161.99,1.0,1.0,1.0
45.2,1198.99,1.0,1.0,1.0
45.21,1247.98,1.0,1.0,1.0
45.22,1245.49,1.0,1.0,1.0
45.23,1297.04,1.0,1.0,1.0
45.24,1340.52,1.0,1.0,1.0
45.25,1289.45,1.0,1.0,1.0
45.26,1307.55,1.0,1.0,1.0
45.27,1312.97,1.0,1.0,1.0
45.28,1388.49,1.0,1.0,1.0
45.29,1425.99,1.0,1.0,1.0
45.3,1408.53,1.0,1.0,1.0
45.31,1564.52,1.0,1.0,1.0
45.32,1493.45,1.0,1.0,1.0
45.33,1531.99,1.0,1.0,1.0
45.34,1585.0,1.0,1.0,1.0
45.35,1559.02,1.0,1.0,1.0
45.36,1592.52,1.0,1.0,1.0
45.37,1651.48,1.0,1.0,1.0
45.38,1761.45,1.0,1.0,1.0
45.39,1675.01,1.0,1.0,1.0
45.4,1778.97,1.0,1.0,1.0
45.41,1731.02,1.0,1.0,1.0
45.42,1778.49,1.0,1.0,1.0
45.43,1741.93,1.0,1.0,1.0
45.44,1786.07,1.0,1.0,1.0
45.45,1878.46,1.0,1.0,1.0
45.46,1879.03,1.0,1.0,1.0
45.47,1587.53,1.0,1.0,1.0
45.48,1684.99,1.0,1.0,1.0
45.49,1887.52,1.0,1.0,1.0
45.5,1929.48,1.0,1.0,1.0
45.51,1993.93,1.0,1.0,1.0
45.52,1996.0,1.0,1.0,1.0
45.53,2086.53,1.0,1.0,1.0
45.54,2058.0,1.0,1.0,1.0
45.55,2046.0,1.0,1.0,1.0
45.56,2165.0,1.0,1.0,1.0
45.57,2029.03,1.0,1.0,1.0
45.58,2152.9,1.0,1.0,1.0
45.59,2164.13,1.0,1.0,1.0
45.6,2137.37,1.0,1.0,1.0
45.61,2236.57,1.0,1.0,1.0
45.62,2245.99,1.0,1.0,1.0
45.63,2297.47,1.0,1.0,1.0
45.64,2297.99,1.0,1.0,1.0
45.65,2295.98,1.0,1.0,1.0
45.66,2289.03,1.0,1.0,1.0
45.67,2433.54,1.0,1.0,1.0
45.68,2385.92,1.0,1.0,1.0
45.69,2395.49,1.0,1.0,1.0
45.7,2494.57,1.0,1.0,1.0
45.71,2509.97,1.0,1.0,1.0
45.72,2457.88,1.0,1.0,1.0
45.73,2563.61,1.0,1.0,1.0
45.74,2495.02,1.0,1.0,1.0
45.75,2460.88,1.0,1.0,1.0
45.76,2473.17,1.0,1.0,1.0
45.77,2530.439,1.0,1.0,1.0
45.78,2562.49,1.0,1.0,1.0
45.79,2571.0,1.0,1.0,1.0
45.8,2550.01,1.0,1.0,1.0
45.81,2635.94,1.0,1.0,1.0
45.82,2560.08,1.0,1.0,1.0
45.83,2583.53,1.0,1.0,1.0
45.84,2618.36,1.0,1.0,1.0
45.85,2547.53,1.0,1.0,1.0
45.86,2658.55,1.0,1.0,1.0
45.87,2615.01,1.0,1.0,1.0
45.88,2648.0,1.0,1.0,1.0
45.89,2591.0,1.0,1.0,1.0
45.9,2628.47,1.0,1.0,1.0
45.91,2650.99,1.0,1.0,1.0
45.92,2724.61,1.0,1.0,1.0
45.93,2704.39,1.0,1.0,1.0
45.94,2706.58,1.0,1.0,1.0
45.95,2693.94,1.0,1.0,1.0
45.96,2798.06,1.0,1.0,1.0
45.97,2733.98,1.0,1.0,1.0
45.98,2696.91,1.0,1.0,1.0
45.99,2692.0,1.0,1.0,1.0
46.0,2861.1,1.0,1.0,1.0
46.01,2778.93,1.0,1.0,1.0
46.02,2783.03,1.0,1.0,1.0
46.03,2657.46,1.0,1.0,1.0
46.04,2677.51,1.0,1.0,1.0
46.05,2906.53,1.0,1.0,1.0
46.06,2675.41,1.0,1.0,1.0
46.07,2780.55,1.0,1.0,1.0
46.08,2712.51,1.0,1.0,1.0
46.09,2679.08,1.0,1.0,1.0
46.1,2704.89,1.0,1.0,1.0
46.11,2807.07,1.0,1.0,1.0
46.12,2664.53,1.0,1.0,1.0
46.13,2710.07,1.0,1.0,1.0
46.14,2634.9,1.0,1.0,1.0
46.15,2825.97,1.0,1.0,1.0
46.16,2651.52,1.0,1.0,1.0
46.17,2720.52,1.0,1.0,1.0
46.18,2735.43,1.0,1.0,1.0
46.19,2646.61,1.0,1.0,1.0
46.2,2690.96,1.0,1.0,1.0
46.21,2716.06,1.0,1.0,1.0
46.22,2629.97,1.0,1.0,1.0
46.23,2639.96,1.0,1.0,1.0
46.24,2642.03,1.0,1.0,1.0
46.25,2557.01,1.0,1.0,1.0
46.26,2598.48,1.0,1.0,1.0
46.27,2564.02,1.0,1.0,1.0
46.28,2555.42,1.0,1.0,1.0
46.29,2156.1,1.0,1.0,1.0
46.3,2195.02,1.0,1.0,1.0
46.31,2252.53,1.0,1.0,1.0
46.32,2184.52,1.0,1.0,1.0
46.33,2130.51,1.0,1.0,1.0
46.34,2231.0,1.0,1.0,1.0
46.35,2186.93,1.0,1.0,1.0
46.36,2120.57,1.0,1.0,1.0
46.37,2105.99,1.0,1.0,1.0
46.38,2033.51,1.0,1.0,1.0
46.39,2086.38,1.0,1.0,1.0
46.4,2078.07,1.0,1.0,1.0
46.41,2095.53,1.0,1.0,1.0
46.42,2055.51,1.0,1.0,1.0
46.43,2102.97,1.0,1.0,1.0
46.44,2034.56,1.0,1.0,1.0
46.45,1955.96,1.0,1.0,1.0
46.46,2001.55,1.0,1.0,1.0
46.47,2000.45,1.0,1.0,1.0
46.48,2008.41,1.0,1.0,1.0
46.49,1976.08,1.0,1.0,1.0
46.5,1997.03,1.0,1.0,1.0
46.51,1917.96,1.0,1.0,1.0
46.52,1902.52,1.0,1.0,1.0
46.53,1844.49,1.0,1.0,1.0
46.54,1840.56,1.0,1.0,1.0
46.55,1858.99,1.0,1.0,1.0
46.56,1807.51,1.0,1.0,1.0
46.57,1779.03,1.0,1.0,1.0
46.58,1746.43,1.0,1.0,1.0
46.59,1866.45,1.0,1.0,1.0
46.6,1744.58,1.0,1.0,1.0
46.61,1716.48,1.0,1.0,1.0
46.62,1683.03,1.0,1.0,1.0
46.63,1702.99,1.0,1.0,1.0
46.64,1703.98,1.0,1.0,1.0
46.65,1626.55,1.0,1.0,1.0
46.66,1594.96,1.0,1.0,1.0
46.67,1552.07,1.0,1.0,1.0
46.68,1571.49,1.0,1.0,1.0
46.69,1632.47,1.0,1.0,1.0
46.7,1589.52,1.0,1.0,1.0
46.71,1499.0,1.0,1.0,1.0
46.72,1472.49,1.0,1.0,1.0
46.73,1483.96,1.0,1.0,1.0
46.74,1430.53,1.0,1.0,1.0
46.75,1439.03,1.0,1.0,1.0
46.76,1463.01,1.0,1.0,1.0
46.77,1385.97,1.0,1.0,1.0
46.78,1309.53,1.0,1.0,1.0
46.79,1346.01,1.0,1.0,1.0
46.8,1308.97,1.0,1.0,1.0
46.81,1298.01,1.0,1.0,1.0
46.82,1227.52,1.0,1.0,1.0
46.83,1331.99,1.0,1.0,1.0
46.84,1235.02,1.0,1.0,1.0
46.85,1139.47,1.0,1.0,1.0
46.86,1138.51,1.0,1.0,1.0
46.87,1127.0,1.0,1.0,1.0
46.88,1090.56,1.0,1.0,1.0
46.89,1126.93,1.0,1.0,1.0
46.9,1082.53,1.0,1.0,1.0
46.91,1084.51,1.0,1.0,1.0
46.92,1107.01,1.0,1.0,1.0
46.93,976.45,1.0,1.0,1.0
46.94,980.0222,1.0,1.0,1.0
46.95,989.0889,1.0,1.0,1.0
46.96,958.9778,1.0,1.0,1.0
46.97,970.4833,1.0,1.0,1.0
46.98,969.4389,1.0,1.0,1.0
46.99,937.0778,1.0,1.0,1.0
47.0,938.4389,1.0,1.0,1.0
47.01,857.5722,1.0,1.0,1.0
47.02,842.9667,1.0,1.0,1.0
47.03,847.4944,1.0,1.0,1.0
47.04,818.5167,1.0,1.0,1.0
47.05,818.5167,1.0,1.0,1.0
47.06,761.9778,1.0,1.0,1.0
47.07,795.0111,1.0,1.0,1.0
47.08,736.4944,1.0,1.0,1.0
47.09,702.0222,1.0,1.0,1.0
47.1,731.4722,1.0,1.0,1.0
47.11,711.0,1.0,1.0,1.0
47.12,721.0111,1.0,1.0,1.0
47.13,673.5278,1.0,1.0,1.0
47.14,652.9556,1.0,1.0,1.0
47.15,654.5278,1.0,1.0,1.0
47.16,630.4944,1.0,1.0,1.0
47.17,612.5056,1.0,1.0,1.0
47.18,615.5167,1.0,1.0,1.0
47.19,580.9889,1.0,1.0,1.0
47.2,496.5056,1.0,1.0,1.0
47.21,592.9445,1.0,1.0,1.0
47.22,537.55,1.0,1.0,1.0
47.23,563.9778,1.0,1.0,1.0
47.24,588.0333,1.0,1.0,1.0
47.25,562.4944,1.0,1.0,1.0
47.26,509.4722,1.0,1.0,1.0
47.27,542.0222,1.0,1.0,1.0
47.28,542.4833,1.0,1.0,1.0
47.29,480.4944,1.0,1.0,1.0
47.3,476.5056,1.0,1.0,1.0
47.31,497.5278,1.0,1.0,1.0
47.32,473.9889,1.0,1.0,1.0
47.33,499.0111,1.0,1.0,1.0
47.34,462.0111,1.0,1.0,1.0
47.35,493.9667,1.0,1.0,1.0
47.36,477.9778,1.0,1.0,1.0
47.37,510.0222,1.0,1.0,1.0
47.38,470.4722,1.0,1.0,1.0
47.39,472.4944,1.0,1.0,1.0
47.4,530.55,1.0,1.0,1.0
47.41,506.0,1.0,1.0,1.0
47.42,496.4944,1.0,1.0,1.0
47.43,535.4722,1.0,1.0,1.0
47.44,537.0,1.0,1.0,1.0
47.45,505.0,1.0,1.0,1.0
47.46,538.5278,1.0,1.0,1.0
47.47,527.9667,1.0,1.0,1.0
47.48,538.0444,1.0,1.0,1.0
47.49,568.4722,1.0,1.0,1.0
47.5,562.5167,1.0,1.0,1.0
47.51,610.5167,1.0,1.0,1.0
47.52,628.9667,1.0,1.0,1.0
47.53,692.9889,1.0,1.0,1.0
47.54,618.5056,1.0,1.0,1.0
47.55,725.4944,1.0,1.0,1.0
47.56,738.5056,1.0,1.0,1.0
47.57,775.0,1.0,1.0,1.0
47.58,715.4722,1.0,1.0,1.0
47.59,807.0,1.0,1.0,1.0
47.6,821.4944,1.0,1.0,1.0
47.61,954.9889,1.0,1.0,1.0
47.62,923.5722,1.0,1.0,1.0
47.63,938.9333,1.0,1.0,1.0
47.64,1015.51,1.0,1.0,1.0
47.65,1185.98,1.0,1.0,1.0
47.66,1147.96,1.0,1.0,1.0
47.67,1228.02,1.0,1.0,1.0
47.68,1309.02,1.0,1.0,1.0
47.69,1377.96,1.0,1.0,1.0
47.7,1485.03,1.0,1.0,1.0
47.71,1576.47,1.0,1.0,1.0
47.72,1713.51,1.0,1.0,1.0
47.73,1838.45,1.0,1.0,1.0
47.74,2049.99,1.0,1.0,1.0
47.75,2081.57,1.0,1.0,1.0
47.76,2346.87,1.0,1.0,1.0
47.77,2477.96,1.0,1.0,1.0
47.78,2738.09,1.0,1.0,1.0
47.79,3030.91,1.0,1.0,1.0
47.8,3324.42,1.0,1.0,1.0
47.81,3659.02,1.0,1.0,1.0
47.82,4197.35,1.0,1.0,1.0
47.83,4562.99,1.0,1.0,1.0
47.84,5162.04,1.0,1.0,1.0
47.85,5993.39,1.0,1.0,1.0
47.86,6901.8,1.0,1.0,1.0
47.87,8199.33,1.0,1.0,1.0
47.88,9561.91,1.0,1.0,1.0
47.89,11321.1,1.0,1.0,1.0
47.9,13687.2,1.0,1.0,1.0
47.91,16786.3,1.0,1.0,1.0
47.92,21007.7,1.0,1.0,1.0
47.93,27413.2,1.0,1.0,1.0
47.94,35799.5,1.0,1.0,1.0
47.95,48904.9,1.0,1.0,1.0
47.96,71473.4,1.0,1.0,1.0
47.97,118337,1.0,1.0,1.0
47.98,313164,1.0,1.0,1.0
47.99,1740441.625,1.0,1.0,1.0
48.0,5836421.0,1.0,1.0,1.0
48.01,8941697.0,1.0,1.0,1.0
48.02,6644287.0,1.0,1.0,1.0
48.03,2985384.0,1.0,1.0,1.0
48.04,1788807.625,1.0,1.0,1.0
48.05,1156670.0,1.0,1.0,1.0
48.06,665215,1.0,1.0,1.0
48.07,314722,1.0,1.0,1.0
48.08,130671,1.0,1.0,1.0
48.09,58397.125,1.0,1.0,1.0
48.1,29059.3,1.0,1.0,1.0
48.11,17815.5,1.0,1.0,1.0
48.12,13187.167,1.0,1.0,1.0
48.13,10168.3,1.0,1.0,1.0
48.14,8238.71,1.0,1.0,1.0
48.15,6845.33,1.0,1.0,1.0
48.16,5639.53,1.0,1.0,1.0
48.17,4846.61,1.0,1.0,1.0
48.18,4120.54,1.0,1.0,1.0
48.19,3581.02,1.0,1.0,1.0
48.2,3142.57,1.0,1.0,1.0
48.21,2765.49,1.0,1.0,1.0
48.22,2434.06,1.0,1.0,1.0
48.23,2148.54,1.0,1.0,1.0
48.24,1953.52,1.0,1.0,1.0
48.25,1753.06,1.0,1.0,1.0
48.26,1630.43,1.0,1.0,1.0
48.27,1509.57,1.0,1.0,1.0
48.28,1374.03,1.0,1.0,1.0
48.29,1195.49,1.0,1.0,1.0
48.3,1077.98,1.0,1.0,1.0
48.31,1008.55,1.0,1.0,1.0
48.32,982.5056,1.0,1.0,1.0
48.33,874.0,1.0,1.0,1.0
48.34,746.9778,1.0,1.0,1.0
48.35,721.55,1.0,1.0,1.0
48.36,704.0,1.0,1.0,1.0
48.37,645.5056,1.0,1.0,1.0
48.38,573.0,1.0,1.0,1.0
48.39,526.0222,1.0,1.0,1.0
48.4,487.4722,1.0,1.0,1.0
48.41,507.5056,1.0,1.0,1.0
48.42,446.5278,1.0,1.0,1.0
48.43,425.9889,1.0,1.0,1.0
48.44,435.4944,1.0,1.0,1.0
48.45,396.4944,1.0,1.0,1.0
48.46,367.0222,1.0,1.0,1.0
48.47,327.9889,1.0,1.0,1.0
48.48,306.0222,1.0,1.0,1.0
48.49,341.9889,1.0,1.0,1.0
48.5,293.5056,1.0,1.0,1.0
48.51,285.0,1.0,1.0,1.0
48.52,302.5056,1.0,1.0,1.0
48.53,259.9889,1.0,1.0,1.0
48.54,254.5167,1.0,1.0,1.0
48.55,239.9889,1.0,1.0,1.0
48.56,199.5056,1.0,1.0,1.0
48.57,241.5167,1.0,1.0,1.0
48.58,210.9778,1.0,1.0,1.0
48.59,178.0111,1.0,1.0,1.0
48.6,206.9778,1.0,1.0,1.0
48.61,167.5278,1.0,1.0,1.0
48.62,174.4944,1.0,1.0,1.0
48.63,185.4944,1.0,1.0,1.0
48.64,191.5056,1.0,1.0,1.0
48.65,180.5056,1.0,1.0,1.0
48.66,150.4833,1.0,1.0,1.0
48.67,182.0222,1.0,1.0,1.0
48.68,141.0,1.0,1.0,1.0
48.69,173.5056,1.0,1.0,1.0
48.7,149.9889,1.0,1.0,1.0
48.71,160.0,1.0,1.0,1.0
48.72,126.9889,1.0,1.0,1.0
48.73,133.0,1.0,1.0,1.0
48.74,126.0,1.0,1.0,1.0
48.75,164.5056,1.0,1.0,1.0
48.76,127.0,1.0,1.0,1.0
48.77,150.0111,1.0,1.0,1.0
48.78,121.9889,1.0,1.0,1.0
48.79,111.0111,1.0,1.0,1.0
48.8,134.4833,1.0,1.0,1.0
48.81,127.5167,1.0,1.0,1.0
48.82,124.4833,1.0,1.0,1.0
48.83,106.5056,1.0,1.0,1.0
48.84,124.5167,1.0,1.0,1.0
48.85,147.9778,1.0,1.0,1.0
48.86,98.0,1.0,1.0,1.0
48.87,109.0222,1.0,1.0,1.0
48.88,111.4722,1.0,1.0,1.0
48.89,115.5167,1.0,1.0,1.0
48.9,109.0111,1.0,1.0,1.0
48.91,109.9889,1.0,1.0,1.0
48.92,118.9889,1.0,1.0,1.0
48.93,101.5056,1.0,1.0,1.0
48.94,79.5167,1.0,1.0,1.0
48.95,115.4833,1.0,1.0,1.0
48.96,105.5056,1.0,1.0,1.0
48.97,111.4833,1.0,1.0,1.0
48.98,118.0222,1.0,1.0,1.0
48.99,92.4944,1.0,1.0,1.0
49.0,110.5056,1.0,1.0,1.0
49.01,101.5056,1.0,1.0,1.0
49.02,73.4833,1.0,1.0,1.0
49.03,115.5056,1.0,1.0,1.0
49.04,95.0,1.0,1.0,1.0
49.05,93.0,1.0,1.0,1.0
49.06,100.9889,1.0,1.0,1.0
49.07,99.5056,1.0,1.0,1.0
49.08,96.0111,1.0,1.0,1.0
49.09,92.9778,1.0,1.0,1.0
49.1,113.0222,1.0,1.0,1.0
49.11,72.4944,1.0,1.0,1.0
49.12,84.0,1.0,1.0,1.0
49.13,89.0,1.0,1.0,1.0
49.14,98.0111,1.0,1.0,1.0
49.15,57.0,1.0,1.0,1.0
49.16,71.9889,1.0,1.0,1.0
49.17,96.9889,1.0,1.0,1.0
49.18,84.5167,1.0,1.0,1.0
49.19,92.4944,1.0,1.0,1.0
49.2,71.5056,1.0,1.0,1.0
49.21,65.5056,1.0,1.0,1.0
49.22,63.4944,1.0,1.0,1.0
49.23,58.5056,1.0,1.0,1.0
49.24,46.4944,1.0,1.0,1.0
49.25,55.0,1.0,1.0,1.0
49.26,66.4944,1.0,1.0,1.0
49.27,49.0,1.0,1.0,1.0
49.28,82.4944,1.0,1.0,1.0
49.29,75.0111,1.0,1.0,1.0
49.3,71.9889,1.0,1.0,1.0
49.31,50.5056,1.0,1.0,1.0
49.32,32.0,1.0,1.0,1.0
49.33,68.0,1.0,1.0,1.0
49.34,49.5056,1.0,1.0,1.0
49.35,39.5056,1.0,1.0,1.0
49.36,55.4944,1.0,1.0,1.0
49.37,42.5056,1.0,1.0,1.0
49.38,48.4944,1.0,1.0,1.0
49.39,49.5056,1.0,1.0,1.0
49.4,46.0,1.0,1.0,1.0
49.41,33.4944,1.0,1.0,1.0
49.42,45.0,1.0,1.0,1.0
49.43,43.5056,1.0,1.0,1.0
49.44,52.4944,1.0,1.0,1.0
49.45,38.0,1.0,1.0,1.0
49.46,43.5056,1.0,1.0,1.0
49.47,36.4833,1.0,1.0,1.0
49.48,30.0111,1.0,1.0,1.0
49.49,36.4944,1.0,1.0,1.0
49.5,53.0111,1.0,1.0,1.0
49.51,29.0,1.0,1.0,1.0
49.52,27.4944,1.0,1.0,1.0
49.53,27.5056,1.0,1.0,1.0
49.54,31.9889,1.0,1.0,1.0
49.55,29.0,1.0,1.0,1.0
49.56,48.5056,1.0,1.0,1.0
49.57,24.4944,1.0,1.0,1.0
49.58,27.0111,1.0,1.0,1.0
49.59,35.0,1.0,1.0,1.0
49.6,30.0,1.0,1.0,1.0
49.61,25.0,1.0,1.0,1.0
49.62,42.4944,1.0,1.0,1.0
49.63,23.5056,1.0,1.0,1.0
49.64,36.0,1.0,1.0,1.0
49.65,17.0,1.0,1.0,1.0
49.66,17.4944,1.0,1.0,1.0
49.67,26.0,1.0,1.0,1.0
49.68,25.0,1.0,1.0,1.0
49.69,11.5056,1.0,1.0,1.0
49.7,17.9889,1.0,1.0,1.0
49.71,19.0111,1.0,1.0,1.0
49.72,27.0,1.0,1.0,1.0
49.73,16.0,1.0,1.0,1.0
49.74,9.0,1.0,1.0,1.0
49.75,10.0,1.0,1.0,1.0
49.76,11.0,1.0,1.0,1.0
49.77,23.0,1.0,1.0,1.0
49.78,10.0,1.0,1.0,1.0
49.79,18.4944,1.0,1.0,1.0
49.8,18.0,1.0,1.0,1.0
49.81,10.5056,1.0,1.0,1.0
49.82,9.0,1.0,1.0,1.0
49.83,8.0,1.0,1.0,1.0
49.84,15.0,1.0,1.0,1.0
49.85,8.4944,1.0,1.0,1.0
49.86,15.5056,1.0,1.0,1.0
49.87,8.0,1.0,1.0,1.0
49.88,12.0,1.0,1.0,1.0
49.89,7.0,1.0,1.0,1.0
49.9,8.0,1.0,1.0,1.0
49.91,6.0,1.0,1.0,1.0
49.92,9.0,1.0,1.0,1.0
49.93,12.0,1.0,1.0,1.0
49.94,6.0,1.0,1.0,1.0
49.95,4.0,1.0,1.0,1.0
49.96,14.0,1.0,1.0,1.0
49.97,4.0,1.0,1.0,1.0
49.98,11.4944,1.0,1.0,1.0
49.99,4.5056,1.0,1.0,1.0
50.0,9.4944,1.0,1.0,1.0
50.01,10.5056,1.0,1.0,1.0
50.02,8.0,1.0,1.0,1.0
50.03,16.0,1.0,1.0,1.0
50.04,7.0,1.0,1.0,1.0
50.05,5.0,1.0,1.0,1.0
50.06,2.0,1.0,1.0,1.0
50.07,7.0,1.0,1.0,1.0
50.08,7.0,1.0,1.0,1.0
50.09,2.0,1.0,1.0,1.0
50.1,16.0,1.0,1.0,1.0
50.11,10.0,1.0,1.0,1.0
50.12,12.0,1.0,1.0,1.0
50.13,11.0,1.0,1.0,1.0
50.14,12.0,1.0,1.0,1.0
50.15,2.0,1.0,1.0,1.0
50.16,10.0,1.0,1.0,1.0
50.17,13.4944,1.0,1.0,1.0
50.18,8.5056,1.0,1.0,1.0
50.19,5.0,1.0,1.0,1.0
50.2,5.0,1.0,1.0,1.0
50.21,5.0,1.0,1.0,1.0
50.22,6.0,1.0,1.0,1.0
50.23,6.0,1.0,1.0,1.0
50.24,10.0,1.0,1.0,1.0
50.25,10.0,1.0,1.0,1.0
50.26,11.4944,1.0,1.0,1.0
50.27,12.5056,1.0,1.0,1.0
50.28,18.0,1.0,1.0,1.0
50.29,13.0,1.0,1.0,1.0
50.3,7.0,1.0,1.0,1.0
50.31,4.0,1.0,1.0,1.0
50.32,14.0,1.0,1.0,1.0
50.33,16.9889,1.0,1.0,1.0
50.34,7.0111,1.0,1.0,1.0
50.35,21.0,1.0,1.0,1.0
50.36,10.0,1.0,1.0,1.0
50.37,11.0,1.0,1.0,1.0
50.38,2.0,1.0,1.0,1.0
50.39,15.0,1.0,1.0,1.0
50.4,13.0,1.0,1.0,1.0
50.41,4.4944,1.0,1.0,1.0
50.42,7.5056,1.0,1.0,1.0
50.43,6.0,1.0,1.0,1.0
50.44,11.0,1.0,1.0,1.0
50.45,13.4944,1.0,1.0,1.0
50.46,6.5056,1.0,1.0,1.0
50.47,15.0,1.0,1.0,1.0
50.48,18.0,1.0,1.0,1.0
50.49,7.0,1.0,1.0,1.0
50.5,16.0,1.0,1.0,1.0
50.51,3.0,1.0,1.0,1.0
50.52,10.4944,1.0,1.0,1.0
50.53,11.5056,1.0,1.0,1.0
50.54,5.0,1.0,1.0,1.0
50.55,7.0,1.0,1.0,1.0
50.56,9.0,1.0,1.0,1.0
50.57,10.0,1.0,1.0,1.0
50.58,15.4944,1.0,1.0,1.0
50.59,10.5056,1.0,1.0,1.0
50.6,12.0,1.0,1.0,1.0
50.61,15.0,1.0,1.0,1.0
50.62,10.4944,1.0,1.0,1.0
50.63,11.5056,1.0,1.0,1.0
50.64,10.0,1.0,1.0,1.0
50.65,23.9889,1.0,1.0,1.0
50.66,17.0111,1.0,1.0,1.0
50.67,12.0,1.0,1.0,1.0
50.68,14.0,1.0,1.0,1.0
50.69,8.0,1.0,1.0,1.0
50.7,14.9889,1.0,1.0,1.0
50.71,9.0111,1.0,1.0,1.0
50.72,3.4944,1.0,1.0,1.0
50.73,12.5056,1.0,1.0,1.0
50.74,19.0,1.0,1.0,1.0
50.75,5.0,1.0,1.0,1.0
50.76,11.0,1.0,1.0,1.0
50.77,0.0,1.0,1.0,1.0
50.78,9.0,1.0,1.0,1.0
50.79,8.0,1.0,1.0,1.0
50.8,16.4944,1.0,1.0,1.0
50.81,12.0,1.0,1.0,1.0
50.82,13.5056,1.0,1.0,1.0
50.83,4.0,1.0,1.0,1.0
50.84,10.9889,1.0,1.0,1.0
50.85,12.5056,1.0,1.0,1.0
50.86,12.0,1.0,1.0,1.0
50.87,9.5056,1.0,1.0,1.0
50.88,2.0,1.0,1.0,1.0
50.89,11.4944,1.0,1.0,1.0
50.9,24.0,1.0,1.0,1.0
50.91,17.0,1.0,1.0,1.0
50.92,16.5056,1.0,1.0,1.0
50.93,5.0,1.0,1.0,1.0
50.94,11.0,1.0,1.0,1.0
50.95,6.4944,1.0,1.0,1.0
50.96,12.0,1.0,1.0,1.0
50.97,15.5056,1.0,1.0,1.0
50.98,3.0,1.0,1.0,1.0
50.99,6.0,1.0,1.0,1.0
51.0,16.0,1.0,1.0,1.0
51.01,14.0,1.0,1.0,1.0
51.02,1.4944,1.0,1.0,1.0
51.03,8.5056,1.0,1.0,1.0
51.04,17.4944,1.0,1.0,1.0
51.05,9.0,1.0,1.0,1.0
51.06,8.5056,1.0,1.0,1.0
51.07,3.4944,1.0,1.0,1.0
51.08,4.5056,1.0,1.0,1.0
51.09,8.0,1.0,1.0,1.0
51.1,2.0,1.0,1.0,1.0
51.11,7.4944,1.0,1.0,1.0
51.12,9.5056,1.0,1.0,1.0
51.13,7.0,1.0,1.0,1.0
51.14,17.0,1.0,1.0,1.0
51.15,0.0,1.0,1.0,1.0
51.16,7.0,1.0,1.0,1.0
51.17,14.0,1.0,1.0,1.0
51.18,5.4944,1.0,1.0,1.0
51.19,8.5056,1.0,1.0,1.0
51.2,23.0,1.0,1.0,1.0
51.21,5.0,1.0,1.0,1.0
51.22,9.0,1.0,1.0,1.0
51.23,17.0,1.0,1.0,1.0
51.24,9.0,1.0,1.0,1.0
51.25,14.0,1.0,1.0,1.0
51.26,5.0,1.0,1.0,1.0
51.27,2.0,1.0,1.0,1.0
51.28,9.0,1.0,1.0,1.0
51.29,8.9889,1.0,1.0,1.0
51.3,4.0111,1.0,1.0,1.0
51.31,7.0,1.0,1.0,1.0
51.32,7.0,1.0,1.0,1.0
51.33,9.0,1.0,1.0,1.0
51.34,10.0,1.0,1.0,1.0
51.35,12.0,1.0,1.0,1.0
51.36,2.0,1.0,1.0,1.0
51.37,12.0,1.0,1.0,1.0
51.38,5.0,1.0,1.0,1.0
51.39,13.0,1.0,1.0,1.0
51.4,8.0,1.0,1.0,1.0
51.41,2.0,1.0,1.0,1.0
51.42,4.0,1.0,1.0,1.0
51.43,9.0,1.0,1.0,1.0
51.44,13.0,1.0,1.0,1.0
51.45,5.0,1.0,1.0,1.0
51.46,5.0,1.0,1.0,1.0
51.47,9.0,1.0,1.0,1.0
51.48,12.0,1.0,1.0,1.0
51.49,11.4944,1.0,1.0,1.0
51.5,5.5056,1.0,1.0,1.0
51.51,0.0,1.0,1.0,1.0
51.52,6.0,1.0,1.0,1.0
51.53,18.0,1.0,1.0,1.0
51.54,2.0,1.0,1.0,1.0
51.55,2.0,1.0,1.0,1.0
51.56,8.0,1.0,1.0,1.0
51.57,6.0,1.0,1.0,1.0
51.58,9.0,1.0,1.0,1.0
51.59,15.0,1.0,1.0,1.0
51.6,3.0,1.0,1.0,1.0
51.61,7.4944,1.0,1.0,1.0
51.62,7.5056,1.0,1.0,1.0
51.63,2.0,1.0,1.0,1.0
51.64,7.0,1.0,1.0,1.0
51.65,7.0,1.0,1.0,1.0
51.66,8.0,1.0,1.0,1.0
51.67,5.0,1.0,1.0,1.0
51.68,2.0,1.0,1.0,1.0
51.69,7.0,1.0,1.0,1.0
51.7,9.0,1.0,1.0,1.0
51.71,8.0,1.0,1.0,1.0
51.72,5.0,1.0,1.0,1.0
51.73,7.0,1.0,1.0,1.0
51.74,5.0,1.0,1.0,1.0
51.75,7.0,1.0,1.0,1.0
51.76,9.4944,1.0,1.0,1.0
51.77,6.5056,1.0,1.0,1.0
51.78,9.0,1.0,1.0,1.0
51.79,9.0,1.0,1.0,1.0
51.8,9.0,1.0,1.0,1.0
51.81,3.0,1.0,1.0,1.0
51.82,3.0,1.0,1.0,1.0
51.83,25.0,1.0,1.0,1.0
51.84,6.0,1.0,1.0,1.0
51.85,7.0,1.0,1.0,1.0
51.86,9.0,1.0,1.0,1.0
51.87,2.0,1.0,1.0,1.0
51.88,0.0,1.0,1.0,1.0
51.89,10.0,1.0,1.0,1.0
51.9,8.4944,1.0,1.0,1.0
51.91,7.5056,1.0,1.0,1.0
51.92,8.0,1.0,1.0,1.0
51.93,7.0,1.0,1.0,1.0
51.94,3.0,1.0,1.0,1.0
51.95,11.0,1.0,1.0,1.0
51.96,0.0,1.0,1.0,1.0
51.97,2.0,1.0,1.0,1.0
51.98,6.0,1.0,1.0,1.0
51.99,9.0,1.0,1.0,1.0
52.0,2.0,1.0,1.0,1.0
0.4,2171828.5,1.0,1.0,1.0
0.41,2218862.0,1.0,1.0,1.0
0.42,2259313.5,1.0,1.0,1.0
0.43,2302243.0,1.0,1.0,1.0
0.44,2343025.5,1.0,1.0,1.0
0.45,2379318.5,1.0,1.0,1.0
0.46,2416658.5,1.0,1.0,1.0
0.47,2453821.0,1.0,1.0,1.0
0.48,2487754.5,1.0,1.0,1.0
0.49,2515435.5,1.0,1.0,1.0
0.5,2546398.0,1.0,1.0,1.0
0.51,2572993.0,1.0,1.0,1.0
0.52,2598991.0,1.0,1.0,1.0
0.53,2620179.5,1.0,1.0,1.0
0.54,2636493.0,1.0,1.0,1.0
0.55,2649563.5,1.0,1.0,1.0
0.56,2657255.5,1.0,1.0,1.0
0.57,2656136.0,1.0,1.0,1.0
0.58,2650875.0,1.0,1.0,1.0
0.59,2637632.0,1.0,1.0,1.0
0.6,2618038.0,1.0,1.0,1.0
0.61,2585470.5,1.0,1.0,1.0
0.62,2540077.5,1.0,1.0,1.0
0.63,2488435.5,1.0,1.0,1.0
0.64,2428208.0,1.0,1.0,1.0
0.65,2351636.5,1.0,1.0,1.0
0.66,2263893.0,1.0,1.0,1.0
0.67,2163708.0,1.0,1.0,1.0
0.68,2060903.125,1.0,1.0,1.0
0.69,1942484.625,1.0,1.0,1.0
0.7,1823535.125,1.0,1.0,1.0
0.71,1696983.125,1.0,1.0,1.0
0.72,1575478.125,1.0,1.0,1.0
0.73,1456336.625,1.0,1.0,1.0
0.74,1338702.125,1.0,1.0,1.0
0.75,1226189.125,1.0,1.0,1.0
0.76,1120780.125,1.0,1.0,1.0
0.77,1022574.125,1.0,1.0,1.0
0.78,930416.625,1.0,1.0,1.0
0.79,842376.625,1.0,1.0,1.0
0.8,768770,1.0,1.0,1.0
0.81,700301,1.0,1.0,1.0
0.82,639789,1.0,1.0,1.0
0.83,587091,1.0,1.0,1.0
0.84,540621,1.0,1.0,1.0
0.85,501247,1.0,1.0,1.0
0.86,465687,1.0,1.0,1.0
0.87,434519,1.0,1.0,1.0
0.88,405082,1.0,1.0,1.0
0.89,378859,1.0,1.0,1.0
0.9,354540,1.0,1.0,1.0
0.91,332516.0,1.0,1.0,1.0
0.92,314032,1.0,1.0,1.0
0.93,296954,1.0,1.0,1.0
0.94,278664.0,1.0,1.0,1.0
0.95,262605,1.0,1.0,1.0
0.96,249448,1.0,1.0,1.0
0.97,235923,1.0,1.0,1.0
0.98,224550,1.0,1.0,1.0
0.99,211834.5,1.0,1.0,1.0
1.0,201845,1.0,1.0,1.0
1.01,191340.5,1.0,1.0,1.0
1.02,182003,1.0,1.0,1.0
1.03,172318,1.0,1.0,1.0
1.04,164467.5,1.0,1.0,1.0
1.05,156909,1.0,1.0,1.0
1.06,149353.0,1.0,1.0,1.0
1.07,141942,1.0,1.0,1.0
1.08,135737.5,1.0,1.0,1.0
1.09,129249,1.0,1.0,1.0
1.1,123893,1.0,1.0,1.0
1.11,117454.0,1.0,1.0,1.0
1.12,112417,1.0,1.0,1.0
1.13,107163,1.0,1.0,1.0
1.14,102418.0,1.0,1.0,1.0
1.15,98220.5,1.0,1.0,1.0
1.16,93992.5,1.0,1.0,1.0
1.17,89924,1.0,1.0,1.0
1.18,85468.5,1.0,1.0,1.0
1.19,82086,1.0,1.0,1.0
1.2,78032.0,1.0,1.0,1.0
1.21,74709.0,1.0,1.0,1.0
1.22,71746.0,1.0,1.0,1.0
1.23,68585.5,1.0,1.0,1.0
1.24,65547,1.0,1.0,1.0
1.25,62512.0,1.0,1.0,1.0
1.26,60347.5,1.0,1.0,1.0
1.27,57503.5,1.0,1.0,1.0
1.28,55359.5,1.0,1.0,1.0
1.29,52720.5,1.0,1.0,1.0
1.3,50560.5,1.0,1.0,1.0
1.31,48579.5,1.0,1.0,1.0
1.32,46272,1.0,1.0,1.0
1.33,44171.0,1.0,1.0,1.0
1.34,42715,1.0,1.0,1.0
1.35,40802.5,1.0,1.0,1.0
1.36,38863,1.0,1.0,1.0
1.37,37883,1.0,1.0,1.0
1.38,35957,1.0,1.0,1.0
1.39,34377.5,1.0,1.0,1.0
1.4,33276.0,1.0,1.0,1.0
1.41,31903.5,1.0,1.0,1.0
1.42,30610.0,1.0,1.0,1.0
1.43,29446.502,1.0,1.0,1.0
1.44,28221.502,1.0,1.0,1.0
1.45,27023.0,1.0,1.0,1.0
1.46,26024.002,1.0,1.0,1.0
1.47,24680.502,1.0,1.0,1.0
1.48,24182.998,1.0,1.0,1.0
1.49,22929.5,1.0,1.0,1.0
1.5,22275,1.0,1.0,1.0
1.51,21324.5,1.0,1.0,1.0
1.52,20434.002,1.0,1.0,1.0
1.53,19804.0,1.0,1.0,1.0
1.54,18880.502,1.0,1.0,1.0
1.55,18328.502,1.0,1.0,1.0
1.56,17509.998,1.0,1.0,1.0
1.57,17174.5,1.0,1.0,1.0
1.58,16663.502,1.0,1.0,1.0
1.59,15752.001,1.0,1.0,1.0
1.6,15077.5,1.0,1.0,1.0
1.61,14451,1.0,1.0,1.0
1.62,14159.499,1.0,1.0,1.0
1.63,13643.0,1.0,1.0,1.0
1.64,13090.0,1.0,1.0,1.0
1.65,12775.502,1.0,1.0,1.0
1.66,12387.501,1.0,1.0,1.0
1.67,11856.999,1.0,1.0,1.0
1.68,11491.001,1.0,1.0,1.0
1.69,11324.5,1.0,1.0,1.0
1.7,10674.001,1.0,1.0,1.0
1.71,10382.499,1.0,1.0,1.0
1.72,10147.5,1.0,1.0,1.0
1.73,9895.501,1.0,1.0,1.0
1.74,9463.501,1.0,1.0,1.0
1.75,9174.0,1.0,1.0,1.0
1.76,8925.001,1.0,1.0,1.0
1.77,8823.5,1.0,1.0,1.0
1.78,8619.001,1.0,1.0,1.0
1.79,8492.499,1.0,1.0,1.0
1.8,8112.0,1.0,1.0,1.0
1.81,7707.0,1.0,1.0,1.0
1.82,7483,1.0,1.0,1.0
1.83,7578.5,1.0,1.0,1.0
1.84,7385,1.0,1.0,1.0
1.85,7246.5,1.0,1.0,1.0
1.86,7055,1.0,1.0,1.0
1.87,6927.999,1.0,1.0,1.0
1.88,6747.502,1.0,1.0,1.0
1.89,6640.0,1.0,1.0,1.0
1.9,6566.5,1.0,1.0,1.0
1.91,6435.999,1.0,1.0,1.0
1.92,6307.001,1.0,1.0,1.0
1.93,6281,1.0,1.0,1.0
1.94,6178.001,1.0,1.0,1.0
1.95,6116.501,1.0,1.0,1.0
1.96,6061,1.0,1.0,1.0
1.97,5963.001,1.0,1.0,1.0
1.98,5882.001,1.0,1.0,1.0
1.99,5893.5,1.0,1.0,1.0
2.0,5692,1.0,1.0,1.0
2.01,5761,1.0,1.0,1.0
2.02,5545.5,1.0,1.0,1.0
2.03,5586.001,1.0,1.0,1.0
2.04,5383.0,1.0,1.0,1.0
2.05,5282.0,1.0,1.0,1.0
2.06,5157.5,1.0,1.0,1.0
2.07,5197.0,1.0,1.0,1.0
2.08,5170.499,1.0,1.0,1.0
2.09,5064.501,1.0,1.0,1.0
2.1,4998,1.0,1.0,1.0
2.11,4861.999,1.0,1.0,1.0
2.12,5014,1.0,1.0,1.0
2.13,4746,1.0,1.0,1.0
2.14,4811.501,1.0,1.0,1.0
2.15,4678.5,1.0,1.0,1.0
2.16,4588.5,1.0,1.0,1.0
2.17,4639.0,1.0,1.0,1.0
2.18,4526.0,1.0,1.0,1.0
2.19,4452,1.0,1.0,1.0
2.2,4222.5,1.0,1.0,1.0
2.21,4150.5,1.0,1.0,1.0
2.22,4178,1.0,1.0,1.0
2.23,4104.0,1.0,1.0,1.0
2.24,4109.5,1.0,1.0,1.0
2.25,4160,1.0,1.0,1.0
2.26,4092,1.0,1.0,1.0
2.27,4091,1.0,1.0,1.0
2.28,4073.0,1.0,1.0,1.0
2.29,3921.001,1.0,1.0,1.0
2.3,3781.5,1.0,1.0,1.0
2.31,3762.5,1.0,1.0,1.0
2.32,3768,1.0,1.0,1.0
2.33,3682.5,1.0,1.0,1.0
2.34,3791.5,1.0,1.0,1.0
2.35,3527,1.0,1.0,1.0
2.36,3606,1.0,1.0,1.0
2.37,3566,1.0,1.0,1.0
2.38,3456,1.0,1.0,1.0
2.39,3581,1.0,1.0,1.0
2.4,3432,1.0,1.0,1.0
2.41,3387,1.0,1.0,1.0
2.42,3423,1.0,1.0,1.0
2.43,3366.0,1.0,1.0,1.0
2.44,3355.5,1.0,1.0,1.0
2.45,3322.5,1.0,1.0,1.0
2.46,3271.5,1.0,1.0,1.0
2.47,3191.5,1.0,1.0,1.0
2.48,3146.5,1.0,1.0,1.0
2.49,3112.5,1.0,1.0,1.0
2.5,3109.5,1.0,1.0,1.0
2.51,2964.5,1.0,1.0,1.0
2.52,3074.5,1.0,1.0,1.0
2.53,3069,1.0,1.0,1.0
2.54,2909,1.0,1.0,1.0
2.55,2903.5,1.0,1.0,1.0
2.56,2885.5,1.0,1.0,1.0
2.57,2937.0,1.0,1.0,1.0
2.58,2783.5,1.0,1.0,1.0
2.59,2701.5,1.0,1.0,1.0
2.6,2699,1.0,1.0,1.0
2.61,2634.5,1.0,1.0,1.0
2.62,2632.5,1.0,1.0,1.0
2.63,2602.5,1.0,1.0,1.0
2.64,2680.5,1.0,1.0,1.0
2.65,2527.5,1.0,1.0,1.0
2.66,2539.5,1.0,1.0,1.0
2.67,2438.5,1.0,1.0,1.0
2.68,2481,1.0,1.0,1.0
2.69,2441,1.0,1.0,1.0
2.7,2358.5,1.0,1.0,1.0
2.71,2386.5,1.0,1.0,1.0
2.72,2317.5,1.0,1.0,1.0
2.73,2266,1.0,1.0,1.0
2.74,2221.0,1.0,1.0,1.0
2.75,2059,1.0,1.0,1.0
2.76,2162.5,1.0,1.0,1.0
2.77,2212,1.0,1.0,1.0
2.78,2231,1.0,1.0,1.0
2.79,2096.5,1.0,1.0,1.0
2.8,2125.5,1.0,1.0,1.0
2.81,2038,1.0,1.0,1.0
2.82,2070.5,1.0,1.0,1.0
2.83,2028.5,1.0,1.0,1.0
2.84,1935,1.0,1.0,1.0
2.85,2006.5,1.0,1.0,1.0
2.86,1876,1.0,1.0,1.0
2.87,1857.0,1.0,1.0,1.0
2.88,1936,1.0,1.0,1.0
2.89,1803.5,1.0,1.0,1.0
2.9,1817,1.0,1.0,1.0
2.91,1832,1.0,1.0,1.0
2.92,1732.5,1.0,1.0,1.0
2.93,1790.5,1.0,1.0,1.0
2.94,1650,1.0,1.0,1.0
2.95,1715.5,1.0,1.0,1.0
2.96,1685.5,1.0,1.0,1.0
2.97,1648.5,1.0,1.0,1.0
2.98,1636.5,1.0,1.0,1.0
2.99,1630,1.0,1.0,1.0
3.0,1589.5,1.0,1.0,1.0
3.01,1576.5,1.0,1.0,1.0
3.02,1526.5,1.0,1.0,1.0
3.03,1487,1.0,1.0,1.0
3.04,1526,1.0,1.0,1.0
3.05,1534,1.0,1.0,1.0
3.06,1478,1.0,1.0,1.0
3.07,1375.5,1.0,1.0,1.0
3.08,1464.5,1.0,1.0,1.0
3.09,1458,1.0,1.0,1.0
3.1,1328.5,1.0,1.0,1.0
3.11,1395.5,1.0,1.0,1.0
3.12,1376.0,1.0,1.0,1.0
3.13,1349.0,1.0,1.0,1.0
3.14,1345,1.0,1.0,1.0
3.15,1331,1.0,1.0,1.0
3.16,1286,1.0,1.0,1.0
3.17,1310.5,1.0,1.0,1.0
3.18,1246.5,1.0,1.0,1.0
3.19,1324,1.0,1.0,1.0
3.2,1220,1.0,1.0,1.0
3.21,1333.0,1.0,1.0,1.0
3.22,1208.5,1.0,1.0,1.0
3.23,1197.5,1.0,1.0,1.0
3.24,1232.5,1.0,1.0,1.0
3.25,1235.5,1.0,1.0,1.0
3.26,1204.5,1.0,1.0,1.0
3.27,1245,1.0,1.0,1.0
3.28,1140,1.0,1.0,1.0
3.29,1162,1.0,1.0,1.0
3.3,1177.5,1.0,1.0,1.0
3.31,1220,1.0,1.0,1.0
3.32,1129.5,1.0,1.0,1.0
3.33,1082.5,1.0,1.0,1.0
3.34,1162,1.0,1.0,1.0
3.35,1200.5,1.0,1.0,1.0
3.36,1145,1.0,1.0,1.0
3.37,1137,1.0,1.0,1.0
3.38,1101,1.0,1.0,1.0
3.39,1130,1.0,1.0,1.0
3.4,1105,1.0,1.0,1.0
3.41,1107.0,1.0,1.0,1.0
3.42,1064.5,1.0,1.0,1.0
3.43,1076.5,1.0,1.0,1.0
3.44,1167,1.0,1.0,1.0
3.45,1112,1.0,1.0,1.0
3.46,1098.5,1.0,1.0,1.0
3.47,1129,1.0,1.0,1.0
3.48,1059,1.0,1.0,1.0
3.49,1084,1.0,1.0,1.0
3.5,1068.5,1.0,1.0,1.0
3.51,1093.5,1.0,1.0,1.0
3.52,1071,1.0,1.0,1.0
3.53,1122,1.0,1.0,1.0
3.54,1038,1.0,1.0,1.0
3.55,1009.5,1.0,1.0,1.0
3.56,1078,1.0,1.0,1.0
3.57,1103.5,1.0,1.0,1.0
3.58,1051.5,1.0,1.0,1.0
3.59,1074.5,1.0,1.0,1.0
3.6,1093.5,1.0,1.0,1.0
3.61,1092,1.0,1.0,1.0
3.62,1105.5,1.0,1.0,1.0
3.63,1047,1.0,1.0,1.0
3.64,1053,1.0,1.0,1.0
3.65,1105.5,1.0,1.0,1.0
3.66,1069.0,1.0,1.0,1.0
3.67,1065,1.0,1.0,1.0
3.68,1041,1.0,1.0,1.0
3.69,1048.5,1.0,1.0,1.0
3.7,1027.5,1.0,1.0,1.0
3.71,1093.0,1.0,1.0,1.0
3.72,1046,1.0,1.0,1.0
3.73,1052.5,1.0,1.0,1.0
3.74,1031,1.0,1.0,1.0
3.75,1069.5,1.0,1.0,1.0
3.76,1042,1.0,1.0,1.0
3.77,1010.501,1.0,1.0,1.0
3.78,1018,1.0,1.0,1.0
3.79,936.0002,1.0,1.0,1.0
3.8,982.4994,1.0,1.0,1.0
3.81,1078.5,1.0,1.0,1.0
3.82,990.9997,1.0,1.0,1.0
3.83,991.0,1.0,1.0,1.0
3.84,987.5002,1.0,1.0,1.0
3.85,979.9996,1.0,1.0,1.0
3.86,965.4999,1.0,1.0,1.0
3.87,973.5002,1.0,1.0,1.0
3.88,1009,1.0,1.0,1.0
3.89,961.4998,1.0,1.0,1.0
3.9,952.0001,1.0,1.0,1.0
3.91,971.5002,1.0,1.0,1.0
3.92,972.9997,1.0,1.0,1.0
3.93,916.9998,1.0,1.0,1.0
3.94,922.5006,1.0,1.0,1.0
3.95,909.0,1.0,1.0,1.0
3.96,863.9999,1.0,1.0,1.0
3.97,934.5002,1.0,1.0,1.0
3.98,875.0002,1.0,1.0,1.0
3.99,898.4994,1.0,1.0,1.0
4.0,862.5002,1.0,1.0,1.0
4.01,866.5001,1.0,1.0,1.0
4.02,856.0002,1.0,1.0,1.0
4.03,911.9995,1.0,1.0,1.0
4.04,849.5002,1.0,1.0,1.0
4.05,868.0003,1.0,1.0,1.0
4.06,851.4994,1.0,1.0,1.0
4.07,887.0002,1.0,1.0,1.0
4.08,806.0003,1.0,1.0,1.0
4.09,822.0001,1.0,1.0,1.0
4.1,779.0001,1.0,1.0,1.0
4.11,840.4998,1.0,1.0,1.0
4.12,766.4996,1.0,1.0,1.0
4.13,754.5007,1.0,1.0,1.0
4.14,768.0,1.0,1.0,1.0
4.15,701.9993,1.0,1.0,1.0
4.16,738.5002,1.0,1.0,1.0
4.17,732.0003,1.0,1.0,1.0
4.18,754.4999,1.0,1.0,1.0
4.19,702.5001,1.0,1.0,1.0
4.2,732.4999,1.0,1.0,1.0
4.21,666.5001,1.0,1.0,1.0
4.22,686.5002,1.0,1.0,1.0
4.23,682.4998,1.0,1.0,1.0
4.24,720.5002,1.0,1.0,1.0
4.25,695.9998,1.0,1.0,1.0
4.26,682.0,1.0,1.0,1.0
4.27,712.5004,1.0,1.0,1.0
4.28,630.9998,1.0,1.0,1.0
4.29,679.4998,1.0,1.0,1.0
4.3,626.0,1.0,1.0,1.0
4.31,615.4999,1.0,1.0,1.0
4.32,612.4999,1.0,1.0,1.0
4.33,582.0007,1.0,1.0,1.0
4.34,618.4995,1.0,1.0,1.0
4.35,602.5002,1.0,1.0,1.0
4.36,566.5002,1.0,1.0,1.0
4.37,634.4999,1.0,1.0,1.0
4.38,589.4996,1.0,1.0,1.0
4.39,564.5002,1.0,1.0,1.0
4.4,517.0,1.0,1.0,1.0
4.41,573.0,1.0,1.0,1.0
4.42,575.0002,1.0,1.0,1.0
4.43,530.5001,1.0,1.0,1.0
4.44,581.9998,1.0,1.0,1.0
4.45,542.5002,1.0,1.0,1.0
4.46,582.9999,1.0,1.0,1.0
4.47,525.5001,1.0,1.0,1.0
4.48,449.9999,1.0,1.0,1.0
4.49,539.5001,1.0,1.0,1.0
4.5,498.5002,1.0,1.0,1.0