File: XRD:XRR/SCO/22154_SCO(CL)_annealed/22154_SCO(CL)_XRD_annealed.csv
#twotheta, yobs, ycal, bkg, diff
42.0,9.4944,1.0,1.0,1.0
42.01,8.0,1.0,1.0,1.0
42.02,4.4944,1.0,1.0,1.0
42.03,7.0111,1.0,1.0,1.0
42.04,2.4944,1.0,1.0,1.0
42.05,5.5056,1.0,1.0,1.0
42.06,8.0,1.0,1.0,1.0
42.07,8.0,1.0,1.0,1.0
42.08,7.0,1.0,1.0,1.0
42.09,5.0,1.0,1.0,1.0
42.1,9.4944,1.0,1.0,1.0
42.11,10.5056,1.0,1.0,1.0
42.12,2.0,1.0,1.0,1.0
42.13,5.0,1.0,1.0,1.0
42.14,6.0,1.0,1.0,1.0
42.15,2.0,1.0,1.0,1.0
42.16,11.0,1.0,1.0,1.0
42.17,9.0,1.0,1.0,1.0
42.18,8.0,1.0,1.0,1.0
42.19,8.0,1.0,1.0,1.0
42.2,8.0,1.0,1.0,1.0
42.21,15.0,1.0,1.0,1.0
42.22,5.0,1.0,1.0,1.0
42.23,9.0,1.0,1.0,1.0
42.24,9.0,1.0,1.0,1.0
42.25,12.4944,1.0,1.0,1.0
42.26,5.5056,1.0,1.0,1.0
42.27,3.0,1.0,1.0,1.0
42.28,8.0,1.0,1.0,1.0
42.29,5.0,1.0,1.0,1.0
42.3,10.0,1.0,1.0,1.0
42.31,13.0,1.0,1.0,1.0
42.32,12.0,1.0,1.0,1.0
42.33,6.0,1.0,1.0,1.0
42.34,11.0,1.0,1.0,1.0
42.35,4.0,1.0,1.0,1.0
42.36,8.0,1.0,1.0,1.0
42.37,13.0,1.0,1.0,1.0
42.38,6.0,1.0,1.0,1.0
42.39,9.4944,1.0,1.0,1.0
42.4,7.5056,1.0,1.0,1.0
42.41,3.0,1.0,1.0,1.0
42.42,4.0,1.0,1.0,1.0
42.43,5.0,1.0,1.0,1.0
42.44,4.0,1.0,1.0,1.0
42.45,10.0,1.0,1.0,1.0
42.46,5.4944,1.0,1.0,1.0
42.47,13.5056,1.0,1.0,1.0
42.48,6.0,1.0,1.0,1.0
42.49,11.4944,1.0,1.0,1.0
42.5,9.0,1.0,1.0,1.0
42.51,4.5056,1.0,1.0,1.0
42.52,12.0,1.0,1.0,1.0
42.53,11.4944,1.0,1.0,1.0
42.54,8.5056,1.0,1.0,1.0
42.55,8.4944,1.0,1.0,1.0
42.56,12.5056,1.0,1.0,1.0
42.57,5.0,1.0,1.0,1.0
42.58,3.0,1.0,1.0,1.0
42.59,4.0,1.0,1.0,1.0
42.6,5.0,1.0,1.0,1.0
42.61,10.0,1.0,1.0,1.0
42.62,5.0,1.0,1.0,1.0
42.63,5.0,1.0,1.0,1.0
42.64,5.0,1.0,1.0,1.0
42.65,8.0,1.0,1.0,1.0
42.66,12.0,1.0,1.0,1.0
42.67,8.0,1.0,1.0,1.0
42.68,18.4944,1.0,1.0,1.0
42.69,2.5056,1.0,1.0,1.0
42.7,8.0,1.0,1.0,1.0
42.71,9.0,1.0,1.0,1.0
42.72,20.0,1.0,1.0,1.0
42.73,2.0,1.0,1.0,1.0
42.74,8.9889,1.0,1.0,1.0
42.75,14.0111,1.0,1.0,1.0
42.76,4.0,1.0,1.0,1.0
42.77,9.4944,1.0,1.0,1.0
42.78,3.5056,1.0,1.0,1.0
42.79,4.4944,1.0,1.0,1.0
42.8,17.5056,1.0,1.0,1.0
42.81,6.0,1.0,1.0,1.0
42.82,2.0,1.0,1.0,1.0
42.83,7.4944,1.0,1.0,1.0
42.84,23.5056,1.0,1.0,1.0
42.85,7.0,1.0,1.0,1.0
42.86,4.0,1.0,1.0,1.0
42.87,14.0,1.0,1.0,1.0
42.88,13.0,1.0,1.0,1.0
42.89,9.0,1.0,1.0,1.0
42.9,11.4944,1.0,1.0,1.0
42.91,16.5056,1.0,1.0,1.0
42.92,8.0,1.0,1.0,1.0
42.93,16.4944,1.0,1.0,1.0
42.94,11.0,1.0,1.0,1.0
42.95,18.5056,1.0,1.0,1.0
42.96,11.0,1.0,1.0,1.0
42.97,10.0,1.0,1.0,1.0
42.98,15.0,1.0,1.0,1.0
42.99,16.4944,1.0,1.0,1.0
43.0,16.5056,1.0,1.0,1.0
43.01,4.0,1.0,1.0,1.0
43.02,14.4944,1.0,1.0,1.0
43.03,11.0,1.0,1.0,1.0
43.04,9.5056,1.0,1.0,1.0
43.05,5.0,1.0,1.0,1.0
43.06,18.0,1.0,1.0,1.0
43.07,9.0,1.0,1.0,1.0
43.08,15.4944,1.0,1.0,1.0
43.09,5.5056,1.0,1.0,1.0
43.1,26.0,1.0,1.0,1.0
43.11,5.0,1.0,1.0,1.0
43.12,3.0,1.0,1.0,1.0
43.13,15.0,1.0,1.0,1.0
43.14,12.0,1.0,1.0,1.0
43.15,13.0,1.0,1.0,1.0
43.16,22.0,1.0,1.0,1.0
43.17,20.0,1.0,1.0,1.0
43.18,15.4944,1.0,1.0,1.0
43.19,11.5056,1.0,1.0,1.0
43.2,6.0,1.0,1.0,1.0
43.21,17.0,1.0,1.0,1.0
43.22,5.0,1.0,1.0,1.0
43.23,12.4944,1.0,1.0,1.0
43.24,14.5056,1.0,1.0,1.0
43.25,12.0,1.0,1.0,1.0
43.26,9.0,1.0,1.0,1.0
43.27,20.0,1.0,1.0,1.0
43.28,5.0,1.0,1.0,1.0
43.29,7.4944,1.0,1.0,1.0
43.3,12.5056,1.0,1.0,1.0
43.31,14.0,1.0,1.0,1.0
43.32,17.0,1.0,1.0,1.0
43.33,10.4944,1.0,1.0,1.0
43.34,12.5056,1.0,1.0,1.0
43.35,17.9889,1.0,1.0,1.0
43.36,6.0111,1.0,1.0,1.0
43.37,4.0,1.0,1.0,1.0
43.38,12.0,1.0,1.0,1.0
43.39,10.4944,1.0,1.0,1.0
43.4,6.5056,1.0,1.0,1.0
43.41,8.0,1.0,1.0,1.0
43.42,6.0,1.0,1.0,1.0
43.43,6.4944,1.0,1.0,1.0
43.44,14.5056,1.0,1.0,1.0
43.45,10.0,1.0,1.0,1.0
43.46,11.0,1.0,1.0,1.0
43.47,4.0,1.0,1.0,1.0
43.48,12.0,1.0,1.0,1.0
43.49,19.0,1.0,1.0,1.0
43.5,14.0,1.0,1.0,1.0
43.51,13.0,1.0,1.0,1.0
43.52,16.0,1.0,1.0,1.0
43.53,15.0,1.0,1.0,1.0
43.54,2.0,1.0,1.0,1.0
43.55,10.0,1.0,1.0,1.0
43.56,4.0,1.0,1.0,1.0
43.57,14.0,1.0,1.0,1.0
43.58,14.4944,1.0,1.0,1.0
43.59,2.4944,1.0,1.0,1.0
43.6,4.5056,1.0,1.0,1.0
43.61,23.5056,1.0,1.0,1.0
43.62,6.0,1.0,1.0,1.0
43.63,10.0,1.0,1.0,1.0
43.64,8.0,1.0,1.0,1.0
43.65,9.4833,1.0,1.0,1.0
43.66,17.5167,1.0,1.0,1.0
43.67,7.4944,1.0,1.0,1.0
43.68,6.5056,1.0,1.0,1.0
43.69,17.0,1.0,1.0,1.0
43.7,14.0,1.0,1.0,1.0
43.71,5.0,1.0,1.0,1.0
43.72,8.0,1.0,1.0,1.0
43.73,13.0,1.0,1.0,1.0
43.74,14.0,1.0,1.0,1.0
43.75,0.0,1.0,1.0,1.0
43.76,12.0,1.0,1.0,1.0
43.77,9.0,1.0,1.0,1.0
43.78,11.0,1.0,1.0,1.0
43.79,10.0,1.0,1.0,1.0
43.8,2.0,1.0,1.0,1.0
43.81,10.4944,1.0,1.0,1.0
43.82,8.5056,1.0,1.0,1.0
43.83,12.0,1.0,1.0,1.0
43.84,7.0,1.0,1.0,1.0
43.85,13.0,1.0,1.0,1.0
43.86,13.4944,1.0,1.0,1.0
43.87,7.0,1.0,1.0,1.0
43.88,3.5056,1.0,1.0,1.0
43.89,12.0,1.0,1.0,1.0
43.9,5.0,1.0,1.0,1.0
43.91,10.0,1.0,1.0,1.0
43.92,15.0,1.0,1.0,1.0
43.93,6.0,1.0,1.0,1.0
43.94,23.0,1.0,1.0,1.0
43.95,6.0,1.0,1.0,1.0
43.96,7.0,1.0,1.0,1.0
43.97,5.0,1.0,1.0,1.0
43.98,5.0,1.0,1.0,1.0
43.99,6.0,1.0,1.0,1.0
44.0,10.0,1.0,1.0,1.0
44.01,12.4944,1.0,1.0,1.0
44.02,12.5056,1.0,1.0,1.0
44.03,6.0,1.0,1.0,1.0
44.04,11.0,1.0,1.0,1.0
44.05,11.0,1.0,1.0,1.0
44.06,4.0,1.0,1.0,1.0
44.07,2.0,1.0,1.0,1.0
44.08,9.0,1.0,1.0,1.0
44.09,9.0,1.0,1.0,1.0
44.1,9.0,1.0,1.0,1.0
44.11,10.0,1.0,1.0,1.0
44.12,17.0,1.0,1.0,1.0
44.13,15.0,1.0,1.0,1.0
44.14,6.0,1.0,1.0,1.0
44.15,8.0,1.0,1.0,1.0
44.16,8.0,1.0,1.0,1.0
44.17,14.4944,1.0,1.0,1.0
44.18,19.0,1.0,1.0,1.0
44.19,14.5056,1.0,1.0,1.0
44.2,3.0,1.0,1.0,1.0
44.21,2.0,1.0,1.0,1.0
44.22,2.0,1.0,1.0,1.0
44.23,8.0,1.0,1.0,1.0
44.24,11.0,1.0,1.0,1.0
44.25,9.4944,1.0,1.0,1.0
44.26,14.5056,1.0,1.0,1.0
44.27,11.9889,1.0,1.0,1.0
44.28,13.0111,1.0,1.0,1.0
44.29,7.0,1.0,1.0,1.0
44.3,5.0,1.0,1.0,1.0
44.31,11.0,1.0,1.0,1.0
44.32,11.4944,1.0,1.0,1.0
44.33,14.5056,1.0,1.0,1.0
44.34,15.4944,1.0,1.0,1.0
44.35,14.5056,1.0,1.0,1.0
44.36,26.0,1.0,1.0,1.0
44.37,21.0,1.0,1.0,1.0
44.38,21.4944,1.0,1.0,1.0
44.39,22.5056,1.0,1.0,1.0
44.4,20.9889,1.0,1.0,1.0
44.41,24.5056,1.0,1.0,1.0
44.42,27.5056,1.0,1.0,1.0
44.43,21.0,1.0,1.0,1.0
44.44,37.0,1.0,1.0,1.0
44.45,28.0,1.0,1.0,1.0
44.46,21.0,1.0,1.0,1.0
44.47,20.0,1.0,1.0,1.0
44.48,26.0,1.0,1.0,1.0
44.49,25.0,1.0,1.0,1.0
44.5,29.0,1.0,1.0,1.0
44.51,40.4944,1.0,1.0,1.0
44.52,29.5056,1.0,1.0,1.0
44.53,24.4944,1.0,1.0,1.0
44.54,24.5056,1.0,1.0,1.0
44.55,50.9889,1.0,1.0,1.0
44.56,23.0111,1.0,1.0,1.0
44.57,28.9889,1.0,1.0,1.0
44.58,29.0111,1.0,1.0,1.0
44.59,36.0,1.0,1.0,1.0
44.6,63.0,1.0,1.0,1.0
44.61,44.4944,1.0,1.0,1.0
44.62,39.5056,1.0,1.0,1.0
44.63,38.0,1.0,1.0,1.0
44.64,44.9889,1.0,1.0,1.0
44.65,36.0,1.0,1.0,1.0
44.66,51.0,1.0,1.0,1.0
44.67,34.0111,1.0,1.0,1.0
44.68,55.9889,1.0,1.0,1.0
44.69,46.9889,1.0,1.0,1.0
44.7,39.0111,1.0,1.0,1.0
44.71,59.0111,1.0,1.0,1.0
44.72,61.0,1.0,1.0,1.0
44.73,55.0,1.0,1.0,1.0
44.74,39.4944,1.0,1.0,1.0
44.75,73.5056,1.0,1.0,1.0
44.76,61.4833,1.0,1.0,1.0
44.77,57.5056,1.0,1.0,1.0
44.78,56.4944,1.0,1.0,1.0
44.79,59.5167,1.0,1.0,1.0
44.8,74.0,1.0,1.0,1.0
44.81,82.4944,1.0,1.0,1.0
44.82,85.5056,1.0,1.0,1.0
44.83,71.0,1.0,1.0,1.0
44.84,81.0,1.0,1.0,1.0
44.85,86.4833,1.0,1.0,1.0
44.86,113.0111,1.0,1.0,1.0
44.87,100.5056,1.0,1.0,1.0
44.88,92.0,1.0,1.0,1.0
44.89,102.9778,1.0,1.0,1.0
44.9,118.0111,1.0,1.0,1.0
44.91,97.5056,1.0,1.0,1.0
44.92,151.4944,1.0,1.0,1.0
44.93,106.5056,1.0,1.0,1.0
44.94,114.4833,1.0,1.0,1.0
44.95,140.5056,1.0,1.0,1.0
44.96,121.0,1.0,1.0,1.0
44.97,122.0,1.0,1.0,1.0
44.98,140.0111,1.0,1.0,1.0
44.99,147.4944,1.0,1.0,1.0
45.0,121.4944,1.0,1.0,1.0
45.01,134.9889,1.0,1.0,1.0
45.02,150.0222,1.0,1.0,1.0
45.03,168.4944,1.0,1.0,1.0
45.04,157.9889,1.0,1.0,1.0
45.05,135.0,1.0,1.0,1.0
45.06,162.4722,1.0,1.0,1.0
45.07,165.5389,1.0,1.0,1.0
45.08,171.0,1.0,1.0,1.0
45.09,177.9778,1.0,1.0,1.0
45.1,177.0,1.0,1.0,1.0
45.11,178.5056,1.0,1.0,1.0
45.12,214.5167,1.0,1.0,1.0
45.13,190.9889,1.0,1.0,1.0
45.14,200.5056,1.0,1.0,1.0
45.15,176.0,1.0,1.0,1.0
45.16,193.4722,1.0,1.0,1.0
45.17,220.0111,1.0,1.0,1.0
45.18,222.0111,1.0,1.0,1.0
45.19,189.0111,1.0,1.0,1.0
45.2,229.4722,1.0,1.0,1.0
45.21,237.5167,1.0,1.0,1.0
45.22,171.9778,1.0,1.0,1.0
45.23,255.0111,1.0,1.0,1.0
45.24,239.0111,1.0,1.0,1.0
45.25,254.9667,1.0,1.0,1.0
45.26,224.5389,1.0,1.0,1.0
45.27,231.9889,1.0,1.0,1.0
45.28,263.0111,1.0,1.0,1.0
45.29,277.0,1.0,1.0,1.0
45.3,276.9667,1.0,1.0,1.0
45.31,278.0222,1.0,1.0,1.0
45.32,277.5056,1.0,1.0,1.0
45.33,289.9667,1.0,1.0,1.0
45.34,306.0222,1.0,1.0,1.0
45.35,302.5278,1.0,1.0,1.0
45.36,306.9556,1.0,1.0,1.0
45.37,257.0222,1.0,1.0,1.0
45.38,299.0,1.0,1.0,1.0
45.39,334.0,1.0,1.0,1.0
45.4,344.0,1.0,1.0,1.0
45.41,348.9778,1.0,1.0,1.0
45.42,354.0222,1.0,1.0,1.0
45.43,301.0111,1.0,1.0,1.0
45.44,318.4611,1.0,1.0,1.0
45.45,385.0,1.0,1.0,1.0
45.46,396.5167,1.0,1.0,1.0
45.47,371.9667,1.0,1.0,1.0
45.48,393.5389,1.0,1.0,1.0
45.49,400.0,1.0,1.0,1.0
45.5,394.5167,1.0,1.0,1.0
45.51,392.4722,1.0,1.0,1.0
45.52,366.5167,1.0,1.0,1.0
45.53,409.0,1.0,1.0,1.0
45.54,410.4611,1.0,1.0,1.0
45.55,420.0222,1.0,1.0,1.0
45.56,421.0111,1.0,1.0,1.0
45.57,429.0,1.0,1.0,1.0
45.58,422.9445,1.0,1.0,1.0
45.59,454.5611,1.0,1.0,1.0
45.6,450.4833,1.0,1.0,1.0
45.61,458.5389,1.0,1.0,1.0
45.62,470.9445,1.0,1.0,1.0
45.63,482.5056,1.0,1.0,1.0
45.64,473.0,1.0,1.0,1.0
45.65,464.4833,1.0,1.0,1.0
45.66,489.5278,1.0,1.0,1.0
45.67,548.4833,1.0,1.0,1.0
45.68,492.0444,1.0,1.0,1.0
45.69,534.4611,1.0,1.0,1.0
45.7,536.0333,1.0,1.0,1.0
45.71,519.9556,1.0,1.0,1.0
45.72,549.9778,1.0,1.0,1.0
45.73,546.5389,1.0,1.0,1.0
45.74,520.9778,1.0,1.0,1.0
45.75,511.0111,1.0,1.0,1.0
45.76,519.5056,1.0,1.0,1.0
45.77,601.9778,1.0,1.0,1.0
45.78,531.0111,1.0,1.0,1.0
45.79,611.4722,1.0,1.0,1.0
45.8,632.5278,1.0,1.0,1.0
45.81,623.5278,1.0,1.0,1.0
45.82,581.9889,1.0,1.0,1.0
45.83,639.9667,1.0,1.0,1.0
45.84,590.5278,1.0,1.0,1.0
45.85,657.4944,1.0,1.0,1.0
45.86,644.4833,1.0,1.0,1.0
45.87,659.0444,1.0,1.0,1.0
45.88,661.9667,1.0,1.0,1.0
45.89,656.0111,1.0,1.0,1.0
45.9,677.4611,1.0,1.0,1.0
45.91,684.55,1.0,1.0,1.0
45.92,644.4611,1.0,1.0,1.0
45.93,691.0222,1.0,1.0,1.0
45.94,622.4833,1.0,1.0,1.0
45.95,721.9556,1.0,1.0,1.0
45.96,685.5389,1.0,1.0,1.0
45.97,762.9778,1.0,1.0,1.0
45.98,774.4833,1.0,1.0,1.0
45.99,760.4833,1.0,1.0,1.0
46.0,729.0222,1.0,1.0,1.0
46.01,733.5167,1.0,1.0,1.0
46.02,760.9889,1.0,1.0,1.0
46.03,787.5167,1.0,1.0,1.0
46.04,778.0,1.0,1.0,1.0
46.05,807.5056,1.0,1.0,1.0
46.06,763.5167,1.0,1.0,1.0
46.07,782.9889,1.0,1.0,1.0
46.08,730.9889,1.0,1.0,1.0
46.09,804.5167,1.0,1.0,1.0
46.1,834.4722,1.0,1.0,1.0
46.11,851.0,1.0,1.0,1.0
46.12,865.4833,1.0,1.0,1.0
46.13,869.4944,1.0,1.0,1.0
46.14,854.0,1.0,1.0,1.0
46.15,867.5389,1.0,1.0,1.0
46.16,855.45,1.0,1.0,1.0
46.17,881.5278,1.0,1.0,1.0
46.18,881.0222,1.0,1.0,1.0
46.19,852.0111,1.0,1.0,1.0
46.2,834.9667,1.0,1.0,1.0
46.21,922.0444,1.0,1.0,1.0
46.22,862.9556,1.0,1.0,1.0
46.23,924.9889,1.0,1.0,1.0
46.24,921.5278,1.0,1.0,1.0
46.25,859.5278,1.0,1.0,1.0
46.26,852.4611,1.0,1.0,1.0
46.27,874.0,1.0,1.0,1.0
46.28,945.4833,1.0,1.0,1.0
46.29,968.0333,1.0,1.0,1.0
46.3,943.0333,1.0,1.0,1.0
46.31,897.4167,1.0,1.0,1.0
46.32,963.0333,1.0,1.0,1.0
46.33,1021.54,1.0,1.0,1.0
46.34,949.9222,1.0,1.0,1.0
46.35,1050.54,1.0,1.0,1.0
46.36,984.45,1.0,1.0,1.0
46.37,1003.55,1.0,1.0,1.0
46.38,970.4611,1.0,1.0,1.0
46.39,1026.52,1.0,1.0,1.0
46.4,1073.53,1.0,1.0,1.0
46.41,1052.47,1.0,1.0,1.0
46.42,997.0111,1.0,1.0,1.0
46.43,1043.0,1.0,1.0,1.0
46.44,1022.99,1.0,1.0,1.0
46.45,987.5278,1.0,1.0,1.0
46.46,1084.04,1.0,1.0,1.0
46.47,1007.96,1.0,1.0,1.0
46.48,1121.0,1.0,1.0,1.0
46.49,1090.0,1.0,1.0,1.0
46.5,1127.98,1.0,1.0,1.0
46.51,1074.01,1.0,1.0,1.0
46.52,1135.44,1.0,1.0,1.0
46.53,1065.1,1.0,1.0,1.0
46.54,1054.97,1.0,1.0,1.0
46.55,1106.46,1.0,1.0,1.0
46.56,1110.02,1.0,1.0,1.0
46.57,1036.43,1.0,1.0,1.0
46.58,1149.03,1.0,1.0,1.0
46.59,1179.06,1.0,1.0,1.0
46.6,1074.02,1.0,1.0,1.0
46.61,1093.98,1.0,1.0,1.0
46.62,1151.41,1.0,1.0,1.0
46.63,1086.09,1.0,1.0,1.0
46.64,1024.01,1.0,1.0,1.0
46.65,1120.46,1.0,1.0,1.0
46.66,1057.52,1.0,1.0,1.0
46.67,1069.51,1.0,1.0,1.0
46.68,1092.99,1.0,1.0,1.0
46.69,1121.49,1.0,1.0,1.0
46.7,1110.02,1.0,1.0,1.0
46.71,1129.46,1.0,1.0,1.0
46.72,1064.54,1.0,1.0,1.0
46.73,1175.48,1.0,1.0,1.0
46.74,1150.49,1.0,1.0,1.0
46.75,1171.99,1.0,1.0,1.0
46.76,1081.01,1.0,1.0,1.0
46.77,1089.02,1.0,1.0,1.0
46.78,1128.98,1.0,1.0,1.0
46.79,1123.48,1.0,1.0,1.0
46.8,1076.02,1.0,1.0,1.0
46.81,1107.04,1.0,1.0,1.0
46.82,1046.87,1.0,1.0,1.0
46.83,1083.61,1.0,1.0,1.0
46.84,1021.52,1.0,1.0,1.0
46.85,993.9556,1.0,1.0,1.0
46.86,1002.56,1.0,1.0,1.0
46.87,896.9889,1.0,1.0,1.0
46.88,945.9889,1.0,1.0,1.0
46.89,950.0111,1.0,1.0,1.0
46.9,989.9667,1.0,1.0,1.0
46.91,961.0,1.0,1.0,1.0
46.92,898.5389,1.0,1.0,1.0
46.93,843.9778,1.0,1.0,1.0
46.94,889.0,1.0,1.0,1.0
46.95,891.4944,1.0,1.0,1.0
46.96,858.0,1.0,1.0,1.0
46.97,784.0222,1.0,1.0,1.0
46.98,811.0111,1.0,1.0,1.0
46.99,812.45,1.0,1.0,1.0
47.0,733.5167,1.0,1.0,1.0
47.01,737.5611,1.0,1.0,1.0
47.02,722.4722,1.0,1.0,1.0
47.03,727.4611,1.0,1.0,1.0
47.04,657.0222,1.0,1.0,1.0
47.05,628.0222,1.0,1.0,1.0
47.06,656.0,1.0,1.0,1.0
47.07,637.9889,1.0,1.0,1.0
47.08,718.0333,1.0,1.0,1.0
47.09,598.4944,1.0,1.0,1.0
47.1,584.0,1.0,1.0,1.0
47.11,570.9889,1.0,1.0,1.0
47.12,556.5389,1.0,1.0,1.0
47.13,544.4944,1.0,1.0,1.0
47.14,563.0,1.0,1.0,1.0
47.15,532.9889,1.0,1.0,1.0
47.16,532.5056,1.0,1.0,1.0
47.17,517.9889,1.0,1.0,1.0
47.18,581.4722,1.0,1.0,1.0
47.19,586.5167,1.0,1.0,1.0
47.2,557.0111,1.0,1.0,1.0
47.21,612.4722,1.0,1.0,1.0
47.22,593.5056,1.0,1.0,1.0
47.23,607.4722,1.0,1.0,1.0
47.24,653.55,1.0,1.0,1.0
47.25,671.4944,1.0,1.0,1.0
47.26,637.45,1.0,1.0,1.0
47.27,687.55,1.0,1.0,1.0
47.28,719.4722,1.0,1.0,1.0
47.29,798.4944,1.0,1.0,1.0
47.3,801.9778,1.0,1.0,1.0
47.31,904.0111,1.0,1.0,1.0
47.32,919.0,1.0,1.0,1.0
47.33,1009.48,1.0,1.0,1.0
47.34,1021.47,1.0,1.0,1.0
47.35,1036.49,1.0,1.0,1.0
47.36,1182.02,1.0,1.0,1.0
47.37,1178.51,1.0,1.0,1.0
47.38,1252.51,1.0,1.0,1.0
47.39,1341.98,1.0,1.0,1.0
47.4,1387.97,1.0,1.0,1.0
47.41,1574.99,1.0,1.0,1.0
47.42,1560.99,1.0,1.0,1.0
47.43,1683.02,1.0,1.0,1.0
47.44,1648.99,1.0,1.0,1.0
47.45,1755.96,1.0,1.0,1.0
47.46,1856.04,1.0,1.0,1.0
47.47,1945.41,1.0,1.0,1.0
47.48,1978.55,1.0,1.0,1.0
47.49,1899.0,1.0,1.0,1.0
47.5,2166.48,1.0,1.0,1.0
47.51,2085.45,1.0,1.0,1.0
47.52,2173.61,1.0,1.0,1.0
47.53,2111.47,1.0,1.0,1.0
47.54,2232.91,1.0,1.0,1.0
47.55,2292.54,1.0,1.0,1.0
47.56,2189.11,1.0,1.0,1.0
47.57,2305.42,1.0,1.0,1.0
47.58,2271.99,1.0,1.0,1.0
47.59,2314.97,1.0,1.0,1.0
47.6,2268.54,1.0,1.0,1.0
47.61,2336.02,1.0,1.0,1.0
47.62,2368.46,1.0,1.0,1.0
47.63,2281.47,1.0,1.0,1.0
47.64,2457.96,1.0,1.0,1.0
47.65,2491.04,1.0,1.0,1.0
47.66,2405.02,1.0,1.0,1.0
47.67,2450.99,1.0,1.0,1.0
47.68,2436.49,1.0,1.0,1.0
47.69,2593.51,1.0,1.0,1.0
47.7,2658.88,1.0,1.0,1.0
47.71,2744.14,1.0,1.0,1.0
47.72,2872.35,1.0,1.0,1.0
47.73,3024.59,1.0,1.0,1.0
47.74,3217.89,1.0,1.0,1.0
47.75,3648.51,1.0,1.0,1.0
47.76,3883.98,1.0,1.0,1.0
47.77,4207.91,1.0,1.0,1.0
47.78,4892.06,1.0,1.0,1.0
47.79,5417.38,1.0,1.0,1.0
47.8,6163.32,1.0,1.0,1.0
47.81,7041.89,1.0,1.0,1.0
47.82,8392.88,1.0,1.0,1.0
47.83,9984.16,1.0,1.0,1.0
47.84,12259.8,1.0,1.0,1.0
47.85,15103.833,1.0,1.0,1.0
47.86,19166.1,1.0,1.0,1.0
47.87,24639.4,1.0,1.0,1.0
47.88,31861.7,1.0,1.0,1.0
47.89,42764.9,1.0,1.0,1.0
47.9,58530.5,1.0,1.0,1.0
47.91,84309.0,1.0,1.0,1.0
47.92,132240,1.0,1.0,1.0
47.93,266409,1.0,1.0,1.0
47.94,702206.875,1.0,1.0,1.0
47.95,2556214.75,1.0,1.0,1.0
47.96,7720786.5,1.0,1.0,1.0
47.97,11466204.0,1.0,1.0,1.0
47.98,11535427.0,1.0,1.0,1.0
47.99,10347183.0,1.0,1.0,1.0
48.0,8021594.0,1.0,1.0,1.0
48.01,6242135.5,1.0,1.0,1.0
48.02,4102875.75,1.0,1.0,1.0
48.03,2355366.0,1.0,1.0,1.0
48.04,818678.5,1.0,1.0,1.0
48.05,236586,1.0,1.0,1.0
48.06,151193,1.0,1.0,1.0
48.07,88179.3,1.0,1.0,1.0
48.08,51083.4,1.0,1.0,1.0
48.09,33121.2,1.0,1.0,1.0
48.1,23400.6,1.0,1.0,1.0
48.11,17546.6,1.0,1.0,1.0
48.12,13474.8,1.0,1.0,1.0
48.13,10744.3,1.0,1.0,1.0
48.14,8611.53,1.0,1.0,1.0
48.15,7045.34,1.0,1.0,1.0
48.16,5795.02,1.0,1.0,1.0
48.17,4724.11,1.0,1.0,1.0
48.18,4011.66,1.0,1.0,1.0
48.19,3403.43,1.0,1.0,1.0
48.2,2938.52,1.0,1.0,1.0
48.21,2538.57,1.0,1.0,1.0
48.22,2284.11,1.0,1.0,1.0
48.23,1985.01,1.0,1.0,1.0
48.24,1744.01,1.0,1.0,1.0
48.25,1480.51,1.0,1.0,1.0
48.26,1375.06,1.0,1.0,1.0
48.27,1234.45,1.0,1.0,1.0
48.28,1044.52,1.0,1.0,1.0
48.29,1005.03,1.0,1.0,1.0
48.3,896.5167,1.0,1.0,1.0
48.31,838.0444,1.0,1.0,1.0
48.32,755.9556,1.0,1.0,1.0
48.33,711.5056,1.0,1.0,1.0
48.34,620.4944,1.0,1.0,1.0
48.35,595.9889,1.0,1.0,1.0
48.36,514.5389,1.0,1.0,1.0
48.37,512.5056,1.0,1.0,1.0
48.38,457.4833,1.0,1.0,1.0
48.39,450.0333,1.0,1.0,1.0
48.4,404.4722,1.0,1.0,1.0
48.41,354.0333,1.0,1.0,1.0
48.42,330.9889,1.0,1.0,1.0
48.43,302.4944,1.0,1.0,1.0
48.44,310.5056,1.0,1.0,1.0
48.45,299.0,1.0,1.0,1.0
48.46,300.5056,1.0,1.0,1.0
48.47,251.0111,1.0,1.0,1.0
48.48,240.9778,1.0,1.0,1.0
48.49,223.0333,1.0,1.0,1.0
48.5,213.4944,1.0,1.0,1.0
48.51,210.4944,1.0,1.0,1.0
48.52,199.5167,1.0,1.0,1.0
48.53,184.0,1.0,1.0,1.0
48.54,164.4833,1.0,1.0,1.0
48.55,165.9889,1.0,1.0,1.0
48.56,157.5167,1.0,1.0,1.0
48.57,146.5167,1.0,1.0,1.0
48.58,153.0,1.0,1.0,1.0
48.59,152.4944,1.0,1.0,1.0
48.6,138.9889,1.0,1.0,1.0
48.61,146.5167,1.0,1.0,1.0
48.62,114.9889,1.0,1.0,1.0
48.63,130.5056,1.0,1.0,1.0
48.64,106.4833,1.0,1.0,1.0
48.65,117.5167,1.0,1.0,1.0
48.66,105.0,1.0,1.0,1.0
48.67,107.0,1.0,1.0,1.0
48.68,85.4944,1.0,1.0,1.0
48.69,95.0111,1.0,1.0,1.0
48.7,92.9889,1.0,1.0,1.0
48.71,84.9889,1.0,1.0,1.0
48.72,98.5167,1.0,1.0,1.0
48.73,96.9889,1.0,1.0,1.0
48.74,77.0111,1.0,1.0,1.0
48.75,72.4944,1.0,1.0,1.0
48.76,88.0,1.0,1.0,1.0
48.77,61.5056,1.0,1.0,1.0
48.78,59.0,1.0,1.0,1.0
48.79,58.0,1.0,1.0,1.0
48.8,50.5056,1.0,1.0,1.0
48.81,56.4944,1.0,1.0,1.0
48.82,45.0,1.0,1.0,1.0
48.83,69.4944,1.0,1.0,1.0
48.84,53.0111,1.0,1.0,1.0
48.85,62.0,1.0,1.0,1.0
48.86,57.0,1.0,1.0,1.0
48.87,59.4833,1.0,1.0,1.0
48.88,56.5056,1.0,1.0,1.0
48.89,50.0111,1.0,1.0,1.0
48.9,51.0,1.0,1.0,1.0
48.91,28.0,1.0,1.0,1.0
48.92,31.0,1.0,1.0,1.0
48.93,42.4944,1.0,1.0,1.0
48.94,37.5056,1.0,1.0,1.0
48.95,49.4944,1.0,1.0,1.0
48.96,45.0,1.0,1.0,1.0
48.97,40.9889,1.0,1.0,1.0
48.98,41.5167,1.0,1.0,1.0
48.99,39.0,1.0,1.0,1.0
49.0,39.0,1.0,1.0,1.0
49.01,15.0,1.0,1.0,1.0
49.02,35.0,1.0,1.0,1.0
49.03,37.9889,1.0,1.0,1.0
49.04,31.5056,1.0,1.0,1.0
49.05,38.5056,1.0,1.0,1.0
49.06,42.0,1.0,1.0,1.0
49.07,27.4944,1.0,1.0,1.0
49.08,31.5056,1.0,1.0,1.0
49.09,28.0,1.0,1.0,1.0
49.1,26.4944,1.0,1.0,1.0
49.11,40.5056,1.0,1.0,1.0
49.12,27.0,1.0,1.0,1.0
49.13,17.0,1.0,1.0,1.0
49.14,25.4944,1.0,1.0,1.0
49.15,19.0,1.0,1.0,1.0
49.16,30.4944,1.0,1.0,1.0
49.17,18.0111,1.0,1.0,1.0
49.18,29.0,1.0,1.0,1.0
49.19,24.0,1.0,1.0,1.0
49.2,22.9889,1.0,1.0,1.0
49.21,29.0111,1.0,1.0,1.0
49.22,14.0,1.0,1.0,1.0
49.23,29.9889,1.0,1.0,1.0
49.24,17.0111,1.0,1.0,1.0
49.25,22.0,1.0,1.0,1.0
49.26,26.9889,1.0,1.0,1.0
49.27,18.0111,1.0,1.0,1.0
49.28,22.0,1.0,1.0,1.0
49.29,17.0,1.0,1.0,1.0
49.3,18.0,1.0,1.0,1.0
49.31,29.0,1.0,1.0,1.0
49.32,17.0,1.0,1.0,1.0
49.33,16.0,1.0,1.0,1.0
49.34,14.0,1.0,1.0,1.0
49.35,9.0,1.0,1.0,1.0
49.36,15.0,1.0,1.0,1.0
49.37,14.4944,1.0,1.0,1.0
49.38,13.5056,1.0,1.0,1.0
49.39,10.0,1.0,1.0,1.0
49.4,9.0,1.0,1.0,1.0
49.41,16.0,1.0,1.0,1.0
49.42,16.4944,1.0,1.0,1.0
49.43,18.0,1.0,1.0,1.0
49.44,22.4944,1.0,1.0,1.0
49.45,4.0111,1.0,1.0,1.0
49.46,9.0,1.0,1.0,1.0
49.47,8.4944,1.0,1.0,1.0
49.48,19.5056,1.0,1.0,1.0
49.49,20.0,1.0,1.0,1.0
49.5,7.0,1.0,1.0,1.0
49.51,14.0,1.0,1.0,1.0
49.52,15.0,1.0,1.0,1.0
49.53,4.0,1.0,1.0,1.0
49.54,15.0,1.0,1.0,1.0
49.55,10.4944,1.0,1.0,1.0
49.56,22.5056,1.0,1.0,1.0
49.57,18.0,1.0,1.0,1.0
49.58,16.0,1.0,1.0,1.0
49.59,15.0,1.0,1.0,1.0
49.6,27.0,1.0,1.0,1.0
49.61,13.0,1.0,1.0,1.0
49.62,23.0,1.0,1.0,1.0
49.63,19.4944,1.0,1.0,1.0
49.64,7.5056,1.0,1.0,1.0
49.65,7.0,1.0,1.0,1.0
49.66,11.4944,1.0,1.0,1.0
49.67,16.5056,1.0,1.0,1.0
49.68,16.0,1.0,1.0,1.0
49.69,13.0,1.0,1.0,1.0
49.7,13.0,1.0,1.0,1.0
49.71,22.9889,1.0,1.0,1.0
49.72,18.0111,1.0,1.0,1.0
49.73,14.4944,1.0,1.0,1.0
49.74,14.0,1.0,1.0,1.0
49.75,11.0,1.0,1.0,1.0
49.76,33.4944,1.0,1.0,1.0
49.77,8.0111,1.0,1.0,1.0
49.78,10.0,1.0,1.0,1.0
49.79,14.4944,1.0,1.0,1.0
49.8,13.5056,1.0,1.0,1.0
49.81,5.4944,1.0,1.0,1.0
49.82,17.5056,1.0,1.0,1.0
49.83,17.0,1.0,1.0,1.0
49.84,17.0,1.0,1.0,1.0
49.85,8.0,1.0,1.0,1.0
49.86,8.0,1.0,1.0,1.0
49.87,12.0,1.0,1.0,1.0
49.88,4.0,1.0,1.0,1.0
49.89,8.0,1.0,1.0,1.0
49.9,6.0,1.0,1.0,1.0
49.91,12.4944,1.0,1.0,1.0
49.92,8.5056,1.0,1.0,1.0
49.93,11.9889,1.0,1.0,1.0
49.94,16.0111,1.0,1.0,1.0
49.95,12.0,1.0,1.0,1.0
49.96,14.0,1.0,1.0,1.0
49.97,15.0,1.0,1.0,1.0
49.98,5.0,1.0,1.0,1.0
49.99,10.4944,1.0,1.0,1.0
50.0,11.0,1.0,1.0,1.0
50.01,9.5056,1.0,1.0,1.0
50.02,5.4944,1.0,1.0,1.0
50.03,15.5056,1.0,1.0,1.0
50.04,4.0,1.0,1.0,1.0
50.05,12.0,1.0,1.0,1.0
50.06,11.0,1.0,1.0,1.0
50.07,9.0,1.0,1.0,1.0
50.08,7.0,1.0,1.0,1.0
50.09,7.0,1.0,1.0,1.0
50.1,15.4944,1.0,1.0,1.0
50.11,3.5056,1.0,1.0,1.0
50.12,13.0,1.0,1.0,1.0
50.13,10.0,1.0,1.0,1.0
50.14,13.0,1.0,1.0,1.0
50.15,23.0,1.0,1.0,1.0
50.16,12.4944,1.0,1.0,1.0
50.17,13.5056,1.0,1.0,1.0
50.18,12.0,1.0,1.0,1.0
50.19,0.0,1.0,1.0,1.0
50.2,12.0,1.0,1.0,1.0
50.21,5.0,1.0,1.0,1.0
50.22,12.0,1.0,1.0,1.0
50.23,6.4944,1.0,1.0,1.0
50.24,7.5056,1.0,1.0,1.0
50.25,7.0,1.0,1.0,1.0
50.26,5.4944,1.0,1.0,1.0
50.27,5.5056,1.0,1.0,1.0
50.28,4.0,1.0,1.0,1.0
50.29,11.0,1.0,1.0,1.0
50.3,6.0,1.0,1.0,1.0
50.31,5.0,1.0,1.0,1.0
50.32,5.0,1.0,1.0,1.0
50.33,4.0,1.0,1.0,1.0
50.34,11.0,1.0,1.0,1.0
50.35,6.0,1.0,1.0,1.0
50.36,12.0,1.0,1.0,1.0
50.37,4.0,1.0,1.0,1.0
50.38,3.4944,1.0,1.0,1.0
50.39,16.5056,1.0,1.0,1.0
50.4,3.0,1.0,1.0,1.0
50.41,13.0,1.0,1.0,1.0
50.42,14.9889,1.0,1.0,1.0
50.43,14.0111,1.0,1.0,1.0
50.44,9.4944,1.0,1.0,1.0
50.45,3.5056,1.0,1.0,1.0
50.46,5.0,1.0,1.0,1.0
50.47,4.0,1.0,1.0,1.0
50.48,17.0,1.0,1.0,1.0
50.49,6.4944,1.0,1.0,1.0
50.5,7.5056,1.0,1.0,1.0
50.51,10.0,1.0,1.0,1.0
50.52,13.0,1.0,1.0,1.0
50.53,10.0,1.0,1.0,1.0
50.54,17.0,1.0,1.0,1.0
50.55,1.0,1.0,1.0,1.0
50.56,4.0,1.0,1.0,1.0
50.57,6.0,1.0,1.0,1.0
50.58,8.0,1.0,1.0,1.0
50.59,4.0,1.0,1.0,1.0
50.6,12.0,1.0,1.0,1.0
50.61,6.0,1.0,1.0,1.0
50.62,6.0,1.0,1.0,1.0
50.63,10.0,1.0,1.0,1.0
50.64,15.0,1.0,1.0,1.0
50.65,6.0,1.0,1.0,1.0
50.66,4.4944,1.0,1.0,1.0
50.67,13.0,1.0,1.0,1.0
50.68,2.0,1.0,1.0,1.0
50.69,11.5056,1.0,1.0,1.0
50.7,13.0,1.0,1.0,1.0
50.71,10.0,1.0,1.0,1.0
50.72,4.0,1.0,1.0,1.0
50.73,8.0,1.0,1.0,1.0
50.74,12.0,1.0,1.0,1.0
50.75,4.0,1.0,1.0,1.0
50.76,2.0,1.0,1.0,1.0
50.77,15.9889,1.0,1.0,1.0
50.78,12.0111,1.0,1.0,1.0
50.79,8.0,1.0,1.0,1.0
50.8,12.0,1.0,1.0,1.0
50.81,5.4944,1.0,1.0,1.0
50.82,7.5056,1.0,1.0,1.0
50.83,10.0,1.0,1.0,1.0
50.84,2.0,1.0,1.0,1.0
50.85,6.4944,1.0,1.0,1.0
50.86,14.5056,1.0,1.0,1.0
50.87,9.0,1.0,1.0,1.0
50.88,6.0,1.0,1.0,1.0
50.89,5.0,1.0,1.0,1.0
50.9,4.0,1.0,1.0,1.0
50.91,2.0,1.0,1.0,1.0
50.92,10.0,1.0,1.0,1.0
50.93,10.0,1.0,1.0,1.0
50.94,0.0,1.0,1.0,1.0
50.95,5.9889,1.0,1.0,1.0
50.96,3.0111,1.0,1.0,1.0
50.97,2.0,1.0,1.0,1.0
50.98,10.0,1.0,1.0,1.0
50.99,8.0,1.0,1.0,1.0
51.0,9.0,1.0,1.0,1.0
51.01,12.0,1.0,1.0,1.0
51.02,12.0,1.0,1.0,1.0
51.03,4.0,1.0,1.0,1.0
51.04,3.0,1.0,1.0,1.0
51.05,3.0,1.0,1.0,1.0
51.06,13.4944,1.0,1.0,1.0
51.07,4.5056,1.0,1.0,1.0
51.08,4.0,1.0,1.0,1.0
51.09,12.0,1.0,1.0,1.0
51.1,7.0,1.0,1.0,1.0
51.11,13.0,1.0,1.0,1.0
51.12,7.0,1.0,1.0,1.0
51.13,10.9889,1.0,1.0,1.0
51.14,3.0111,1.0,1.0,1.0
51.15,4.0,1.0,1.0,1.0
51.16,2.0,1.0,1.0,1.0
51.17,0.0,1.0,1.0,1.0
51.18,12.0,1.0,1.0,1.0
51.19,4.4944,1.0,1.0,1.0
51.2,7.5056,1.0,1.0,1.0
51.21,5.0,1.0,1.0,1.0
51.22,9.0,1.0,1.0,1.0
51.23,9.0,1.0,1.0,1.0
51.24,5.0,1.0,1.0,1.0
51.25,5.0,1.0,1.0,1.0
51.26,3.0,1.0,1.0,1.0
51.27,6.0,1.0,1.0,1.0
51.28,8.0,1.0,1.0,1.0
51.29,9.0,1.0,1.0,1.0
51.3,3.0,1.0,1.0,1.0
51.31,2.0,1.0,1.0,1.0
51.32,8.0,1.0,1.0,1.0
51.33,16.0,1.0,1.0,1.0
51.34,5.0,1.0,1.0,1.0
51.35,9.0,1.0,1.0,1.0
51.36,2.0,1.0,1.0,1.0
51.37,4.0,1.0,1.0,1.0
51.38,4.0,1.0,1.0,1.0
51.39,9.4944,1.0,1.0,1.0
51.4,4.0,1.0,1.0,1.0
51.41,3.5056,1.0,1.0,1.0
51.42,6.0,1.0,1.0,1.0
51.43,12.0,1.0,1.0,1.0
51.44,5.0,1.0,1.0,1.0
51.45,9.0,1.0,1.0,1.0
51.46,5.0,1.0,1.0,1.0
51.47,8.0,1.0,1.0,1.0
51.48,8.0,1.0,1.0,1.0
51.49,2.0,1.0,1.0,1.0
51.5,4.4944,1.0,1.0,1.0
51.51,1.5056,1.0,1.0,1.0
51.52,7.4944,1.0,1.0,1.0
51.53,9.5056,1.0,1.0,1.0
51.54,4.0,1.0,1.0,1.0
51.55,13.0,1.0,1.0,1.0
51.56,6.0,1.0,1.0,1.0
51.57,5.0,1.0,1.0,1.0
51.58,6.0,1.0,1.0,1.0
51.59,13.0,1.0,1.0,1.0
51.6,6.0,1.0,1.0,1.0
51.61,7.0,1.0,1.0,1.0
51.62,9.0,1.0,1.0,1.0
51.63,4.0,1.0,1.0,1.0
51.64,6.4944,1.0,1.0,1.0
51.65,9.0,1.0,1.0,1.0
51.66,8.5056,1.0,1.0,1.0
51.67,0.0,1.0,1.0,1.0
51.68,4.0,1.0,1.0,1.0
51.69,9.0,1.0,1.0,1.0
51.7,7.0,1.0,1.0,1.0
51.71,3.0,1.0,1.0,1.0
51.72,5.0,1.0,1.0,1.0
51.73,3.0,1.0,1.0,1.0
51.74,7.4944,1.0,1.0,1.0
51.75,13.5056,1.0,1.0,1.0
51.76,0.0,1.0,1.0,1.0
51.77,9.0,1.0,1.0,1.0
51.78,4.0,1.0,1.0,1.0
51.79,11.0,1.0,1.0,1.0
51.8,0.0,1.0,1.0,1.0
51.81,6.0,1.0,1.0,1.0
51.82,4.0,1.0,1.0,1.0
51.83,3.0,1.0,1.0,1.0
51.84,5.4944,1.0,1.0,1.0
51.85,12.4944,1.0,1.0,1.0
51.86,3.0,1.0,1.0,1.0
51.87,5.0111,1.0,1.0,1.0
51.88,5.0,1.0,1.0,1.0
51.89,1.0,1.0,1.0,1.0
51.9,10.0,1.0,1.0,1.0
51.91,9.0,1.0,1.0,1.0
51.92,8.0,1.0,1.0,1.0
51.93,2.0,1.0,1.0,1.0
51.94,5.4944,1.0,1.0,1.0
51.95,7.5056,1.0,1.0,1.0
51.96,8.0,1.0,1.0,1.0
51.97,3.0,1.0,1.0,1.0
51.98,2.0,1.0,1.0,1.0
51.99,0.0,1.0,1.0,1.0
52.0,5.0,1.0,1.0,1.0