File: XRD:XRR/SCO/22059_SCO(TS)/22059_SCO(TS)_XRD.csv
#twotheta, yobs, ycal, bkg, diff
38.0,13.0,1.0,1.0,1.0
38.01,47.0,1.0,1.0,1.0
38.02,21.4944,1.0,1.0,1.0
38.03,14.5056,1.0,1.0,1.0
38.04,24.0,1.0,1.0,1.0
38.05,18.9889,1.0,1.0,1.0
38.06,27.0111,1.0,1.0,1.0
38.07,15.0,1.0,1.0,1.0
38.08,24.0,1.0,1.0,1.0
38.09,24.0,1.0,1.0,1.0
38.1,27.9889,1.0,1.0,1.0
38.11,24.0111,1.0,1.0,1.0
38.12,32.0,1.0,1.0,1.0
38.13,18.0,1.0,1.0,1.0
38.14,26.0,1.0,1.0,1.0
38.15,22.0,1.0,1.0,1.0
38.16,24.0,1.0,1.0,1.0
38.17,32.4944,1.0,1.0,1.0
38.18,23.0,1.0,1.0,1.0
38.19,16.5056,1.0,1.0,1.0
38.2,18.4944,1.0,1.0,1.0
38.21,25.5056,1.0,1.0,1.0
38.22,12.0,1.0,1.0,1.0
38.23,38.0,1.0,1.0,1.0
38.24,31.4944,1.0,1.0,1.0
38.25,24.4944,1.0,1.0,1.0
38.26,20.0111,1.0,1.0,1.0
38.27,31.4944,1.0,1.0,1.0
38.28,25.5056,1.0,1.0,1.0
38.29,33.4944,1.0,1.0,1.0
38.3,21.5056,1.0,1.0,1.0
38.31,28.9889,1.0,1.0,1.0
38.32,27.5056,1.0,1.0,1.0
38.33,29.4944,1.0,1.0,1.0
38.34,30.0111,1.0,1.0,1.0
38.35,22.0,1.0,1.0,1.0
38.36,35.0,1.0,1.0,1.0
38.37,22.9889,1.0,1.0,1.0
38.38,15.0111,1.0,1.0,1.0
38.39,32.0,1.0,1.0,1.0
38.4,9.0,1.0,1.0,1.0
38.41,12.0,1.0,1.0,1.0
38.42,19.0,1.0,1.0,1.0
38.43,33.0,1.0,1.0,1.0
38.44,19.0,1.0,1.0,1.0
38.45,29.4944,1.0,1.0,1.0
38.46,9.5056,1.0,1.0,1.0
38.47,11.0,1.0,1.0,1.0
38.48,28.0,1.0,1.0,1.0
38.49,14.0,1.0,1.0,1.0
38.5,26.0,1.0,1.0,1.0
38.51,16.0,1.0,1.0,1.0
38.52,25.4944,1.0,1.0,1.0
38.53,25.5056,1.0,1.0,1.0
38.54,19.4944,1.0,1.0,1.0
38.55,18.5056,1.0,1.0,1.0
38.56,21.0,1.0,1.0,1.0
38.57,28.4944,1.0,1.0,1.0
38.58,48.0,1.0,1.0,1.0
38.59,17.5056,1.0,1.0,1.0
38.6,23.0,1.0,1.0,1.0
38.61,20.0,1.0,1.0,1.0
38.62,21.0,1.0,1.0,1.0
38.63,26.0,1.0,1.0,1.0
38.64,32.9889,1.0,1.0,1.0
38.65,21.5056,1.0,1.0,1.0
38.66,22.5056,1.0,1.0,1.0
38.67,13.0,1.0,1.0,1.0
38.68,18.4944,1.0,1.0,1.0
38.69,24.0,1.0,1.0,1.0
38.7,22.5056,1.0,1.0,1.0
38.71,21.0,1.0,1.0,1.0
38.72,12.0,1.0,1.0,1.0
38.73,28.0,1.0,1.0,1.0
38.74,25.0,1.0,1.0,1.0
38.75,13.0,1.0,1.0,1.0
38.76,14.0,1.0,1.0,1.0
38.77,21.4944,1.0,1.0,1.0
38.78,29.5056,1.0,1.0,1.0
38.79,22.4944,1.0,1.0,1.0
38.8,15.5056,1.0,1.0,1.0
38.81,32.4944,1.0,1.0,1.0
38.82,28.0,1.0,1.0,1.0
38.83,22.5056,1.0,1.0,1.0
38.84,18.0,1.0,1.0,1.0
38.85,33.4944,1.0,1.0,1.0
38.86,34.5056,1.0,1.0,1.0
38.87,26.0,1.0,1.0,1.0
38.88,28.4944,1.0,1.0,1.0
38.89,33.5056,1.0,1.0,1.0
38.9,29.0,1.0,1.0,1.0
38.91,35.0,1.0,1.0,1.0
38.92,13.9889,1.0,1.0,1.0
38.93,24.0111,1.0,1.0,1.0
38.94,22.4944,1.0,1.0,1.0
38.95,20.5056,1.0,1.0,1.0
38.96,33.0,1.0,1.0,1.0
38.97,31.4944,1.0,1.0,1.0
38.98,15.9889,1.0,1.0,1.0
38.99,37.5167,1.0,1.0,1.0
39.0,14.0,1.0,1.0,1.0
39.01,25.9889,1.0,1.0,1.0
39.02,26.0111,1.0,1.0,1.0
39.03,21.0,1.0,1.0,1.0
39.04,12.0,1.0,1.0,1.0
39.05,23.0,1.0,1.0,1.0
39.06,31.0,1.0,1.0,1.0
39.07,14.4944,1.0,1.0,1.0
39.08,21.5056,1.0,1.0,1.0
39.09,21.9778,1.0,1.0,1.0
39.1,10.0222,1.0,1.0,1.0
39.11,25.4944,1.0,1.0,1.0
39.12,29.5056,1.0,1.0,1.0
39.13,26.0,1.0,1.0,1.0
39.14,25.0,1.0,1.0,1.0
39.15,27.4944,1.0,1.0,1.0
39.16,32.5056,1.0,1.0,1.0
39.17,37.4944,1.0,1.0,1.0
39.18,33.4833,1.0,1.0,1.0
39.19,30.0111,1.0,1.0,1.0
39.2,20.0111,1.0,1.0,1.0
39.21,18.0,1.0,1.0,1.0
39.22,29.0,1.0,1.0,1.0
39.23,33.0,1.0,1.0,1.0
39.24,29.4944,1.0,1.0,1.0
39.25,31.5056,1.0,1.0,1.0
39.26,35.0,1.0,1.0,1.0
39.27,25.0,1.0,1.0,1.0
39.28,25.0,1.0,1.0,1.0
39.29,23.4944,1.0,1.0,1.0
39.3,22.4944,1.0,1.0,1.0
39.31,27.0111,1.0,1.0,1.0
39.32,11.4944,1.0,1.0,1.0
39.33,42.5056,1.0,1.0,1.0
39.34,31.0,1.0,1.0,1.0
39.35,23.0,1.0,1.0,1.0
39.36,23.0,1.0,1.0,1.0
39.37,25.0,1.0,1.0,1.0
39.38,14.0,1.0,1.0,1.0
39.39,39.0,1.0,1.0,1.0
39.4,29.0,1.0,1.0,1.0
39.41,32.0,1.0,1.0,1.0
39.42,18.9889,1.0,1.0,1.0
39.43,26.5056,1.0,1.0,1.0
39.44,30.5056,1.0,1.0,1.0
39.45,28.0,1.0,1.0,1.0
39.46,30.4944,1.0,1.0,1.0
39.47,23.5056,1.0,1.0,1.0
39.48,21.4944,1.0,1.0,1.0
39.49,18.5056,1.0,1.0,1.0
39.5,15.0,1.0,1.0,1.0
39.51,22.0,1.0,1.0,1.0
39.52,22.4944,1.0,1.0,1.0
39.53,34.0,1.0,1.0,1.0
39.54,32.0,1.0,1.0,1.0
39.55,30.0,1.0,1.0,1.0
39.56,27.0,1.0,1.0,1.0
39.57,14.5056,1.0,1.0,1.0
39.58,26.9889,1.0,1.0,1.0
39.59,25.5056,1.0,1.0,1.0
39.6,33.9889,1.0,1.0,1.0
39.61,25.5167,1.0,1.0,1.0
39.62,33.4944,1.0,1.0,1.0
39.63,21.5056,1.0,1.0,1.0
39.64,25.0,1.0,1.0,1.0
39.65,26.4944,1.0,1.0,1.0
39.66,35.5056,1.0,1.0,1.0
39.67,21.0,1.0,1.0,1.0
39.68,27.4944,1.0,1.0,1.0
39.69,28.5056,1.0,1.0,1.0
39.7,27.4944,1.0,1.0,1.0
39.71,27.5056,1.0,1.0,1.0
39.72,26.0,1.0,1.0,1.0
39.73,30.0,1.0,1.0,1.0
39.74,37.9889,1.0,1.0,1.0
39.75,31.0111,1.0,1.0,1.0
39.76,29.4944,1.0,1.0,1.0
39.77,24.5056,1.0,1.0,1.0
39.78,23.0,1.0,1.0,1.0
39.79,18.0,1.0,1.0,1.0
39.8,25.0,1.0,1.0,1.0
39.81,25.0,1.0,1.0,1.0
39.82,31.4944,1.0,1.0,1.0
39.83,19.5056,1.0,1.0,1.0
39.84,33.0,1.0,1.0,1.0
39.85,23.0,1.0,1.0,1.0
39.86,24.9889,1.0,1.0,1.0
39.87,25.0111,1.0,1.0,1.0
39.88,20.0,1.0,1.0,1.0
39.89,25.9889,1.0,1.0,1.0
39.9,15.0111,1.0,1.0,1.0
39.91,34.9889,1.0,1.0,1.0
39.92,37.0111,1.0,1.0,1.0
39.93,14.0,1.0,1.0,1.0
39.94,27.4944,1.0,1.0,1.0
39.95,35.5056,1.0,1.0,1.0
39.96,21.0,1.0,1.0,1.0
39.97,36.4944,1.0,1.0,1.0
39.98,19.5056,1.0,1.0,1.0
39.99,24.0,1.0,1.0,1.0
40.0,23.4944,1.0,1.0,1.0
40.01,21.0,1.0,1.0,1.0
40.02,24.0,1.0,1.0,1.0
40.03,21.0,1.0,1.0,1.0
40.04,25.0,1.0,1.0,1.0
40.05,33.5056,1.0,1.0,1.0
40.06,33.0,1.0,1.0,1.0
40.07,28.9778,1.0,1.0,1.0
40.08,29.0111,1.0,1.0,1.0
40.09,28.0111,1.0,1.0,1.0
40.1,36.0,1.0,1.0,1.0
40.11,22.0,1.0,1.0,1.0
40.12,23.4944,1.0,1.0,1.0
40.13,16.5056,1.0,1.0,1.0
40.14,28.0,1.0,1.0,1.0
40.15,18.0,1.0,1.0,1.0
40.16,30.0,1.0,1.0,1.0
40.17,22.4944,1.0,1.0,1.0
40.18,18.4833,1.0,1.0,1.0
40.19,31.0222,1.0,1.0,1.0
40.2,23.0,1.0,1.0,1.0
40.21,27.0,1.0,1.0,1.0
40.22,15.0,1.0,1.0,1.0
40.23,20.0,1.0,1.0,1.0
40.24,8.0,1.0,1.0,1.0
40.25,28.0,1.0,1.0,1.0
40.26,20.0,1.0,1.0,1.0
40.27,35.0,1.0,1.0,1.0
40.28,27.0,1.0,1.0,1.0
40.29,20.0,1.0,1.0,1.0
40.3,20.4944,1.0,1.0,1.0
40.31,18.5056,1.0,1.0,1.0
40.32,24.9889,1.0,1.0,1.0
40.33,11.0111,1.0,1.0,1.0
40.34,23.4944,1.0,1.0,1.0
40.35,79.5056,1.0,1.0,1.0
40.36,16.0,1.0,1.0,1.0
40.37,32.0,1.0,1.0,1.0
40.38,25.0,1.0,1.0,1.0
40.39,14.0,1.0,1.0,1.0
40.4,30.0,1.0,1.0,1.0
40.41,29.0,1.0,1.0,1.0
40.42,22.0,1.0,1.0,1.0
40.43,23.0,1.0,1.0,1.0
40.44,19.0,1.0,1.0,1.0
40.45,20.9889,1.0,1.0,1.0
40.46,16.0111,1.0,1.0,1.0
40.47,27.0,1.0,1.0,1.0
40.48,12.4944,1.0,1.0,1.0
40.49,32.5056,1.0,1.0,1.0
40.5,20.0,1.0,1.0,1.0
40.51,9.0,1.0,1.0,1.0
40.52,13.0,1.0,1.0,1.0
40.53,18.0,1.0,1.0,1.0
40.54,26.4944,1.0,1.0,1.0
40.55,18.5056,1.0,1.0,1.0
40.56,23.4944,1.0,1.0,1.0
40.57,33.5056,1.0,1.0,1.0
40.58,23.0,1.0,1.0,1.0
40.59,27.0,1.0,1.0,1.0
40.6,13.0,1.0,1.0,1.0
40.61,16.4944,1.0,1.0,1.0
40.62,24.5056,1.0,1.0,1.0
40.63,22.0,1.0,1.0,1.0
40.64,20.0,1.0,1.0,1.0
40.65,40.4944,1.0,1.0,1.0
40.66,26.0,1.0,1.0,1.0
40.67,31.5056,1.0,1.0,1.0
40.68,35.9889,1.0,1.0,1.0
40.69,21.0111,1.0,1.0,1.0
40.7,21.4944,1.0,1.0,1.0
40.71,31.0,1.0,1.0,1.0
40.72,21.0,1.0,1.0,1.0
40.73,23.0,1.0,1.0,1.0
40.74,38.0,1.0,1.0,1.0
40.75,23.5056,1.0,1.0,1.0
40.76,19.0,1.0,1.0,1.0
40.77,40.0,1.0,1.0,1.0
40.78,28.4944,1.0,1.0,1.0
40.79,29.4944,1.0,1.0,1.0
40.8,23.5056,1.0,1.0,1.0
40.81,29.5056,1.0,1.0,1.0
40.82,33.4833,1.0,1.0,1.0
40.83,28.5167,1.0,1.0,1.0
40.84,28.4944,1.0,1.0,1.0
40.85,21.0,1.0,1.0,1.0
40.86,43.4833,1.0,1.0,1.0
40.87,21.0222,1.0,1.0,1.0
40.88,30.0,1.0,1.0,1.0
40.89,27.0,1.0,1.0,1.0
40.9,23.0,1.0,1.0,1.0
40.91,27.0,1.0,1.0,1.0
40.92,16.4944,1.0,1.0,1.0
40.93,31.0,1.0,1.0,1.0
40.94,27.5056,1.0,1.0,1.0
40.95,21.4944,1.0,1.0,1.0
40.96,19.0,1.0,1.0,1.0
40.97,14.4944,1.0,1.0,1.0
40.98,22.5056,1.0,1.0,1.0
40.99,22.5056,1.0,1.0,1.0
41.0,17.4944,1.0,1.0,1.0
41.01,15.5056,1.0,1.0,1.0
41.02,27.0,1.0,1.0,1.0
41.03,24.4944,1.0,1.0,1.0
41.04,33.0,1.0,1.0,1.0
41.05,23.5056,1.0,1.0,1.0
41.06,10.0,1.0,1.0,1.0
41.07,18.0,1.0,1.0,1.0
41.08,19.0,1.0,1.0,1.0
41.09,33.0,1.0,1.0,1.0
41.1,28.0,1.0,1.0,1.0
41.11,24.0,1.0,1.0,1.0
41.12,21.0,1.0,1.0,1.0
41.13,25.0,1.0,1.0,1.0
41.14,22.4944,1.0,1.0,1.0
41.15,29.5056,1.0,1.0,1.0
41.16,36.0,1.0,1.0,1.0
41.17,30.4944,1.0,1.0,1.0
41.18,16.5056,1.0,1.0,1.0
41.19,26.0,1.0,1.0,1.0
41.2,22.4944,1.0,1.0,1.0
41.21,14.5056,1.0,1.0,1.0
41.22,30.0,1.0,1.0,1.0
41.23,27.0,1.0,1.0,1.0
41.24,39.0,1.0,1.0,1.0
41.25,28.0,1.0,1.0,1.0
41.26,19.0,1.0,1.0,1.0
41.27,22.0,1.0,1.0,1.0
41.28,28.4944,1.0,1.0,1.0
41.29,36.0,1.0,1.0,1.0
41.3,29.0,1.0,1.0,1.0
41.31,36.5056,1.0,1.0,1.0
41.32,26.0,1.0,1.0,1.0
41.33,17.9889,1.0,1.0,1.0
41.34,39.0111,1.0,1.0,1.0
41.35,16.0,1.0,1.0,1.0
41.36,18.0,1.0,1.0,1.0
41.37,19.0,1.0,1.0,1.0
41.38,28.4944,1.0,1.0,1.0
41.39,30.5056,1.0,1.0,1.0
41.4,33.9889,1.0,1.0,1.0
41.41,33.0111,1.0,1.0,1.0
41.42,28.9889,1.0,1.0,1.0
41.43,25.0111,1.0,1.0,1.0
41.44,32.0,1.0,1.0,1.0
41.45,19.0,1.0,1.0,1.0
41.46,33.4944,1.0,1.0,1.0
41.47,43.4944,1.0,1.0,1.0
41.48,44.0111,1.0,1.0,1.0
41.49,30.0,1.0,1.0,1.0
41.5,37.0,1.0,1.0,1.0
41.51,28.0,1.0,1.0,1.0
41.52,30.0,1.0,1.0,1.0
41.53,98.0,1.0,1.0,1.0
41.54,33.0,1.0,1.0,1.0
41.55,27.9889,1.0,1.0,1.0
41.56,11.5056,1.0,1.0,1.0
41.57,27.0,1.0,1.0,1.0
41.58,35.5056,1.0,1.0,1.0
41.59,36.0,1.0,1.0,1.0
41.6,36.0,1.0,1.0,1.0
41.61,34.4944,1.0,1.0,1.0
41.62,47.5056,1.0,1.0,1.0
41.63,19.0,1.0,1.0,1.0
41.64,35.0,1.0,1.0,1.0
41.65,18.4944,1.0,1.0,1.0
41.66,28.0,1.0,1.0,1.0
41.67,25.5056,1.0,1.0,1.0
41.68,25.4944,1.0,1.0,1.0
41.69,35.5056,1.0,1.0,1.0
41.7,26.4944,1.0,1.0,1.0
41.71,35.4944,1.0,1.0,1.0
41.72,27.0111,1.0,1.0,1.0
41.73,32.0,1.0,1.0,1.0
41.74,33.0,1.0,1.0,1.0
41.75,20.0,1.0,1.0,1.0
41.76,19.0,1.0,1.0,1.0
41.77,19.0,1.0,1.0,1.0
41.78,23.4944,1.0,1.0,1.0
41.79,24.0,1.0,1.0,1.0
41.8,31.0,1.0,1.0,1.0
41.81,16.5056,1.0,1.0,1.0
41.82,48.9889,1.0,1.0,1.0
41.83,27.0111,1.0,1.0,1.0
41.84,42.9889,1.0,1.0,1.0
41.85,56.0,1.0,1.0,1.0
41.86,41.4944,1.0,1.0,1.0
41.87,56.0,1.0,1.0,1.0
41.88,41.5167,1.0,1.0,1.0
41.89,47.4944,1.0,1.0,1.0
41.9,40.4944,1.0,1.0,1.0
41.91,49.5056,1.0,1.0,1.0
41.92,38.0,1.0,1.0,1.0
41.93,27.0,1.0,1.0,1.0
41.94,35.5056,1.0,1.0,1.0
41.95,32.0,1.0,1.0,1.0
41.96,39.0,1.0,1.0,1.0
41.97,36.0,1.0,1.0,1.0
41.98,48.4944,1.0,1.0,1.0
41.99,20.0,1.0,1.0,1.0
42.0,38.0,1.0,1.0,1.0
42.01,27.4944,1.0,1.0,1.0
42.02,29.5056,1.0,1.0,1.0
42.03,44.0,1.0,1.0,1.0
42.04,38.5056,1.0,1.0,1.0
42.05,29.0,1.0,1.0,1.0
42.06,21.0,1.0,1.0,1.0
42.07,37.4944,1.0,1.0,1.0
42.08,10.0,1.0,1.0,1.0
42.09,20.0,1.0,1.0,1.0
42.1,29.5056,1.0,1.0,1.0
42.11,29.0,1.0,1.0,1.0
42.12,40.9889,1.0,1.0,1.0
42.13,27.0111,1.0,1.0,1.0
42.14,22.0,1.0,1.0,1.0
42.15,43.0,1.0,1.0,1.0
42.16,39.0,1.0,1.0,1.0
42.17,38.4944,1.0,1.0,1.0
42.18,42.5056,1.0,1.0,1.0
42.19,27.0,1.0,1.0,1.0
42.2,40.0,1.0,1.0,1.0
42.21,33.0,1.0,1.0,1.0
42.22,60.4944,1.0,1.0,1.0
42.23,47.9889,1.0,1.0,1.0
42.24,38.5056,1.0,1.0,1.0
42.25,54.5056,1.0,1.0,1.0
42.26,46.0,1.0,1.0,1.0
42.27,48.4944,1.0,1.0,1.0
42.28,40.5056,1.0,1.0,1.0
42.29,36.5056,1.0,1.0,1.0
42.3,49.0,1.0,1.0,1.0
42.31,37.9889,1.0,1.0,1.0
42.32,57.0111,1.0,1.0,1.0
42.33,55.4833,1.0,1.0,1.0
42.34,78.5167,1.0,1.0,1.0
42.35,48.0,1.0,1.0,1.0
42.36,70.0,1.0,1.0,1.0
42.37,51.0,1.0,1.0,1.0
42.38,38.4944,1.0,1.0,1.0
42.39,35.0,1.0,1.0,1.0
42.4,45.5056,1.0,1.0,1.0
42.41,37.0,1.0,1.0,1.0
42.42,40.4833,1.0,1.0,1.0
42.43,52.0111,1.0,1.0,1.0
42.44,39.9889,1.0,1.0,1.0
42.45,20.0111,1.0,1.0,1.0
42.46,22.4944,1.0,1.0,1.0
42.47,37.5056,1.0,1.0,1.0
42.48,27.0,1.0,1.0,1.0
42.49,30.0,1.0,1.0,1.0
42.5,35.5056,1.0,1.0,1.0
42.51,40.4833,1.0,1.0,1.0
42.52,51.5167,1.0,1.0,1.0
42.53,36.0,1.0,1.0,1.0
42.54,30.0,1.0,1.0,1.0
42.55,31.0,1.0,1.0,1.0
42.56,36.4944,1.0,1.0,1.0
42.57,46.0,1.0,1.0,1.0
42.58,67.0,1.0,1.0,1.0
42.59,46.5056,1.0,1.0,1.0
42.6,37.4944,1.0,1.0,1.0
42.61,47.0,1.0,1.0,1.0
42.62,54.0,1.0,1.0,1.0
42.63,37.4944,1.0,1.0,1.0
42.64,60.0111,1.0,1.0,1.0
42.65,57.0,1.0,1.0,1.0
42.66,48.4944,1.0,1.0,1.0
42.67,42.9889,1.0,1.0,1.0
42.68,50.4944,1.0,1.0,1.0
42.69,57.5167,1.0,1.0,1.0
42.7,41.4944,1.0,1.0,1.0
42.71,43.5056,1.0,1.0,1.0
42.72,36.5056,1.0,1.0,1.0
42.73,46.0,1.0,1.0,1.0
42.74,37.4944,1.0,1.0,1.0
42.75,25.0,1.0,1.0,1.0
42.76,40.0,1.0,1.0,1.0
42.77,31.0,1.0,1.0,1.0
42.78,27.9889,1.0,1.0,1.0
42.79,30.5167,1.0,1.0,1.0
42.8,28.9889,1.0,1.0,1.0
42.81,37.0,1.0,1.0,1.0
42.82,26.5056,1.0,1.0,1.0
42.83,25.5056,1.0,1.0,1.0
42.84,51.0,1.0,1.0,1.0
42.85,50.4944,1.0,1.0,1.0
42.86,46.5056,1.0,1.0,1.0
42.87,51.0,1.0,1.0,1.0
42.88,37.0,1.0,1.0,1.0
42.89,22.4944,1.0,1.0,1.0
42.9,48.5056,1.0,1.0,1.0
42.91,41.4944,1.0,1.0,1.0
42.92,37.5056,1.0,1.0,1.0
42.93,45.0,1.0,1.0,1.0
42.94,63.9889,1.0,1.0,1.0
42.95,46.0111,1.0,1.0,1.0
42.96,44.9889,1.0,1.0,1.0
42.97,38.0111,1.0,1.0,1.0
42.98,42.9889,1.0,1.0,1.0
42.99,47.5056,1.0,1.0,1.0
43.0,56.5056,1.0,1.0,1.0
43.01,44.4833,1.0,1.0,1.0
43.02,49.5056,1.0,1.0,1.0
43.03,43.5056,1.0,1.0,1.0
43.04,66.4944,1.0,1.0,1.0
43.05,45.5056,1.0,1.0,1.0
43.06,53.4944,1.0,1.0,1.0
43.07,47.5056,1.0,1.0,1.0
43.08,45.0,1.0,1.0,1.0
43.09,49.0,1.0,1.0,1.0
43.1,32.0,1.0,1.0,1.0
43.11,30.5056,1.0,1.0,1.0
43.12,52.0,1.0,1.0,1.0
43.13,35.4833,1.0,1.0,1.0
43.14,20.0111,1.0,1.0,1.0
43.15,25.5056,1.0,1.0,1.0
43.16,19.0,1.0,1.0,1.0
43.17,29.0,1.0,1.0,1.0
43.18,23.0,1.0,1.0,1.0
43.19,27.0,1.0,1.0,1.0
43.2,43.0,1.0,1.0,1.0
43.21,38.4944,1.0,1.0,1.0
43.22,49.0,1.0,1.0,1.0
43.23,24.5056,1.0,1.0,1.0
43.24,31.0,1.0,1.0,1.0
43.25,39.0,1.0,1.0,1.0
43.26,35.9889,1.0,1.0,1.0
43.27,45.0111,1.0,1.0,1.0
43.28,41.0,1.0,1.0,1.0
43.29,41.0,1.0,1.0,1.0
43.3,29.4944,1.0,1.0,1.0
43.31,50.5056,1.0,1.0,1.0
43.32,39.4944,1.0,1.0,1.0
43.33,80.0,1.0,1.0,1.0
43.34,43.5056,1.0,1.0,1.0
43.35,63.9889,1.0,1.0,1.0
43.36,57.5056,1.0,1.0,1.0
43.37,57.5056,1.0,1.0,1.0
43.38,51.9889,1.0,1.0,1.0
43.39,38.0111,1.0,1.0,1.0
43.4,62.9889,1.0,1.0,1.0
43.41,47.0,1.0,1.0,1.0
43.42,47.0,1.0,1.0,1.0
43.43,56.0111,1.0,1.0,1.0
43.44,52.0,1.0,1.0,1.0
43.45,44.9889,1.0,1.0,1.0
43.46,47.0111,1.0,1.0,1.0
43.47,42.4944,1.0,1.0,1.0
43.48,26.4944,1.0,1.0,1.0
43.49,33.0111,1.0,1.0,1.0
43.5,44.4944,1.0,1.0,1.0
43.51,50.0,1.0,1.0,1.0
43.52,31.5056,1.0,1.0,1.0
43.53,38.4944,1.0,1.0,1.0
43.54,23.0,1.0,1.0,1.0
43.55,31.5056,1.0,1.0,1.0
43.56,45.0,1.0,1.0,1.0
43.57,41.4944,1.0,1.0,1.0
43.58,31.4944,1.0,1.0,1.0
43.59,45.0111,1.0,1.0,1.0
43.6,53.0,1.0,1.0,1.0
43.61,35.0,1.0,1.0,1.0
43.62,64.9889,1.0,1.0,1.0
43.63,52.5056,1.0,1.0,1.0
43.64,42.4944,1.0,1.0,1.0
43.65,60.4944,1.0,1.0,1.0
43.66,67.0111,1.0,1.0,1.0
43.67,49.5056,1.0,1.0,1.0
43.68,50.9889,1.0,1.0,1.0
43.69,59.5056,1.0,1.0,1.0
43.7,75.4944,1.0,1.0,1.0
43.71,69.0111,1.0,1.0,1.0
43.72,69.0,1.0,1.0,1.0
43.73,79.4944,1.0,1.0,1.0
43.74,88.9889,1.0,1.0,1.0
43.75,109.0111,1.0,1.0,1.0
43.76,79.5056,1.0,1.0,1.0
43.77,68.0,1.0,1.0,1.0
43.78,58.4944,1.0,1.0,1.0
43.79,81.4944,1.0,1.0,1.0
43.8,86.0,1.0,1.0,1.0
43.81,49.5056,1.0,1.0,1.0
43.82,44.0,1.0,1.0,1.0
43.83,58.4944,1.0,1.0,1.0
43.84,54.0,1.0,1.0,1.0
43.85,50.4944,1.0,1.0,1.0
43.86,43.0111,1.0,1.0,1.0
43.87,67.4944,1.0,1.0,1.0
43.88,49.5056,1.0,1.0,1.0
43.89,54.5056,1.0,1.0,1.0
43.9,40.0,1.0,1.0,1.0
43.91,35.9889,1.0,1.0,1.0
43.92,55.5056,1.0,1.0,1.0
43.93,42.4944,1.0,1.0,1.0
43.94,53.0111,1.0,1.0,1.0
43.95,65.9889,1.0,1.0,1.0
43.96,66.5056,1.0,1.0,1.0
43.97,59.0,1.0,1.0,1.0
43.98,76.5056,1.0,1.0,1.0
43.99,90.4833,1.0,1.0,1.0
44.0,76.0111,1.0,1.0,1.0
44.01,91.4944,1.0,1.0,1.0
44.02,94.4944,1.0,1.0,1.0
44.03,81.9889,1.0,1.0,1.0
44.04,111.0111,1.0,1.0,1.0
44.05,90.5167,1.0,1.0,1.0
44.06,113.9889,1.0,1.0,1.0
44.07,119.5056,1.0,1.0,1.0
44.08,115.4944,1.0,1.0,1.0
44.09,122.4833,1.0,1.0,1.0
44.1,117.0222,1.0,1.0,1.0
44.11,101.5056,1.0,1.0,1.0
44.12,102.4722,1.0,1.0,1.0
44.13,134.0222,1.0,1.0,1.0
44.14,178.0,1.0,1.0,1.0
44.15,125.4833,1.0,1.0,1.0
44.16,124.0,1.0,1.0,1.0
44.17,104.0222,1.0,1.0,1.0
44.18,112.4944,1.0,1.0,1.0
44.19,92.0,1.0,1.0,1.0
44.2,112.4944,1.0,1.0,1.0
44.21,94.0,1.0,1.0,1.0
44.22,98.5056,1.0,1.0,1.0
44.23,78.4944,1.0,1.0,1.0
44.24,74.5056,1.0,1.0,1.0
44.25,78.0,1.0,1.0,1.0
44.26,89.4833,1.0,1.0,1.0
44.27,81.0111,1.0,1.0,1.0
44.28,67.0111,1.0,1.0,1.0
44.29,77.9889,1.0,1.0,1.0
44.3,78.0111,1.0,1.0,1.0
44.31,80.9889,1.0,1.0,1.0
44.32,84.5056,1.0,1.0,1.0
44.33,103.4944,1.0,1.0,1.0
44.34,106.5056,1.0,1.0,1.0
44.35,104.9889,1.0,1.0,1.0
44.36,135.0,1.0,1.0,1.0
44.37,119.9889,1.0,1.0,1.0
44.38,134.0111,1.0,1.0,1.0
44.39,151.9889,1.0,1.0,1.0
44.4,173.0111,1.0,1.0,1.0
44.41,170.0,1.0,1.0,1.0
44.42,182.4722,1.0,1.0,1.0
44.43,196.5278,1.0,1.0,1.0
44.44,215.9667,1.0,1.0,1.0
44.45,240.0111,1.0,1.0,1.0
44.46,239.5056,1.0,1.0,1.0
44.47,197.0222,1.0,1.0,1.0
44.48,210.9778,1.0,1.0,1.0
44.49,231.0222,1.0,1.0,1.0
44.5,243.4833,1.0,1.0,1.0
44.51,219.5056,1.0,1.0,1.0
44.52,220.4944,1.0,1.0,1.0
44.53,268.0111,1.0,1.0,1.0
44.54,215.9889,1.0,1.0,1.0
44.55,208.5056,1.0,1.0,1.0
44.56,220.4722,1.0,1.0,1.0
44.57,213.0444,1.0,1.0,1.0
44.58,199.9778,1.0,1.0,1.0
44.59,215.0111,1.0,1.0,1.0
44.6,169.4833,1.0,1.0,1.0
44.61,181.4833,1.0,1.0,1.0
44.62,179.5389,1.0,1.0,1.0
44.63,174.9889,1.0,1.0,1.0
44.64,157.5056,1.0,1.0,1.0
44.65,191.0,1.0,1.0,1.0
44.66,157.9889,1.0,1.0,1.0
44.67,197.0,1.0,1.0,1.0
44.68,176.5056,1.0,1.0,1.0
44.69,185.0,1.0,1.0,1.0
44.7,225.5056,1.0,1.0,1.0
44.71,210.9889,1.0,1.0,1.0
44.72,231.5167,1.0,1.0,1.0
44.73,208.4944,1.0,1.0,1.0
44.74,265.9778,1.0,1.0,1.0
44.75,257.4944,1.0,1.0,1.0
44.76,330.0111,1.0,1.0,1.0
44.77,298.9778,1.0,1.0,1.0
44.78,353.0222,1.0,1.0,1.0
44.79,323.5167,1.0,1.0,1.0
44.8,402.9889,1.0,1.0,1.0
44.81,358.4944,1.0,1.0,1.0
44.82,436.4833,1.0,1.0,1.0
44.83,456.5278,1.0,1.0,1.0
44.84,468.9778,1.0,1.0,1.0
44.85,452.0,1.0,1.0,1.0
44.86,467.5167,1.0,1.0,1.0
44.87,457.4278,1.0,1.0,1.0
44.88,480.55,1.0,1.0,1.0
44.89,484.0,1.0,1.0,1.0
44.9,461.4722,1.0,1.0,1.0
44.91,462.0555,1.0,1.0,1.0
44.92,446.4389,1.0,1.0,1.0
44.93,488.5278,1.0,1.0,1.0
44.94,461.5056,1.0,1.0,1.0
44.95,427.5167,1.0,1.0,1.0
44.96,414.0111,1.0,1.0,1.0
44.97,378.4722,1.0,1.0,1.0
44.98,402.0222,1.0,1.0,1.0
44.99,382.9778,1.0,1.0,1.0
45.0,382.4944,1.0,1.0,1.0
45.01,376.0333,1.0,1.0,1.0
45.02,369.9889,1.0,1.0,1.0
45.03,335.4944,1.0,1.0,1.0
45.04,380.9889,1.0,1.0,1.0
45.05,358.0111,1.0,1.0,1.0
45.06,367.9889,1.0,1.0,1.0
45.07,398.5056,1.0,1.0,1.0
45.08,428.0,1.0,1.0,1.0
45.09,440.0111,1.0,1.0,1.0
45.1,482.9889,1.0,1.0,1.0
45.11,492.9778,1.0,1.0,1.0
45.12,570.5056,1.0,1.0,1.0
45.13,552.0333,1.0,1.0,1.0
45.14,555.4611,1.0,1.0,1.0
45.15,685.4833,1.0,1.0,1.0
45.16,714.5278,1.0,1.0,1.0
45.17,738.9667,1.0,1.0,1.0
45.18,801.5167,1.0,1.0,1.0
45.19,848.4722,1.0,1.0,1.0
45.2,902.4833,1.0,1.0,1.0
45.21,857.8889,1.0,1.0,1.0
45.22,984.0667,1.0,1.0,1.0
45.23,1001.53,1.0,1.0,1.0
45.24,1023.06,1.0,1.0,1.0
45.25,1080.48,1.0,1.0,1.0
45.26,1010.01,1.0,1.0,1.0
45.27,1037.44,1.0,1.0,1.0
45.28,1051.06,1.0,1.0,1.0
45.29,1012.48,1.0,1.0,1.0
45.3,1010.49,1.0,1.0,1.0
45.31,1010.52,1.0,1.0,1.0
45.32,1012.49,1.0,1.0,1.0
45.33,976.9889,1.0,1.0,1.0
45.34,973.0222,1.0,1.0,1.0
45.35,910.0111,1.0,1.0,1.0
45.36,891.4611,1.0,1.0,1.0
45.37,857.5278,1.0,1.0,1.0
45.38,890.4611,1.0,1.0,1.0
45.39,874.0111,1.0,1.0,1.0
45.4,905.0111,1.0,1.0,1.0
45.41,829.5056,1.0,1.0,1.0
45.42,827.0222,1.0,1.0,1.0
45.43,875.5167,1.0,1.0,1.0
45.44,939.9556,1.0,1.0,1.0
45.45,872.0222,1.0,1.0,1.0
45.46,974.9222,1.0,1.0,1.0
45.47,991.5389,1.0,1.0,1.0
45.48,1075.54,1.0,1.0,1.0
45.49,1145.44,1.0,1.0,1.0
45.5,1237.49,1.0,1.0,1.0
45.51,1348.53,1.0,1.0,1.0
45.52,1398.92,1.0,1.0,1.0
45.53,1446.56,1.0,1.0,1.0
45.54,1602.93,1.0,1.0,1.0
45.55,1701.04,1.0,1.0,1.0
45.56,1829.99,1.0,1.0,1.0
45.57,1810.96,1.0,1.0,1.0
45.58,2009.52,1.0,1.0,1.0
45.59,2107.439,1.0,1.0,1.0
45.6,2215.0,1.0,1.0,1.0
45.61,2308.01,1.0,1.0,1.0
45.62,2372.94,1.0,1.0,1.0
45.63,2417.06,1.0,1.0,1.0
45.64,2371.49,1.0,1.0,1.0
45.65,2470.98,1.0,1.0,1.0
45.66,2559.99,1.0,1.0,1.0
45.67,2550.49,1.0,1.0,1.0
45.68,2490.04,1.0,1.0,1.0
45.69,2539.45,1.0,1.0,1.0
45.7,2478.48,1.0,1.0,1.0
45.71,2469.06,1.0,1.0,1.0
45.72,2361.561,1.0,1.0,1.0
45.73,2368.46,1.0,1.0,1.0
45.74,2315.53,1.0,1.0,1.0
45.75,2316.99,1.0,1.0,1.0
45.76,2220.51,1.0,1.0,1.0
45.77,2207.99,1.0,1.0,1.0
45.78,2248.0,1.0,1.0,1.0
45.79,2199.52,1.0,1.0,1.0
45.8,2236.03,1.0,1.0,1.0
45.81,2278.93,1.0,1.0,1.0
45.82,2296.42,1.0,1.0,1.0
45.83,2435.61,1.0,1.0,1.0
45.84,2420.439,1.0,1.0,1.0
45.85,2562.98,1.0,1.0,1.0
45.86,2803.52,1.0,1.0,1.0
45.87,2892.93,1.0,1.0,1.0
45.88,3055.06,1.0,1.0,1.0
45.89,3347.51,1.0,1.0,1.0
45.9,3591.8,1.0,1.0,1.0
45.91,3902.02,1.0,1.0,1.0
45.92,4146.439,1.0,1.0,1.0
45.93,4438.62,1.0,1.0,1.0
45.94,4691.89,1.0,1.0,1.0
45.95,5015.37,1.0,1.0,1.0
45.96,5428.02,1.0,1.0,1.0
45.97,5711.53,1.0,1.0,1.0
45.98,5928.89,1.0,1.0,1.0
45.99,6241.51,1.0,1.0,1.0
46.0,6581.42,1.0,1.0,1.0
46.01,6611.94,1.0,1.0,1.0
46.02,6949.11,1.0,1.0,1.0
46.03,7142.38,1.0,1.0,1.0
46.04,7405.03,1.0,1.0,1.0
46.05,7448.53,1.0,1.0,1.0
46.06,7755.46,1.0,1.0,1.0
46.07,7597.97,1.0,1.0,1.0
46.08,7741.47,1.0,1.0,1.0
46.09,7976.07,1.0,1.0,1.0
46.1,7719.52,1.0,1.0,1.0
46.11,7713.01,1.0,1.0,1.0
46.12,7695.9,1.0,1.0,1.0
46.13,7505.01,1.0,1.0,1.0
46.14,7396.58,1.0,1.0,1.0
46.15,7501.53,1.0,1.0,1.0
46.16,7586.94,1.0,1.0,1.0
46.17,7542.439,1.0,1.0,1.0
46.18,7468.55,1.0,1.0,1.0
46.19,7632.53,1.0,1.0,1.0
46.2,7617.96,1.0,1.0,1.0
46.21,7874.37,1.0,1.0,1.0
46.22,8188.52,1.0,1.0,1.0
46.23,8577.46,1.0,1.0,1.0
46.24,9285.87,1.0,1.0,1.0
46.25,9909.93,1.0,1.0,1.0
46.26,10466.417,1.0,1.0,1.0
46.27,11373.9,1.0,1.0,1.0
46.28,12646.417,1.0,1.0,1.0
46.29,13729.5,1.0,1.0,1.0
46.3,15019.8,1.0,1.0,1.0
46.31,16569.1,1.0,1.0,1.0
46.32,18099.5,1.0,1.0,1.0
46.33,19850.6,1.0,1.0,1.0
46.34,21715.3,1.0,1.0,1.0
46.35,23659.8,1.0,1.0,1.0
46.36,25999.3,1.0,1.0,1.0
46.37,28157.127,1.0,1.0,1.0
46.38,30058.6,1.0,1.0,1.0
46.39,32367.8,1.0,1.0,1.0
46.4,34524.8,1.0,1.0,1.0
46.41,36958.9,1.0,1.0,1.0
46.42,39093.6,1.0,1.0,1.0
46.43,41150.9,1.0,1.0,1.0
46.44,43612.1,1.0,1.0,1.0
46.45,46018.5,1.0,1.0,1.0
46.46,47598.9,1.0,1.0,1.0
46.47,49484.1,1.0,1.0,1.0
46.48,51394.9,1.0,1.0,1.0
46.49,52741.4,1.0,1.0,1.0
46.5,53989.043,1.0,1.0,1.0
46.51,54979.25,1.0,1.0,1.0
46.52,55525.5,1.0,1.0,1.0
46.53,56187.832,1.0,1.0,1.0
46.54,56802.9,1.0,1.0,1.0
46.55,56333.2,1.0,1.0,1.0
46.56,56020.7,1.0,1.0,1.0
46.57,55638.1,1.0,1.0,1.0
46.58,54756,1.0,1.0,1.0
46.59,53079.5,1.0,1.0,1.0
46.6,51443.6,1.0,1.0,1.0
46.61,50104.1,1.0,1.0,1.0
46.62,47628.2,1.0,1.0,1.0
46.63,45094.1,1.0,1.0,1.0
46.64,43407.2,1.0,1.0,1.0
46.65,40558.582,1.0,1.0,1.0
46.66,38092.3,1.0,1.0,1.0
46.67,35172.2,1.0,1.0,1.0
46.68,32295.1,1.0,1.0,1.0
46.69,29620.7,1.0,1.0,1.0
46.7,27107.8,1.0,1.0,1.0
46.71,24134.3,1.0,1.0,1.0
46.72,21865.4,1.0,1.0,1.0
46.73,20133,1.0,1.0,1.0
46.74,18141.5,1.0,1.0,1.0
46.75,17245.9,1.0,1.0,1.0
46.76,17101.8,1.0,1.0,1.0
46.77,17613.4,1.0,1.0,1.0
46.78,19218.7,1.0,1.0,1.0
46.79,23144.3,1.0,1.0,1.0
46.8,29739.4,1.0,1.0,1.0
46.81,38975.6,1.0,1.0,1.0
46.82,53871.6,1.0,1.0,1.0
46.83,74073.8,1.0,1.0,1.0
46.84,106155.125,1.0,1.0,1.0
46.85,155389,1.0,1.0,1.0
46.86,235699,1.0,1.0,1.0
46.87,384675,1.0,1.0,1.0
46.88,695571.5,1.0,1.0,1.0
46.89,1530536.25,1.0,1.0,1.0
46.9,11777205.0,1.0,1.0,1.0
46.91,110261576.0,1.0,1.0,1.0
46.92,100009752.0,1.0,1.0,1.0
46.93,41781644.0,1.0,1.0,1.0
46.94,4891018.0,1.0,1.0,1.0
46.95,945954.875,1.0,1.0,1.0
46.96,524644.0,1.0,1.0,1.0
46.97,354210,1.0,1.0,1.0
46.98,238261,1.0,1.0,1.0
46.99,157181,1.0,1.0,1.0
47.0,108009,1.0,1.0,1.0
47.01,79862.5,1.0,1.0,1.0
47.02,61140.9,1.0,1.0,1.0
47.03,47068,1.0,1.0,1.0
47.04,36312.9,1.0,1.0,1.0
47.05,29301,1.0,1.0,1.0
47.06,23910.873,1.0,1.0,1.0
47.07,20380.4,1.0,1.0,1.0
47.08,18064.2,1.0,1.0,1.0
47.09,16332.1,1.0,1.0,1.0
47.1,14924.5,1.0,1.0,1.0
47.11,14144.6,1.0,1.0,1.0
47.12,13265.4,1.0,1.0,1.0
47.13,12570.8,1.0,1.0,1.0
47.14,12015.6,1.0,1.0,1.0
47.15,11629.4,1.0,1.0,1.0
47.16,10998.2,1.0,1.0,1.0
47.17,10676.1,1.0,1.0,1.0
47.18,10089,1.0,1.0,1.0
47.19,9505.1,1.0,1.0,1.0
47.2,9031.09,1.0,1.0,1.0
47.21,8525.04,1.0,1.0,1.0
47.22,7938.89,1.0,1.0,1.0
47.23,7286.27,1.0,1.0,1.0
47.24,6995.42,1.0,1.0,1.0
47.25,6280.08,1.0,1.0,1.0
47.26,5807.14,1.0,1.0,1.0
47.27,5184.45,1.0,1.0,1.0
47.28,4601.09,1.0,1.0,1.0
47.29,4154.09,1.0,1.0,1.0
47.3,3686.61,1.0,1.0,1.0
47.31,3316.45,1.0,1.0,1.0
47.32,2791.561,1.0,1.0,1.0
47.33,2500.02,1.0,1.0,1.0
47.34,2014.57,1.0,1.0,1.0
47.35,1756.54,1.0,1.0,1.0
47.36,1431.51,1.0,1.0,1.0
47.37,1167.02,1.0,1.0,1.0
47.38,1016.06,1.0,1.0,1.0
47.39,872.0111,1.0,1.0,1.0
47.4,753.0222,1.0,1.0,1.0
47.41,644.0111,1.0,1.0,1.0
47.42,638.9667,1.0,1.0,1.0
47.43,585.0111,1.0,1.0,1.0
47.44,619.0,1.0,1.0,1.0
47.45,631.4833,1.0,1.0,1.0
47.46,632.4944,1.0,1.0,1.0
47.47,682.0111,1.0,1.0,1.0
47.48,738.9778,1.0,1.0,1.0
47.49,884.4944,1.0,1.0,1.0
47.5,933.5056,1.0,1.0,1.0
47.51,940.0,1.0,1.0,1.0
47.52,968.5278,1.0,1.0,1.0
47.53,1108.91,1.0,1.0,1.0
47.54,1109.55,1.0,1.0,1.0
47.55,1141.51,1.0,1.0,1.0
47.56,1200.47,1.0,1.0,1.0
47.57,1191.48,1.0,1.0,1.0
47.58,1142.03,1.0,1.0,1.0
47.59,1080.45,1.0,1.0,1.0
47.6,1126.56,1.0,1.0,1.0
47.61,1039.92,1.0,1.0,1.0
47.62,1042.07,1.0,1.0,1.0
47.63,975.9556,1.0,1.0,1.0
47.64,916.5833,1.0,1.0,1.0
47.65,871.0111,1.0,1.0,1.0
47.66,761.0,1.0,1.0,1.0
47.67,673.0222,1.0,1.0,1.0
47.68,637.9778,1.0,1.0,1.0
47.69,544.4722,1.0,1.0,1.0
47.7,495.5278,1.0,1.0,1.0
47.71,376.0222,1.0,1.0,1.0
47.72,343.0222,1.0,1.0,1.0
47.73,330.4611,1.0,1.0,1.0
47.74,256.5056,1.0,1.0,1.0
47.75,229.0444,1.0,1.0,1.0
47.76,201.4611,1.0,1.0,1.0
47.77,171.0444,1.0,1.0,1.0
47.78,150.0,1.0,1.0,1.0
47.79,118.9889,1.0,1.0,1.0
47.8,164.9889,1.0,1.0,1.0
47.81,172.5167,1.0,1.0,1.0
47.82,196.9778,1.0,1.0,1.0
47.83,237.0222,1.0,1.0,1.0
47.84,258.4722,1.0,1.0,1.0
47.85,269.0,1.0,1.0,1.0
47.86,283.0222,1.0,1.0,1.0
47.87,331.4722,1.0,1.0,1.0
47.88,356.0,1.0,1.0,1.0
47.89,373.0,1.0,1.0,1.0
47.9,380.5056,1.0,1.0,1.0
47.91,393.4833,1.0,1.0,1.0
47.92,436.9889,1.0,1.0,1.0
47.93,412.4944,1.0,1.0,1.0
47.94,442.0111,1.0,1.0,1.0
47.95,455.5167,1.0,1.0,1.0
47.96,460.0,1.0,1.0,1.0
47.97,451.0222,1.0,1.0,1.0
47.98,431.9889,1.0,1.0,1.0
47.99,407.4722,1.0,1.0,1.0
48.0,368.4722,1.0,1.0,1.0
48.01,369.55,1.0,1.0,1.0
48.02,358.5056,1.0,1.0,1.0
48.03,323.5056,1.0,1.0,1.0
48.04,299.5167,1.0,1.0,1.0
48.05,276.9778,1.0,1.0,1.0
48.06,230.0,1.0,1.0,1.0
48.07,211.0222,1.0,1.0,1.0
48.08,165.9889,1.0,1.0,1.0
48.09,173.5056,1.0,1.0,1.0
48.1,158.4944,1.0,1.0,1.0
48.11,133.0222,1.0,1.0,1.0
48.12,100.0,1.0,1.0,1.0
48.13,103.9889,1.0,1.0,1.0
48.14,100.4944,1.0,1.0,1.0
48.15,102.5056,1.0,1.0,1.0
48.16,105.0,1.0,1.0,1.0
48.17,95.0,1.0,1.0,1.0
48.18,109.0111,1.0,1.0,1.0
48.19,136.4833,1.0,1.0,1.0
48.2,115.0111,1.0,1.0,1.0
48.21,166.0,1.0,1.0,1.0
48.22,180.9889,1.0,1.0,1.0
48.23,225.0111,1.0,1.0,1.0
48.24,239.0,1.0,1.0,1.0
48.25,224.0,1.0,1.0,1.0
48.26,261.9556,1.0,1.0,1.0
48.27,270.5167,1.0,1.0,1.0
48.28,293.0,1.0,1.0,1.0
48.29,325.0,1.0,1.0,1.0
48.3,316.0111,1.0,1.0,1.0
48.31,307.9556,1.0,1.0,1.0
48.32,380.5167,1.0,1.0,1.0
48.33,351.5167,1.0,1.0,1.0
48.34,299.9778,1.0,1.0,1.0
48.35,323.5278,1.0,1.0,1.0
48.36,298.4833,1.0,1.0,1.0
48.37,323.4722,1.0,1.0,1.0
48.38,294.5278,1.0,1.0,1.0
48.39,304.5056,1.0,1.0,1.0
48.4,271.9778,1.0,1.0,1.0
48.41,249.0333,1.0,1.0,1.0
48.42,232.0111,1.0,1.0,1.0
48.43,223.4944,1.0,1.0,1.0
48.44,162.9889,1.0,1.0,1.0
48.45,156.0222,1.0,1.0,1.0
48.46,146.4944,1.0,1.0,1.0
48.47,165.0111,1.0,1.0,1.0
48.48,139.0,1.0,1.0,1.0
48.49,102.5056,1.0,1.0,1.0
48.5,108.4833,1.0,1.0,1.0
48.51,111.5056,1.0,1.0,1.0
48.52,96.5056,1.0,1.0,1.0
48.53,73.4833,1.0,1.0,1.0
48.54,99.5167,1.0,1.0,1.0
48.55,98.0,1.0,1.0,1.0
48.56,87.0,1.0,1.0,1.0
48.57,101.4833,1.0,1.0,1.0
48.58,87.0111,1.0,1.0,1.0
48.59,118.4944,1.0,1.0,1.0
48.6,135.4944,1.0,1.0,1.0
48.61,154.5056,1.0,1.0,1.0
48.62,159.4944,1.0,1.0,1.0
48.63,184.0111,1.0,1.0,1.0
48.64,182.4833,1.0,1.0,1.0
48.65,211.0,1.0,1.0,1.0
48.66,215.9889,1.0,1.0,1.0
48.67,228.5167,1.0,1.0,1.0
48.68,297.0,1.0,1.0,1.0
48.69,260.0,1.0,1.0,1.0
48.7,255.0111,1.0,1.0,1.0
48.71,256.9778,1.0,1.0,1.0
48.72,239.5167,1.0,1.0,1.0
48.73,270.9778,1.0,1.0,1.0
48.74,256.0333,1.0,1.0,1.0
48.75,263.9556,1.0,1.0,1.0
48.76,255.5278,1.0,1.0,1.0
48.77,232.5056,1.0,1.0,1.0
48.78,240.4944,1.0,1.0,1.0
48.79,236.4833,1.0,1.0,1.0
48.8,224.4944,1.0,1.0,1.0
48.81,181.5167,1.0,1.0,1.0
48.82,180.5167,1.0,1.0,1.0
48.83,185.5056,1.0,1.0,1.0
48.84,187.5056,1.0,1.0,1.0
48.85,142.0,1.0,1.0,1.0
48.86,113.9667,1.0,1.0,1.0
48.87,124.5056,1.0,1.0,1.0
48.88,114.5278,1.0,1.0,1.0
48.89,112.4833,1.0,1.0,1.0
48.9,106.0111,1.0,1.0,1.0
48.91,94.0,1.0,1.0,1.0
48.92,91.9889,1.0,1.0,1.0
48.93,72.0111,1.0,1.0,1.0
48.94,72.4944,1.0,1.0,1.0
48.95,75.5056,1.0,1.0,1.0
48.96,92.5056,1.0,1.0,1.0
48.97,95.9889,1.0,1.0,1.0
48.98,115.4944,1.0,1.0,1.0
48.99,106.9889,1.0,1.0,1.0
49.0,104.5278,1.0,1.0,1.0
49.01,113.4944,1.0,1.0,1.0
49.02,142.5056,1.0,1.0,1.0
49.03,120.4833,1.0,1.0,1.0
49.04,147.0,1.0,1.0,1.0
49.05,159.5056,1.0,1.0,1.0
49.06,175.4944,1.0,1.0,1.0
49.07,162.0,1.0,1.0,1.0
49.08,207.4722,1.0,1.0,1.0
49.09,198.5278,1.0,1.0,1.0
49.1,200.0111,1.0,1.0,1.0
49.11,179.9778,1.0,1.0,1.0
49.12,198.4833,1.0,1.0,1.0
49.13,224.5167,1.0,1.0,1.0
49.14,231.5167,1.0,1.0,1.0
49.15,198.9889,1.0,1.0,1.0
49.16,179.0,1.0,1.0,1.0
49.17,171.0,1.0,1.0,1.0
49.18,155.0,1.0,1.0,1.0
49.19,186.5056,1.0,1.0,1.0
49.2,182.4944,1.0,1.0,1.0
49.21,163.0,1.0,1.0,1.0
49.22,128.5056,1.0,1.0,1.0
49.23,133.0111,1.0,1.0,1.0
49.24,130.0,1.0,1.0,1.0
49.25,128.4833,1.0,1.0,1.0
49.26,104.5167,1.0,1.0,1.0
49.27,109.0,1.0,1.0,1.0
49.28,95.5056,1.0,1.0,1.0
49.29,88.4944,1.0,1.0,1.0
49.3,81.5056,1.0,1.0,1.0
49.31,84.9778,1.0,1.0,1.0
49.32,83.5056,1.0,1.0,1.0
49.33,75.5056,1.0,1.0,1.0
49.34,64.0111,1.0,1.0,1.0
49.35,61.4944,1.0,1.0,1.0
49.36,33.5056,1.0,1.0,1.0
49.37,74.9889,1.0,1.0,1.0
49.38,71.0111,1.0,1.0,1.0
49.39,90.9889,1.0,1.0,1.0
49.4,67.5056,1.0,1.0,1.0
49.41,73.5056,1.0,1.0,1.0
49.42,112.4833,1.0,1.0,1.0
49.43,83.0,1.0,1.0,1.0
49.44,104.0,1.0,1.0,1.0
49.45,104.9778,1.0,1.0,1.0
49.46,101.5278,1.0,1.0,1.0
49.47,102.9778,1.0,1.0,1.0
49.48,107.5278,1.0,1.0,1.0
49.49,101.5056,1.0,1.0,1.0
49.5,115.9778,1.0,1.0,1.0
49.51,126.5167,1.0,1.0,1.0
49.52,96.9889,1.0,1.0,1.0
49.53,133.0,1.0,1.0,1.0
49.54,130.9889,1.0,1.0,1.0
49.55,117.0222,1.0,1.0,1.0
49.56,116.9889,1.0,1.0,1.0
49.57,136.0111,1.0,1.0,1.0
49.58,110.4944,1.0,1.0,1.0
49.59,121.0,1.0,1.0,1.0
49.6,109.5056,1.0,1.0,1.0
49.61,100.0,1.0,1.0,1.0
49.62,98.0,1.0,1.0,1.0
49.63,70.5056,1.0,1.0,1.0
49.64,73.4944,1.0,1.0,1.0
49.65,73.9889,1.0,1.0,1.0
49.66,90.0111,1.0,1.0,1.0
49.67,73.0,1.0,1.0,1.0
49.68,39.4944,1.0,1.0,1.0
49.69,61.0,1.0,1.0,1.0
49.7,51.9889,1.0,1.0,1.0
49.71,47.5056,1.0,1.0,1.0
49.72,38.5167,1.0,1.0,1.0
49.73,41.0,1.0,1.0,1.0
49.74,39.0,1.0,1.0,1.0
49.75,42.0,1.0,1.0,1.0
49.76,33.0,1.0,1.0,1.0
49.77,39.4944,1.0,1.0,1.0
49.78,36.0,1.0,1.0,1.0
49.79,41.5056,1.0,1.0,1.0
49.8,29.4833,1.0,1.0,1.0
49.81,31.0111,1.0,1.0,1.0
49.82,50.5056,1.0,1.0,1.0
49.83,56.0,1.0,1.0,1.0
49.84,65.9778,1.0,1.0,1.0
49.85,68.5167,1.0,1.0,1.0
49.86,47.5056,1.0,1.0,1.0
49.87,57.9889,1.0,1.0,1.0
49.88,52.4944,1.0,1.0,1.0
49.89,72.0111,1.0,1.0,1.0
49.9,66.4944,1.0,1.0,1.0
49.91,66.4944,1.0,1.0,1.0
49.92,74.5167,1.0,1.0,1.0
49.93,61.9778,1.0,1.0,1.0
49.94,75.0111,1.0,1.0,1.0
49.95,71.9889,1.0,1.0,1.0
49.96,75.5167,1.0,1.0,1.0
49.97,72.4944,1.0,1.0,1.0
49.98,71.0111,1.0,1.0,1.0
49.99,78.4944,1.0,1.0,1.0
50.0,62.4944,1.0,1.0,1.0
50.01,52.5056,1.0,1.0,1.0
50.02,66.4944,1.0,1.0,1.0
50.03,53.0111,1.0,1.0,1.0
50.04,47.4944,1.0,1.0,1.0
50.05,45.9889,1.0,1.0,1.0
50.06,46.5167,1.0,1.0,1.0
50.07,44.0,1.0,1.0,1.0
50.08,37.0,1.0,1.0,1.0
50.09,33.4944,1.0,1.0,1.0
50.1,41.5056,1.0,1.0,1.0
50.11,28.0,1.0,1.0,1.0
50.12,17.4944,1.0,1.0,1.0
50.13,30.0,1.0,1.0,1.0
50.14,35.5056,1.0,1.0,1.0
50.15,22.9889,1.0,1.0,1.0
50.16,35.0111,1.0,1.0,1.0
50.17,35.0,1.0,1.0,1.0
50.18,20.0,1.0,1.0,1.0
50.19,22.0,1.0,1.0,1.0
50.2,24.0,1.0,1.0,1.0
50.21,33.0,1.0,1.0,1.0
50.22,17.0,1.0,1.0,1.0
50.23,19.4944,1.0,1.0,1.0
50.24,31.5056,1.0,1.0,1.0
50.25,40.0,1.0,1.0,1.0
50.26,24.4944,1.0,1.0,1.0
50.27,23.9889,1.0,1.0,1.0
50.28,39.5167,1.0,1.0,1.0
50.29,31.0,1.0,1.0,1.0
50.3,20.0,1.0,1.0,1.0
50.31,27.9889,1.0,1.0,1.0
50.32,46.5056,1.0,1.0,1.0
50.33,38.0,1.0,1.0,1.0
50.34,37.5056,1.0,1.0,1.0
50.35,38.4944,1.0,1.0,1.0
50.36,20.0,1.0,1.0,1.0
50.37,47.5056,1.0,1.0,1.0
50.38,34.9889,1.0,1.0,1.0
50.39,28.5056,1.0,1.0,1.0
50.4,47.4944,1.0,1.0,1.0
50.41,28.0111,1.0,1.0,1.0
50.42,30.0,1.0,1.0,1.0
50.43,40.0,1.0,1.0,1.0
50.44,32.9889,1.0,1.0,1.0
50.45,34.0,1.0,1.0,1.0
50.46,22.0111,1.0,1.0,1.0
50.47,38.0,1.0,1.0,1.0
50.48,16.0,1.0,1.0,1.0
50.49,26.4944,1.0,1.0,1.0
50.5,22.5056,1.0,1.0,1.0
50.51,25.0,1.0,1.0,1.0
50.52,13.9889,1.0,1.0,1.0
50.53,22.0111,1.0,1.0,1.0
50.54,13.0,1.0,1.0,1.0
50.55,8.0,1.0,1.0,1.0
50.56,14.4944,1.0,1.0,1.0
50.57,12.0,1.0,1.0,1.0
50.58,13.5056,1.0,1.0,1.0
50.59,15.0,1.0,1.0,1.0
50.6,20.0,1.0,1.0,1.0
50.61,27.4722,1.0,1.0,1.0
50.62,19.5278,1.0,1.0,1.0
50.63,19.0,1.0,1.0,1.0
50.64,17.0,1.0,1.0,1.0
50.65,20.0,1.0,1.0,1.0
50.66,18.0,1.0,1.0,1.0
50.67,22.0,1.0,1.0,1.0
50.68,9.0,1.0,1.0,1.0
50.69,23.4944,1.0,1.0,1.0
50.7,22.5056,1.0,1.0,1.0
50.71,23.0,1.0,1.0,1.0
50.72,12.4944,1.0,1.0,1.0
50.73,6.5056,1.0,1.0,1.0
50.74,12.0,1.0,1.0,1.0
50.75,9.0,1.0,1.0,1.0
50.76,14.0,1.0,1.0,1.0
50.77,17.0,1.0,1.0,1.0
50.78,12.0,1.0,1.0,1.0
50.79,28.0,1.0,1.0,1.0
50.8,14.0,1.0,1.0,1.0
50.81,15.0,1.0,1.0,1.0
50.82,7.0,1.0,1.0,1.0
50.83,14.0,1.0,1.0,1.0
50.84,16.0,1.0,1.0,1.0
50.85,20.4944,1.0,1.0,1.0
50.86,23.5056,1.0,1.0,1.0
50.87,9.0,1.0,1.0,1.0
50.88,19.0,1.0,1.0,1.0
50.89,45.9889,1.0,1.0,1.0
50.9,17.0111,1.0,1.0,1.0
50.91,7.4944,1.0,1.0,1.0
50.92,11.0,1.0,1.0,1.0
50.93,20.0,1.0,1.0,1.0
50.94,15.5056,1.0,1.0,1.0
50.95,20.0,1.0,1.0,1.0
50.96,18.4944,1.0,1.0,1.0
50.97,16.5056,1.0,1.0,1.0
50.98,16.0,1.0,1.0,1.0
50.99,15.4944,1.0,1.0,1.0
51.0,8.0,1.0,1.0,1.0
51.01,9.5056,1.0,1.0,1.0
51.02,24.0,1.0,1.0,1.0
51.03,11.0,1.0,1.0,1.0
51.04,12.4944,1.0,1.0,1.0
51.05,13.5056,1.0,1.0,1.0
51.06,11.0,1.0,1.0,1.0
51.07,8.0,1.0,1.0,1.0
51.08,9.0,1.0,1.0,1.0
51.09,18.0,1.0,1.0,1.0
51.1,20.0,1.0,1.0,1.0
51.11,12.0,1.0,1.0,1.0
51.12,25.0,1.0,1.0,1.0
51.13,3.0,1.0,1.0,1.0
51.14,11.0,1.0,1.0,1.0
51.15,8.0,1.0,1.0,1.0
51.16,13.4944,1.0,1.0,1.0
51.17,8.5056,1.0,1.0,1.0
51.18,7.0,1.0,1.0,1.0
51.19,10.0,1.0,1.0,1.0
51.2,14.0,1.0,1.0,1.0
51.21,11.4944,1.0,1.0,1.0
51.22,12.5056,1.0,1.0,1.0
51.23,6.0,1.0,1.0,1.0
51.24,14.0,1.0,1.0,1.0
51.25,19.4944,1.0,1.0,1.0
51.26,9.5056,1.0,1.0,1.0
51.27,14.0,1.0,1.0,1.0
51.28,10.0,1.0,1.0,1.0
51.29,8.4944,1.0,1.0,1.0
51.3,13.0,1.0,1.0,1.0
51.31,9.5056,1.0,1.0,1.0
51.32,6.4944,1.0,1.0,1.0
51.33,14.0,1.0,1.0,1.0
51.34,17.5056,1.0,1.0,1.0
51.35,14.0,1.0,1.0,1.0
51.36,17.0,1.0,1.0,1.0
51.37,16.4944,1.0,1.0,1.0
51.38,17.5056,1.0,1.0,1.0
51.39,18.0,1.0,1.0,1.0
51.4,14.0,1.0,1.0,1.0
51.41,26.0,1.0,1.0,1.0
51.42,12.0,1.0,1.0,1.0
51.43,13.0,1.0,1.0,1.0
51.44,20.4944,1.0,1.0,1.0
51.45,0.5056,1.0,1.0,1.0
51.46,27.0,1.0,1.0,1.0
51.47,16.0,1.0,1.0,1.0
51.48,20.9889,1.0,1.0,1.0
51.49,9.0111,1.0,1.0,1.0
51.5,9.4944,1.0,1.0,1.0
51.51,11.5056,1.0,1.0,1.0
51.52,2.0,1.0,1.0,1.0
51.53,12.0,1.0,1.0,1.0
51.54,21.0,1.0,1.0,1.0
51.55,11.0,1.0,1.0,1.0
51.56,11.0,1.0,1.0,1.0
51.57,4.0,1.0,1.0,1.0
51.58,17.0,1.0,1.0,1.0
51.59,5.0,1.0,1.0,1.0
51.6,21.0,1.0,1.0,1.0
51.61,7.0,1.0,1.0,1.0
51.62,14.0,1.0,1.0,1.0
51.63,15.0,1.0,1.0,1.0
51.64,8.0,1.0,1.0,1.0
51.65,5.4944,1.0,1.0,1.0
51.66,20.5056,1.0,1.0,1.0
51.67,14.4944,1.0,1.0,1.0
51.68,16.5056,1.0,1.0,1.0
51.69,4.0,1.0,1.0,1.0
51.7,17.0,1.0,1.0,1.0
51.71,11.0,1.0,1.0,1.0
51.72,9.4944,1.0,1.0,1.0
51.73,15.5056,1.0,1.0,1.0
51.74,10.0,1.0,1.0,1.0
51.75,14.0,1.0,1.0,1.0
51.76,17.0,1.0,1.0,1.0
51.77,9.0,1.0,1.0,1.0
51.78,12.4944,1.0,1.0,1.0
51.79,22.0,1.0,1.0,1.0
51.8,22.5056,1.0,1.0,1.0
51.81,11.0,1.0,1.0,1.0
51.82,7.0,1.0,1.0,1.0
51.83,24.0,1.0,1.0,1.0
51.84,16.0,1.0,1.0,1.0
51.85,18.4944,1.0,1.0,1.0
51.86,16.5056,1.0,1.0,1.0
51.87,27.0,1.0,1.0,1.0
51.88,17.0,1.0,1.0,1.0
51.89,9.0,1.0,1.0,1.0
51.9,15.0,1.0,1.0,1.0
51.91,18.0,1.0,1.0,1.0
51.92,12.0,1.0,1.0,1.0
51.93,14.0,1.0,1.0,1.0
51.94,13.0,1.0,1.0,1.0
51.95,18.0,1.0,1.0,1.0
51.96,29.0,1.0,1.0,1.0
51.97,10.0,1.0,1.0,1.0
51.98,28.0,1.0,1.0,1.0
51.99,9.4944,1.0,1.0,1.0
52.0,14.0,1.0,1.0,1.0