File: XRD:XRR/SCO/22166_SL(CO)L/22166_SL(CO)L_002_XRD.csv
#twotheta, yobs, ycal, bkg, diff
40.0,7.0,1.0,1.0,1.0
40.01,8.9889,1.0,1.0,1.0
40.02,10.0111,1.0,1.0,1.0
40.03,6.0,1.0,1.0,1.0
40.04,2.0,1.0,1.0,1.0
40.05,3.0,1.0,1.0,1.0
40.06,8.9889,1.0,1.0,1.0
40.07,5.5056,1.0,1.0,1.0
40.08,7.4944,1.0,1.0,1.0
40.09,14.0111,1.0,1.0,1.0
40.1,5.0,1.0,1.0,1.0
40.11,7.0,1.0,1.0,1.0
40.12,9.0,1.0,1.0,1.0
40.13,5.0,1.0,1.0,1.0
40.14,8.4944,1.0,1.0,1.0
40.15,9.4944,1.0,1.0,1.0
40.16,8.0111,1.0,1.0,1.0
40.17,6.0,1.0,1.0,1.0
40.18,7.0,1.0,1.0,1.0
40.19,2.0,1.0,1.0,1.0
40.2,5.0,1.0,1.0,1.0
40.21,7.0,1.0,1.0,1.0
40.22,9.0,1.0,1.0,1.0
40.23,10.0,1.0,1.0,1.0
40.24,4.0,1.0,1.0,1.0
40.25,11.0,1.0,1.0,1.0
40.26,15.4944,1.0,1.0,1.0
40.27,12.5056,1.0,1.0,1.0
40.28,5.0,1.0,1.0,1.0
40.29,2.0,1.0,1.0,1.0
40.3,8.0,1.0,1.0,1.0
40.31,3.0,1.0,1.0,1.0
40.32,2.0,1.0,1.0,1.0
40.33,10.0,1.0,1.0,1.0
40.34,9.0,1.0,1.0,1.0
40.35,2.0,1.0,1.0,1.0
40.36,2.0,1.0,1.0,1.0
40.37,15.4944,1.0,1.0,1.0
40.38,0.5056,1.0,1.0,1.0
40.39,10.4944,1.0,1.0,1.0
40.4,8.5056,1.0,1.0,1.0
40.41,3.0,1.0,1.0,1.0
40.42,0.0,1.0,1.0,1.0
40.43,3.0,1.0,1.0,1.0
40.44,3.0,1.0,1.0,1.0
40.45,18.0,1.0,1.0,1.0
40.46,10.0,1.0,1.0,1.0
40.47,13.4944,1.0,1.0,1.0
40.48,6.5056,1.0,1.0,1.0
40.49,3.0,1.0,1.0,1.0
40.5,9.0,1.0,1.0,1.0
40.51,4.0,1.0,1.0,1.0
40.52,5.0,1.0,1.0,1.0
40.53,5.0,1.0,1.0,1.0
40.54,8.0,1.0,1.0,1.0
40.55,3.0,1.0,1.0,1.0
40.56,0.0,1.0,1.0,1.0
40.57,2.0,1.0,1.0,1.0
40.58,3.0,1.0,1.0,1.0
40.59,3.0,1.0,1.0,1.0
40.6,9.0,1.0,1.0,1.0
40.61,2.0,1.0,1.0,1.0
40.62,3.0,1.0,1.0,1.0
40.63,2.0,1.0,1.0,1.0
40.64,0.4944,1.0,1.0,1.0
40.65,13.0,1.0,1.0,1.0
40.66,4.5056,1.0,1.0,1.0
40.67,2.0,1.0,1.0,1.0
40.68,3.0,1.0,1.0,1.0
40.69,0.0,1.0,1.0,1.0
40.7,9.0,1.0,1.0,1.0
40.71,7.4944,1.0,1.0,1.0
40.72,2.5056,1.0,1.0,1.0
40.73,3.0,1.0,1.0,1.0
40.74,6.0,1.0,1.0,1.0
40.75,4.0,1.0,1.0,1.0
40.76,2.0,1.0,1.0,1.0
40.77,6.0,1.0,1.0,1.0
40.78,13.0,1.0,1.0,1.0
40.79,12.0,1.0,1.0,1.0
40.8,11.0,1.0,1.0,1.0
40.81,7.0,1.0,1.0,1.0
40.82,5.0,1.0,1.0,1.0
40.83,0.0,1.0,1.0,1.0
40.84,7.0,1.0,1.0,1.0
40.85,6.0,1.0,1.0,1.0
40.86,2.0,1.0,1.0,1.0
40.87,5.0,1.0,1.0,1.0
40.88,7.0,1.0,1.0,1.0
40.89,0.0,1.0,1.0,1.0
40.9,7.0,1.0,1.0,1.0
40.91,7.0,1.0,1.0,1.0
40.92,12.0,1.0,1.0,1.0
40.93,12.0,1.0,1.0,1.0
40.94,11.0,1.0,1.0,1.0
40.95,11.0,1.0,1.0,1.0
40.96,4.0,1.0,1.0,1.0
40.97,6.0,1.0,1.0,1.0
40.98,6.0,1.0,1.0,1.0
40.99,4.0,1.0,1.0,1.0
41.0,14.0,1.0,1.0,1.0
41.01,14.0,1.0,1.0,1.0
41.02,5.0,1.0,1.0,1.0
41.03,6.0,1.0,1.0,1.0
41.04,7.0,1.0,1.0,1.0
41.05,0.0,1.0,1.0,1.0
41.06,2.0,1.0,1.0,1.0
41.07,0.0,1.0,1.0,1.0
41.08,11.0,1.0,1.0,1.0
41.09,10.0,1.0,1.0,1.0
41.1,5.0,1.0,1.0,1.0
41.11,16.0,1.0,1.0,1.0
41.12,2.0,1.0,1.0,1.0
41.13,11.0,1.0,1.0,1.0
41.14,9.0,1.0,1.0,1.0
41.15,5.0,1.0,1.0,1.0
41.16,5.0,1.0,1.0,1.0
41.17,5.0,1.0,1.0,1.0
41.18,10.0,1.0,1.0,1.0
41.19,13.0,1.0,1.0,1.0
41.2,7.0,1.0,1.0,1.0
41.21,4.0,1.0,1.0,1.0
41.22,4.4944,1.0,1.0,1.0
41.23,7.5056,1.0,1.0,1.0
41.24,3.0,1.0,1.0,1.0
41.25,3.0,1.0,1.0,1.0
41.26,4.0,1.0,1.0,1.0
41.27,8.0,1.0,1.0,1.0
41.28,17.0,1.0,1.0,1.0
41.29,10.0,1.0,1.0,1.0
41.3,8.4944,1.0,1.0,1.0
41.31,11.5056,1.0,1.0,1.0
41.32,7.4944,1.0,1.0,1.0
41.33,12.5056,1.0,1.0,1.0
41.34,13.0,1.0,1.0,1.0
41.35,2.0,1.0,1.0,1.0
41.36,3.4944,1.0,1.0,1.0
41.37,10.5056,1.0,1.0,1.0
41.38,1.0,1.0,1.0,1.0
41.39,14.0,1.0,1.0,1.0
41.4,11.0,1.0,1.0,1.0
41.41,3.0,1.0,1.0,1.0
41.42,7.0,1.0,1.0,1.0
41.43,14.9889,1.0,1.0,1.0
41.44,10.0111,1.0,1.0,1.0
41.45,7.4944,1.0,1.0,1.0
41.46,6.5056,1.0,1.0,1.0
41.47,8.0,1.0,1.0,1.0
41.48,4.0,1.0,1.0,1.0
41.49,6.0,1.0,1.0,1.0
41.5,16.0,1.0,1.0,1.0
41.51,7.0,1.0,1.0,1.0
41.52,3.9889,1.0,1.0,1.0
41.53,6.0111,1.0,1.0,1.0
41.54,13.4944,1.0,1.0,1.0
41.55,12.5056,1.0,1.0,1.0
41.56,2.0,1.0,1.0,1.0
41.57,8.0,1.0,1.0,1.0
41.58,11.0,1.0,1.0,1.0
41.59,5.0,1.0,1.0,1.0
41.6,4.0,1.0,1.0,1.0
41.61,10.9889,1.0,1.0,1.0
41.62,13.0111,1.0,1.0,1.0
41.63,10.0,1.0,1.0,1.0
41.64,4.0,1.0,1.0,1.0
41.65,10.0,1.0,1.0,1.0
41.66,10.0,1.0,1.0,1.0
41.67,3.0,1.0,1.0,1.0
41.68,3.0,1.0,1.0,1.0
41.69,4.0,1.0,1.0,1.0
41.7,13.0,1.0,1.0,1.0
41.71,17.0,1.0,1.0,1.0
41.72,8.0,1.0,1.0,1.0
41.73,0.0,1.0,1.0,1.0
41.74,5.0,1.0,1.0,1.0
41.75,12.0,1.0,1.0,1.0
41.76,14.0,1.0,1.0,1.0
41.77,2.0,1.0,1.0,1.0
41.78,7.0,1.0,1.0,1.0
41.79,12.0,1.0,1.0,1.0
41.8,10.0,1.0,1.0,1.0
41.81,6.0,1.0,1.0,1.0
41.82,13.0,1.0,1.0,1.0
41.83,12.0,1.0,1.0,1.0
41.84,10.0,1.0,1.0,1.0
41.85,11.0,1.0,1.0,1.0
41.86,12.0,1.0,1.0,1.0
41.87,4.0,1.0,1.0,1.0
41.88,8.0,1.0,1.0,1.0
41.89,7.0,1.0,1.0,1.0
41.9,5.0,1.0,1.0,1.0
41.91,12.0,1.0,1.0,1.0
41.92,7.9889,1.0,1.0,1.0
41.93,10.5056,1.0,1.0,1.0
41.94,17.0,1.0,1.0,1.0
41.95,14.5056,1.0,1.0,1.0
41.96,8.0,1.0,1.0,1.0
41.97,10.4944,1.0,1.0,1.0
41.98,16.5056,1.0,1.0,1.0
41.99,16.0,1.0,1.0,1.0
42.0,13.0,1.0,1.0,1.0
42.01,4.0,1.0,1.0,1.0
42.02,5.0,1.0,1.0,1.0
42.03,8.0,1.0,1.0,1.0
42.04,7.0,1.0,1.0,1.0
42.05,13.0,1.0,1.0,1.0
42.06,7.0,1.0,1.0,1.0
42.07,7.0,1.0,1.0,1.0
42.08,4.4944,1.0,1.0,1.0
42.09,12.5056,1.0,1.0,1.0
42.1,9.0,1.0,1.0,1.0
42.11,14.0,1.0,1.0,1.0
42.12,9.0,1.0,1.0,1.0
42.13,13.0,1.0,1.0,1.0
42.14,7.0,1.0,1.0,1.0
42.15,6.0,1.0,1.0,1.0
42.16,13.0,1.0,1.0,1.0
42.17,16.0,1.0,1.0,1.0
42.18,6.0,1.0,1.0,1.0
42.19,9.0,1.0,1.0,1.0
42.2,9.0,1.0,1.0,1.0
42.21,12.4944,1.0,1.0,1.0
42.22,4.5056,1.0,1.0,1.0
42.23,9.0,1.0,1.0,1.0
42.24,9.0,1.0,1.0,1.0
42.25,4.0,1.0,1.0,1.0
42.26,7.0,1.0,1.0,1.0
42.27,12.0,1.0,1.0,1.0
42.28,4.0,1.0,1.0,1.0
42.29,9.0,1.0,1.0,1.0
42.3,4.0,1.0,1.0,1.0
42.31,7.0,1.0,1.0,1.0
42.32,2.0,1.0,1.0,1.0
42.33,13.0,1.0,1.0,1.0
42.34,7.4944,1.0,1.0,1.0
42.35,6.5056,1.0,1.0,1.0
42.36,29.0,1.0,1.0,1.0
42.37,7.0,1.0,1.0,1.0
42.38,5.9889,1.0,1.0,1.0
42.39,17.0111,1.0,1.0,1.0
42.4,9.0,1.0,1.0,1.0
42.41,6.0,1.0,1.0,1.0
42.42,12.0,1.0,1.0,1.0
42.43,9.0,1.0,1.0,1.0
42.44,16.0,1.0,1.0,1.0
42.45,3.0,1.0,1.0,1.0
42.46,2.0,1.0,1.0,1.0
42.47,11.0,1.0,1.0,1.0
42.48,2.4944,1.0,1.0,1.0
42.49,5.5056,1.0,1.0,1.0
42.5,1.4944,1.0,1.0,1.0
42.51,5.0,1.0,1.0,1.0
42.52,9.5056,1.0,1.0,1.0
42.53,5.0,1.0,1.0,1.0
42.54,9.4944,1.0,1.0,1.0
42.55,13.5056,1.0,1.0,1.0
42.56,7.0,1.0,1.0,1.0
42.57,7.0,1.0,1.0,1.0
42.58,10.0,1.0,1.0,1.0
42.59,11.0,1.0,1.0,1.0
42.6,5.0,1.0,1.0,1.0
42.61,11.0,1.0,1.0,1.0
42.62,5.0,1.0,1.0,1.0
42.63,4.0,1.0,1.0,1.0
42.64,15.0,1.0,1.0,1.0
42.65,4.0,1.0,1.0,1.0
42.66,3.0,1.0,1.0,1.0
42.67,9.0,1.0,1.0,1.0
42.68,2.0,1.0,1.0,1.0
42.69,8.0,1.0,1.0,1.0
42.7,9.0,1.0,1.0,1.0
42.71,12.0,1.0,1.0,1.0
42.72,4.0,1.0,1.0,1.0
42.73,10.0,1.0,1.0,1.0
42.74,11.0,1.0,1.0,1.0
42.75,3.0,1.0,1.0,1.0
42.76,16.0,1.0,1.0,1.0
42.77,14.0,1.0,1.0,1.0
42.78,4.0,1.0,1.0,1.0
42.79,5.4944,1.0,1.0,1.0
42.8,6.5056,1.0,1.0,1.0
42.81,9.0,1.0,1.0,1.0
42.82,8.0,1.0,1.0,1.0
42.83,4.0,1.0,1.0,1.0
42.84,11.0,1.0,1.0,1.0
42.85,15.0,1.0,1.0,1.0
42.86,5.0,1.0,1.0,1.0
42.87,13.0,1.0,1.0,1.0
42.88,8.0,1.0,1.0,1.0
42.89,10.4944,1.0,1.0,1.0
42.9,4.5056,1.0,1.0,1.0
42.91,9.0,1.0,1.0,1.0
42.92,9.0,1.0,1.0,1.0
42.93,4.0,1.0,1.0,1.0
42.94,2.0,1.0,1.0,1.0
42.95,6.4944,1.0,1.0,1.0
42.96,10.5056,1.0,1.0,1.0
42.97,10.0,1.0,1.0,1.0
42.98,8.4944,1.0,1.0,1.0
42.99,6.0,1.0,1.0,1.0
43.0,10.5056,1.0,1.0,1.0
43.01,12.0,1.0,1.0,1.0
43.02,8.0,1.0,1.0,1.0
43.03,3.0,1.0,1.0,1.0
43.04,7.0,1.0,1.0,1.0
43.05,8.0,1.0,1.0,1.0
43.06,9.0,1.0,1.0,1.0
43.07,6.0,1.0,1.0,1.0
43.08,6.9889,1.0,1.0,1.0
43.09,8.0111,1.0,1.0,1.0
43.1,0.0,1.0,1.0,1.0
43.11,9.0,1.0,1.0,1.0
43.12,7.0,1.0,1.0,1.0
43.13,8.9889,1.0,1.0,1.0
43.14,6.0111,1.0,1.0,1.0
43.15,5.0,1.0,1.0,1.0
43.16,8.4944,1.0,1.0,1.0
43.17,10.5056,1.0,1.0,1.0
43.18,20.0,1.0,1.0,1.0
43.19,8.4944,1.0,1.0,1.0
43.2,9.5056,1.0,1.0,1.0
43.21,9.0,1.0,1.0,1.0
43.22,12.0,1.0,1.0,1.0
43.23,14.0,1.0,1.0,1.0
43.24,8.0,1.0,1.0,1.0
43.25,9.0,1.0,1.0,1.0
43.26,9.0,1.0,1.0,1.0
43.27,12.0,1.0,1.0,1.0
43.28,2.9889,1.0,1.0,1.0
43.29,7.0111,1.0,1.0,1.0
43.3,4.0,1.0,1.0,1.0
43.31,28.9889,1.0,1.0,1.0
43.32,8.0111,1.0,1.0,1.0
43.33,6.0,1.0,1.0,1.0
43.34,8.0,1.0,1.0,1.0
43.35,10.0,1.0,1.0,1.0
43.36,3.0,1.0,1.0,1.0
43.37,12.0,1.0,1.0,1.0
43.38,10.0,1.0,1.0,1.0
43.39,17.4944,1.0,1.0,1.0
43.4,7.5056,1.0,1.0,1.0
43.41,2.0,1.0,1.0,1.0
43.42,5.0,1.0,1.0,1.0
43.43,20.4944,1.0,1.0,1.0
43.44,3.5056,1.0,1.0,1.0
43.45,15.0,1.0,1.0,1.0
43.46,16.0,1.0,1.0,1.0
43.47,10.0,1.0,1.0,1.0
43.48,7.0,1.0,1.0,1.0
43.49,13.0,1.0,1.0,1.0
43.5,15.0,1.0,1.0,1.0
43.51,2.0,1.0,1.0,1.0
43.52,11.0,1.0,1.0,1.0
43.53,5.0,1.0,1.0,1.0
43.54,16.0,1.0,1.0,1.0
43.55,14.0,1.0,1.0,1.0
43.56,13.0,1.0,1.0,1.0
43.57,6.0,1.0,1.0,1.0
43.58,17.0,1.0,1.0,1.0
43.59,6.0,1.0,1.0,1.0
43.6,14.0,1.0,1.0,1.0
43.61,8.0,1.0,1.0,1.0
43.62,21.0,1.0,1.0,1.0
43.63,12.0,1.0,1.0,1.0
43.64,5.0,1.0,1.0,1.0
43.65,6.0,1.0,1.0,1.0
43.66,10.0,1.0,1.0,1.0
43.67,14.0,1.0,1.0,1.0
43.68,20.0,1.0,1.0,1.0
43.69,4.0,1.0,1.0,1.0
43.7,6.0,1.0,1.0,1.0
43.71,21.4944,1.0,1.0,1.0
43.72,13.0,1.0,1.0,1.0
43.73,7.5056,1.0,1.0,1.0
43.74,13.0,1.0,1.0,1.0
43.75,10.0,1.0,1.0,1.0
43.76,9.0,1.0,1.0,1.0
43.77,11.4944,1.0,1.0,1.0
43.78,10.5056,1.0,1.0,1.0
43.79,13.0,1.0,1.0,1.0
43.8,10.0,1.0,1.0,1.0
43.81,13.0,1.0,1.0,1.0
43.82,13.4944,1.0,1.0,1.0
43.83,14.5056,1.0,1.0,1.0
43.84,42.0,1.0,1.0,1.0
43.85,15.0,1.0,1.0,1.0
43.86,14.0,1.0,1.0,1.0
43.87,7.0,1.0,1.0,1.0
43.88,30.0,1.0,1.0,1.0
43.89,7.0,1.0,1.0,1.0
43.9,10.0,1.0,1.0,1.0
43.91,24.9889,1.0,1.0,1.0
43.92,25.5056,1.0,1.0,1.0
43.93,31.5056,1.0,1.0,1.0
43.94,16.4944,1.0,1.0,1.0
43.95,25.5056,1.0,1.0,1.0
43.96,33.0,1.0,1.0,1.0
43.97,15.0,1.0,1.0,1.0
43.98,21.0,1.0,1.0,1.0
43.99,21.0,1.0,1.0,1.0
44.0,16.0,1.0,1.0,1.0
44.01,38.0,1.0,1.0,1.0
44.02,28.4944,1.0,1.0,1.0
44.03,37.0,1.0,1.0,1.0
44.04,31.5056,1.0,1.0,1.0
44.05,24.0,1.0,1.0,1.0
44.06,22.0,1.0,1.0,1.0
44.07,17.0,1.0,1.0,1.0
44.08,26.4944,1.0,1.0,1.0
44.09,14.5056,1.0,1.0,1.0
44.1,25.0,1.0,1.0,1.0
44.11,26.0,1.0,1.0,1.0
44.12,23.0,1.0,1.0,1.0
44.13,18.0,1.0,1.0,1.0
44.14,30.0,1.0,1.0,1.0
44.15,27.9889,1.0,1.0,1.0
44.16,22.0111,1.0,1.0,1.0
44.17,17.0,1.0,1.0,1.0
44.18,23.0,1.0,1.0,1.0
44.19,29.0,1.0,1.0,1.0
44.2,24.0,1.0,1.0,1.0
44.21,29.0,1.0,1.0,1.0
44.22,22.0,1.0,1.0,1.0
44.23,18.0,1.0,1.0,1.0
44.24,26.0,1.0,1.0,1.0
44.25,26.0,1.0,1.0,1.0
44.26,24.0,1.0,1.0,1.0
44.27,15.0,1.0,1.0,1.0
44.28,27.0,1.0,1.0,1.0
44.29,20.9889,1.0,1.0,1.0
44.3,36.0111,1.0,1.0,1.0
44.31,39.0,1.0,1.0,1.0
44.32,33.0,1.0,1.0,1.0
44.33,40.9889,1.0,1.0,1.0
44.34,27.5056,1.0,1.0,1.0
44.35,31.5056,1.0,1.0,1.0
44.36,36.4944,1.0,1.0,1.0
44.37,33.5056,1.0,1.0,1.0
44.38,24.0,1.0,1.0,1.0
44.39,39.4722,1.0,1.0,1.0
44.4,34.5278,1.0,1.0,1.0
44.41,24.9889,1.0,1.0,1.0
44.42,27.0,1.0,1.0,1.0
44.43,35.5056,1.0,1.0,1.0
44.44,18.0,1.0,1.0,1.0
44.45,31.5056,1.0,1.0,1.0
44.46,46.0,1.0,1.0,1.0
44.47,30.0,1.0,1.0,1.0
44.48,33.4944,1.0,1.0,1.0
44.49,40.5056,1.0,1.0,1.0
44.5,23.0,1.0,1.0,1.0
44.51,42.4833,1.0,1.0,1.0
44.52,64.5167,1.0,1.0,1.0
44.53,28.4944,1.0,1.0,1.0
44.54,37.4944,1.0,1.0,1.0
44.55,46.0111,1.0,1.0,1.0
44.56,28.0,1.0,1.0,1.0
44.57,33.4944,1.0,1.0,1.0
44.58,31.0,1.0,1.0,1.0
44.59,60.5056,1.0,1.0,1.0
44.6,41.0,1.0,1.0,1.0
44.61,50.0,1.0,1.0,1.0
44.62,56.4944,1.0,1.0,1.0
44.63,49.0,1.0,1.0,1.0
44.64,62.0,1.0,1.0,1.0
44.65,39.4944,1.0,1.0,1.0
44.66,45.0111,1.0,1.0,1.0
44.67,43.0,1.0,1.0,1.0
44.68,35.4944,1.0,1.0,1.0
44.69,49.5056,1.0,1.0,1.0
44.7,63.0,1.0,1.0,1.0
44.71,40.4944,1.0,1.0,1.0
44.72,61.4944,1.0,1.0,1.0
44.73,44.5056,1.0,1.0,1.0
44.74,62.9889,1.0,1.0,1.0
44.75,39.5167,1.0,1.0,1.0
44.76,29.0,1.0,1.0,1.0
44.77,36.4944,1.0,1.0,1.0
44.78,54.4944,1.0,1.0,1.0
44.79,56.5056,1.0,1.0,1.0
44.8,57.4944,1.0,1.0,1.0
44.81,54.5056,1.0,1.0,1.0
44.82,56.5056,1.0,1.0,1.0
44.83,62.4944,1.0,1.0,1.0
44.84,56.5056,1.0,1.0,1.0
44.85,75.9889,1.0,1.0,1.0
44.86,55.5056,1.0,1.0,1.0
44.87,57.5056,1.0,1.0,1.0
44.88,55.4944,1.0,1.0,1.0
44.89,70.4944,1.0,1.0,1.0
44.9,58.4944,1.0,1.0,1.0
44.91,49.5167,1.0,1.0,1.0
44.92,87.4833,1.0,1.0,1.0
44.93,84.5167,1.0,1.0,1.0
44.94,95.4944,1.0,1.0,1.0
44.95,85.0,1.0,1.0,1.0
44.96,77.9889,1.0,1.0,1.0
44.97,102.5056,1.0,1.0,1.0
44.98,90.0111,1.0,1.0,1.0
44.99,87.4833,1.0,1.0,1.0
45.0,83.5167,1.0,1.0,1.0
45.01,113.4833,1.0,1.0,1.0
45.02,86.0111,1.0,1.0,1.0
45.03,87.9889,1.0,1.0,1.0
45.04,108.5056,1.0,1.0,1.0
45.05,103.0,1.0,1.0,1.0
45.06,114.4944,1.0,1.0,1.0
45.07,108.0,1.0,1.0,1.0
45.08,102.4833,1.0,1.0,1.0
45.09,128.0222,1.0,1.0,1.0
45.1,100.0111,1.0,1.0,1.0
45.11,104.4944,1.0,1.0,1.0
45.12,111.4944,1.0,1.0,1.0
45.13,81.9889,1.0,1.0,1.0
45.14,104.0111,1.0,1.0,1.0
45.15,128.5056,1.0,1.0,1.0
45.16,117.9889,1.0,1.0,1.0
45.17,114.0,1.0,1.0,1.0
45.18,129.5167,1.0,1.0,1.0
45.19,109.4944,1.0,1.0,1.0
45.2,120.0,1.0,1.0,1.0
45.21,134.9889,1.0,1.0,1.0
45.22,157.9889,1.0,1.0,1.0
45.23,148.5167,1.0,1.0,1.0
45.24,122.0111,1.0,1.0,1.0
45.25,120.9778,1.0,1.0,1.0
45.26,145.0111,1.0,1.0,1.0
45.27,151.0111,1.0,1.0,1.0
45.28,109.4722,1.0,1.0,1.0
45.29,117.0,1.0,1.0,1.0
45.3,121.0111,1.0,1.0,1.0
45.31,162.5056,1.0,1.0,1.0
45.32,163.4722,1.0,1.0,1.0
45.33,147.0222,1.0,1.0,1.0
45.34,145.0,1.0,1.0,1.0
45.35,136.0111,1.0,1.0,1.0
45.36,172.4833,1.0,1.0,1.0
45.37,167.0111,1.0,1.0,1.0
45.38,160.9889,1.0,1.0,1.0
45.39,165.5056,1.0,1.0,1.0
45.4,166.0,1.0,1.0,1.0
45.41,159.9889,1.0,1.0,1.0
45.42,179.0111,1.0,1.0,1.0
45.43,167.9889,1.0,1.0,1.0
45.44,185.5056,1.0,1.0,1.0
45.45,174.9889,1.0,1.0,1.0
45.46,194.0111,1.0,1.0,1.0
45.47,205.5056,1.0,1.0,1.0
45.48,199.4944,1.0,1.0,1.0
45.49,181.0111,1.0,1.0,1.0
45.5,212.4944,1.0,1.0,1.0
45.51,208.9889,1.0,1.0,1.0
45.52,196.0,1.0,1.0,1.0
45.53,195.0222,1.0,1.0,1.0
45.54,198.9889,1.0,1.0,1.0
45.55,192.9778,1.0,1.0,1.0
45.56,219.5167,1.0,1.0,1.0
45.57,202.0,1.0,1.0,1.0
45.58,204.9889,1.0,1.0,1.0
45.59,201.5167,1.0,1.0,1.0
45.6,204.5056,1.0,1.0,1.0
45.61,236.4722,1.0,1.0,1.0
45.62,205.0111,1.0,1.0,1.0
45.63,222.0,1.0,1.0,1.0
45.64,238.5056,1.0,1.0,1.0
45.65,220.0,1.0,1.0,1.0
45.66,255.5056,1.0,1.0,1.0
45.67,224.4944,1.0,1.0,1.0
45.68,253.4944,1.0,1.0,1.0
45.69,239.9889,1.0,1.0,1.0
45.7,233.4833,1.0,1.0,1.0
45.71,261.5389,1.0,1.0,1.0
45.72,264.4944,1.0,1.0,1.0
45.73,263.4944,1.0,1.0,1.0
45.74,280.0111,1.0,1.0,1.0
45.75,293.0111,1.0,1.0,1.0
45.76,281.4611,1.0,1.0,1.0
45.77,272.0222,1.0,1.0,1.0
45.78,291.4944,1.0,1.0,1.0
45.79,281.9778,1.0,1.0,1.0
45.8,281.0222,1.0,1.0,1.0
45.81,313.4722,1.0,1.0,1.0
45.82,318.0222,1.0,1.0,1.0
45.83,269.9889,1.0,1.0,1.0
45.84,301.9889,1.0,1.0,1.0
45.85,322.0111,1.0,1.0,1.0
45.86,311.4833,1.0,1.0,1.0
45.87,337.5167,1.0,1.0,1.0
45.88,321.5167,1.0,1.0,1.0
45.89,345.0,1.0,1.0,1.0
45.9,334.9889,1.0,1.0,1.0
45.91,328.4833,1.0,1.0,1.0
45.92,316.5056,1.0,1.0,1.0
45.93,351.0,1.0,1.0,1.0
45.94,352.5278,1.0,1.0,1.0
45.95,375.4944,1.0,1.0,1.0
45.96,379.4944,1.0,1.0,1.0
45.97,426.4944,1.0,1.0,1.0
45.98,377.0111,1.0,1.0,1.0
45.99,379.9889,1.0,1.0,1.0
46.0,401.0,1.0,1.0,1.0
46.01,424.5167,1.0,1.0,1.0
46.02,380.4833,1.0,1.0,1.0
46.03,399.0111,1.0,1.0,1.0
46.04,417.0111,1.0,1.0,1.0
46.05,448.4833,1.0,1.0,1.0
46.06,397.4611,1.0,1.0,1.0
46.07,457.5278,1.0,1.0,1.0
46.08,412.0,1.0,1.0,1.0
46.09,452.9667,1.0,1.0,1.0
46.1,441.0444,1.0,1.0,1.0
46.11,486.0,1.0,1.0,1.0
46.12,414.4722,1.0,1.0,1.0
46.13,506.5278,1.0,1.0,1.0
46.14,496.9556,1.0,1.0,1.0
46.15,508.5389,1.0,1.0,1.0
46.16,517.9778,1.0,1.0,1.0
46.17,535.5278,1.0,1.0,1.0
46.18,571.4833,1.0,1.0,1.0
46.19,545.4611,1.0,1.0,1.0
46.2,548.5278,1.0,1.0,1.0
46.21,549.9667,1.0,1.0,1.0
46.22,583.5278,1.0,1.0,1.0
46.23,550.5167,1.0,1.0,1.0
46.24,562.4944,1.0,1.0,1.0
46.25,639.9889,1.0,1.0,1.0
46.26,649.9889,1.0,1.0,1.0
46.27,621.0555,1.0,1.0,1.0
46.28,564.9,1.0,1.0,1.0
46.29,689.0555,1.0,1.0,1.0
46.3,597.0111,1.0,1.0,1.0
46.31,657.0,1.0,1.0,1.0
46.32,655.4722,1.0,1.0,1.0
46.33,675.9778,1.0,1.0,1.0
46.34,690.0444,1.0,1.0,1.0
46.35,686.9778,1.0,1.0,1.0
46.36,644.4944,1.0,1.0,1.0
46.37,680.5167,1.0,1.0,1.0
46.38,695.4833,1.0,1.0,1.0
46.39,752.9778,1.0,1.0,1.0
46.4,761.0222,1.0,1.0,1.0
46.41,732.9778,1.0,1.0,1.0
46.42,803.0333,1.0,1.0,1.0
46.43,793.0222,1.0,1.0,1.0
46.44,798.9667,1.0,1.0,1.0
46.45,848.5167,1.0,1.0,1.0
46.46,843.9889,1.0,1.0,1.0
46.47,839.5056,1.0,1.0,1.0
46.48,825.4389,1.0,1.0,1.0
46.49,785.0222,1.0,1.0,1.0
46.5,860.0222,1.0,1.0,1.0
46.51,922.45,1.0,1.0,1.0
46.52,917.5611,1.0,1.0,1.0
46.53,997.0111,1.0,1.0,1.0
46.54,899.9667,1.0,1.0,1.0
46.55,983.4833,1.0,1.0,1.0
46.56,998.0333,1.0,1.0,1.0
46.57,940.9667,1.0,1.0,1.0
46.58,1002.55,1.0,1.0,1.0
46.59,1048.91,1.0,1.0,1.0
46.6,1052.54,1.0,1.0,1.0
46.61,1041.04,1.0,1.0,1.0
46.62,1054.49,1.0,1.0,1.0
46.63,1007.49,1.0,1.0,1.0
46.64,1015.45,1.0,1.0,1.0
46.65,1127.02,1.0,1.0,1.0
46.66,1005.46,1.0,1.0,1.0
46.67,1169.54,1.0,1.0,1.0
46.68,1190.52,1.0,1.0,1.0
46.69,1219.48,1.0,1.0,1.0
46.7,1174.53,1.0,1.0,1.0
46.71,1254.46,1.0,1.0,1.0
46.72,1261.51,1.0,1.0,1.0
46.73,1344.46,1.0,1.0,1.0
46.74,1278.99,1.0,1.0,1.0
46.75,1355.56,1.0,1.0,1.0
46.76,1299.02,1.0,1.0,1.0
46.77,1379.94,1.0,1.0,1.0
46.78,1389.46,1.0,1.0,1.0
46.79,1431.51,1.0,1.0,1.0
46.8,1431.02,1.0,1.0,1.0
46.81,1491.51,1.0,1.0,1.0
46.82,1538.01,1.0,1.0,1.0
46.83,1605.0,1.0,1.0,1.0
46.84,1622.97,1.0,1.0,1.0
46.85,1550.46,1.0,1.0,1.0
46.86,1647.01,1.0,1.0,1.0
46.87,1640.48,1.0,1.0,1.0
46.88,1716.06,1.0,1.0,1.0
46.89,1616.03,1.0,1.0,1.0
46.9,1664.99,1.0,1.0,1.0
46.91,1691.49,1.0,1.0,1.0
46.92,1655.96,1.0,1.0,1.0
46.93,1704.52,1.0,1.0,1.0
46.94,1642.96,1.0,1.0,1.0
46.95,1681.98,1.0,1.0,1.0
46.96,1813.56,1.0,1.0,1.0
46.97,1714.04,1.0,1.0,1.0
46.98,1791.9,1.0,1.0,1.0
46.99,1716.02,1.0,1.0,1.0
47.0,1742.55,1.0,1.0,1.0
47.01,1773.51,1.0,1.0,1.0
47.02,1786.46,1.0,1.0,1.0
47.03,1752.52,1.0,1.0,1.0
47.04,1753.97,1.0,1.0,1.0
47.05,1675.52,1.0,1.0,1.0
47.06,1754.06,1.0,1.0,1.0
47.07,1782.92,1.0,1.0,1.0
47.08,1872.01,1.0,1.0,1.0
47.09,1768.0,1.0,1.0,1.0
47.1,1854.98,1.0,1.0,1.0
47.11,1851.04,1.0,1.0,1.0
47.12,1865.02,1.0,1.0,1.0
47.13,1885.42,1.0,1.0,1.0
47.14,1849.57,1.0,1.0,1.0
47.15,1841.96,1.0,1.0,1.0
47.16,1761.57,1.0,1.0,1.0
47.17,1964.94,1.0,1.0,1.0
47.18,1881.97,1.0,1.0,1.0
47.19,1965.52,1.0,1.0,1.0
47.2,1914.49,1.0,1.0,1.0
47.21,2001.94,1.0,1.0,1.0
47.22,1880.55,1.0,1.0,1.0
47.23,1926.57,1.0,1.0,1.0
47.24,1979.36,1.0,1.0,1.0
47.25,1942.56,1.0,1.0,1.0
47.26,1956.0,1.0,1.0,1.0
47.27,1921.51,1.0,1.0,1.0
47.28,1910.0,1.0,1.0,1.0
47.29,1929.04,1.0,1.0,1.0
47.3,1977.02,1.0,1.0,1.0
47.31,1917.0,1.0,1.0,1.0
47.32,1869.51,1.0,1.0,1.0
47.33,1911.48,1.0,1.0,1.0
47.34,1728.0,1.0,1.0,1.0
47.35,1781.97,1.0,1.0,1.0
47.36,1845.51,1.0,1.0,1.0
47.37,1723.55,1.0,1.0,1.0
47.38,1726.48,1.0,1.0,1.0
47.39,1677.96,1.0,1.0,1.0
47.4,1650.55,1.0,1.0,1.0
47.41,1685.48,1.0,1.0,1.0
47.42,1633.02,1.0,1.0,1.0
47.43,1568.53,1.0,1.0,1.0
47.44,1650.49,1.0,1.0,1.0
47.45,1609.39,1.0,1.0,1.0
47.46,1565.57,1.0,1.0,1.0
47.47,1609.01,1.0,1.0,1.0
47.48,1682.98,1.0,1.0,1.0
47.49,1705.51,1.0,1.0,1.0
47.5,1680.46,1.0,1.0,1.0
47.51,1671.51,1.0,1.0,1.0
47.52,1719.54,1.0,1.0,1.0
47.53,1758.94,1.0,1.0,1.0
47.54,1930.49,1.0,1.0,1.0
47.55,1966.0,1.0,1.0,1.0
47.56,2070.94,1.0,1.0,1.0
47.57,2093.06,1.0,1.0,1.0
47.58,2240.99,1.0,1.0,1.0
47.59,2315.48,1.0,1.0,1.0
47.6,2498.45,1.0,1.0,1.0
47.61,2586.0,1.0,1.0,1.0
47.62,2707.48,1.0,1.0,1.0
47.63,2961.43,1.0,1.0,1.0
47.64,3089.07,1.0,1.0,1.0
47.65,3226.91,1.0,1.0,1.0
47.66,3316.58,1.0,1.0,1.0
47.67,3331.93,1.0,1.0,1.0
47.68,3656.94,1.0,1.0,1.0
47.69,3740.55,1.0,1.0,1.0
47.7,4059.97,1.0,1.0,1.0
47.71,4134.51,1.0,1.0,1.0
47.72,4399.811,1.0,1.0,1.0
47.73,4761.55,1.0,1.0,1.0
47.74,5024.49,1.0,1.0,1.0
47.75,5434.94,1.0,1.0,1.0
47.76,5709.94,1.0,1.0,1.0
47.77,6505.35,1.0,1.0,1.0
47.78,7139.51,1.0,1.0,1.0
47.79,7944.91,1.0,1.0,1.0
47.8,9342.76,1.0,1.0,1.0
47.81,11049.3,1.0,1.0,1.0
47.82,12977,1.0,1.0,1.0
47.83,15894.1,1.0,1.0,1.0
47.84,19876.3,1.0,1.0,1.0
47.85,25528.8,1.0,1.0,1.0
47.86,34910.668,1.0,1.0,1.0
47.87,52782.3,1.0,1.0,1.0
47.88,103043,1.0,1.0,1.0
47.89,270872,1.0,1.0,1.0
47.9,652499,1.0,1.0,1.0
47.91,1184791.875,1.0,1.0,1.0
47.92,1763734.25,1.0,1.0,1.0
47.93,2597790.0,1.0,1.0,1.0
47.94,3504026.0,1.0,1.0,1.0
47.95,4259882.0,1.0,1.0,1.0
47.96,4968455.0,1.0,1.0,1.0
47.97,5545280.0,1.0,1.0,1.0
47.98,5575699.5,1.0,1.0,1.0
47.99,4203263.0,1.0,1.0,1.0
48.0,1938807.625,1.0,1.0,1.0
48.01,645464.5,1.0,1.0,1.0
48.02,320863,1.0,1.0,1.0
48.03,215870,1.0,1.0,1.0
48.04,155999,1.0,1.0,1.0
48.05,115289,1.0,1.0,1.0
48.06,84971.6,1.0,1.0,1.0
48.07,63477.3,1.0,1.0,1.0
48.08,47150.2,1.0,1.0,1.0
48.09,35660.6,1.0,1.0,1.0
48.1,26997.1,1.0,1.0,1.0
48.11,20397.7,1.0,1.0,1.0
48.12,16009,1.0,1.0,1.0
48.13,12401.917,1.0,1.0,1.0
48.14,9737.78,1.0,1.0,1.0
48.15,7831.71,1.0,1.0,1.0
48.16,6398.14,1.0,1.0,1.0
48.17,5305.52,1.0,1.0,1.0
48.18,4519.07,1.0,1.0,1.0
48.19,3746.99,1.0,1.0,1.0
48.2,3250.21,1.0,1.0,1.0
48.21,2836.0,1.0,1.0,1.0
48.22,2489.47,1.0,1.0,1.0
48.23,2159.61,1.0,1.0,1.0
48.24,1922.02,1.0,1.0,1.0
48.25,1686.0,1.0,1.0,1.0
48.26,1527.01,1.0,1.0,1.0
48.27,1324.55,1.0,1.0,1.0
48.28,1248.44,1.0,1.0,1.0
48.29,1151.54,1.0,1.0,1.0
48.3,971.0333,1.0,1.0,1.0
48.31,918.5389,1.0,1.0,1.0
48.32,811.0,1.0,1.0,1.0
48.33,726.0,1.0,1.0,1.0
48.34,685.9889,1.0,1.0,1.0
48.35,667.4833,1.0,1.0,1.0
48.36,617.5389,1.0,1.0,1.0
48.37,511.0111,1.0,1.0,1.0
48.38,513.4722,1.0,1.0,1.0
48.39,485.5056,1.0,1.0,1.0
48.4,440.0333,1.0,1.0,1.0
48.41,413.9667,1.0,1.0,1.0
48.42,379.5278,1.0,1.0,1.0
48.43,386.5167,1.0,1.0,1.0
48.44,349.9778,1.0,1.0,1.0
48.45,324.5056,1.0,1.0,1.0
48.46,271.5056,1.0,1.0,1.0
48.47,293.4722,1.0,1.0,1.0
48.48,297.0222,1.0,1.0,1.0
48.49,274.5056,1.0,1.0,1.0
48.5,233.5167,1.0,1.0,1.0
48.51,234.9778,1.0,1.0,1.0
48.52,220.0222,1.0,1.0,1.0
48.53,221.5056,1.0,1.0,1.0
48.54,177.9889,1.0,1.0,1.0
48.55,197.9889,1.0,1.0,1.0
48.56,186.5167,1.0,1.0,1.0
48.57,176.5056,1.0,1.0,1.0
48.58,164.9667,1.0,1.0,1.0
48.59,181.5167,1.0,1.0,1.0
48.6,153.5167,1.0,1.0,1.0
48.61,126.0,1.0,1.0,1.0
48.62,166.4944,1.0,1.0,1.0
48.63,129.9778,1.0,1.0,1.0
48.64,136.5278,1.0,1.0,1.0
48.65,99.0,1.0,1.0,1.0
48.66,138.9667,1.0,1.0,1.0
48.67,114.0444,1.0,1.0,1.0
48.68,102.4944,1.0,1.0,1.0
48.69,117.4944,1.0,1.0,1.0
48.7,100.4833,1.0,1.0,1.0
48.71,78.0222,1.0,1.0,1.0
48.72,90.0,1.0,1.0,1.0
48.73,85.5056,1.0,1.0,1.0
48.74,73.9889,1.0,1.0,1.0
48.75,102.9889,1.0,1.0,1.0
48.76,83.5167,1.0,1.0,1.0
48.77,91.0,1.0,1.0,1.0
48.78,67.4944,1.0,1.0,1.0
48.79,53.0111,1.0,1.0,1.0
48.8,61.4944,1.0,1.0,1.0
48.81,61.0,1.0,1.0,1.0
48.82,62.4944,1.0,1.0,1.0
48.83,48.0111,1.0,1.0,1.0
48.84,69.0,1.0,1.0,1.0
48.85,58.4944,1.0,1.0,1.0
48.86,59.4944,1.0,1.0,1.0
48.87,51.0111,1.0,1.0,1.0
48.88,55.4944,1.0,1.0,1.0
48.89,38.0,1.0,1.0,1.0
48.9,65.5056,1.0,1.0,1.0
48.91,45.4944,1.0,1.0,1.0
48.92,38.5056,1.0,1.0,1.0
48.93,45.0,1.0,1.0,1.0
48.94,41.0,1.0,1.0,1.0
48.95,37.0,1.0,1.0,1.0
48.96,52.0,1.0,1.0,1.0
48.97,46.4944,1.0,1.0,1.0
48.98,38.5056,1.0,1.0,1.0
48.99,37.0,1.0,1.0,1.0
49.0,26.9778,1.0,1.0,1.0
49.01,38.0222,1.0,1.0,1.0
49.02,41.0,1.0,1.0,1.0
49.03,50.9889,1.0,1.0,1.0
49.04,31.5056,1.0,1.0,1.0
49.05,31.0,1.0,1.0,1.0
49.06,56.0,1.0,1.0,1.0
49.07,48.5056,1.0,1.0,1.0
49.08,25.0,1.0,1.0,1.0
49.09,28.0,1.0,1.0,1.0
49.1,38.0,1.0,1.0,1.0
49.11,42.0,1.0,1.0,1.0
49.12,40.0,1.0,1.0,1.0
49.13,30.4944,1.0,1.0,1.0
49.14,53.4944,1.0,1.0,1.0
49.15,54.4944,1.0,1.0,1.0
49.16,27.5167,1.0,1.0,1.0
49.17,43.4944,1.0,1.0,1.0
49.18,21.5056,1.0,1.0,1.0
49.19,28.0,1.0,1.0,1.0
49.2,46.0,1.0,1.0,1.0
49.21,27.0,1.0,1.0,1.0
49.22,6.9889,1.0,1.0,1.0
49.23,27.0111,1.0,1.0,1.0
49.24,32.0,1.0,1.0,1.0
49.25,16.0,1.0,1.0,1.0
49.26,16.0,1.0,1.0,1.0
49.27,30.9889,1.0,1.0,1.0
49.28,17.0111,1.0,1.0,1.0
49.29,26.4944,1.0,1.0,1.0
49.3,29.5056,1.0,1.0,1.0
49.31,20.4944,1.0,1.0,1.0
49.32,19.5056,1.0,1.0,1.0
49.33,19.4944,1.0,1.0,1.0
49.34,12.5056,1.0,1.0,1.0
49.35,29.0,1.0,1.0,1.0
49.36,20.0,1.0,1.0,1.0
49.37,24.4944,1.0,1.0,1.0
49.38,28.0,1.0,1.0,1.0
49.39,19.5056,1.0,1.0,1.0
49.4,20.0,1.0,1.0,1.0
49.41,19.0,1.0,1.0,1.0
49.42,17.0,1.0,1.0,1.0
49.43,22.0,1.0,1.0,1.0
49.44,15.0,1.0,1.0,1.0
49.45,15.0,1.0,1.0,1.0
49.46,15.0,1.0,1.0,1.0
49.47,19.0,1.0,1.0,1.0
49.48,13.0,1.0,1.0,1.0
49.49,15.0,1.0,1.0,1.0
49.5,23.4944,1.0,1.0,1.0
49.51,16.5056,1.0,1.0,1.0
49.52,8.0,1.0,1.0,1.0
49.53,5.0,1.0,1.0,1.0
49.54,16.0,1.0,1.0,1.0
49.55,9.0,1.0,1.0,1.0
49.56,18.0,1.0,1.0,1.0
49.57,23.0,1.0,1.0,1.0
49.58,13.0,1.0,1.0,1.0
49.59,7.0,1.0,1.0,1.0
49.6,13.0,1.0,1.0,1.0
49.61,24.4944,1.0,1.0,1.0
49.62,25.5056,1.0,1.0,1.0
49.63,21.0,1.0,1.0,1.0
49.64,24.0,1.0,1.0,1.0
49.65,16.0,1.0,1.0,1.0
49.66,31.0,1.0,1.0,1.0
49.67,9.4944,1.0,1.0,1.0
49.68,21.5056,1.0,1.0,1.0
49.69,15.0,1.0,1.0,1.0
49.7,29.4944,1.0,1.0,1.0
49.71,9.5056,1.0,1.0,1.0
49.72,8.0,1.0,1.0,1.0
49.73,5.0,1.0,1.0,1.0
49.74,10.0,1.0,1.0,1.0
49.75,12.0,1.0,1.0,1.0
49.76,6.4944,1.0,1.0,1.0
49.77,15.5056,1.0,1.0,1.0
49.78,13.0,1.0,1.0,1.0
49.79,15.0,1.0,1.0,1.0
49.8,5.0,1.0,1.0,1.0
49.81,9.0,1.0,1.0,1.0
49.82,24.0,1.0,1.0,1.0
49.83,13.0,1.0,1.0,1.0
49.84,13.0,1.0,1.0,1.0
49.85,12.4944,1.0,1.0,1.0
49.86,15.5056,1.0,1.0,1.0
49.87,15.0,1.0,1.0,1.0
49.88,12.0,1.0,1.0,1.0
49.89,17.0,1.0,1.0,1.0
49.9,11.4944,1.0,1.0,1.0
49.91,17.5056,1.0,1.0,1.0
49.92,0.0,1.0,1.0,1.0
49.93,13.0,1.0,1.0,1.0
49.94,10.0,1.0,1.0,1.0
49.95,10.4944,1.0,1.0,1.0
49.96,1.5056,1.0,1.0,1.0
49.97,8.0,1.0,1.0,1.0
49.98,11.0,1.0,1.0,1.0
49.99,8.0,1.0,1.0,1.0
50.0,12.0,1.0,1.0,1.0
50.01,12.4944,1.0,1.0,1.0
50.02,14.5056,1.0,1.0,1.0
50.03,9.0,1.0,1.0,1.0
50.04,16.0,1.0,1.0,1.0
50.05,18.0,1.0,1.0,1.0
50.06,11.0,1.0,1.0,1.0
50.07,18.4944,1.0,1.0,1.0
50.08,9.5056,1.0,1.0,1.0
50.09,10.4944,1.0,1.0,1.0
50.1,6.5056,1.0,1.0,1.0
50.11,6.0,1.0,1.0,1.0
50.12,8.0,1.0,1.0,1.0
50.13,11.4944,1.0,1.0,1.0
50.14,6.5056,1.0,1.0,1.0
50.15,8.0,1.0,1.0,1.0
50.16,21.0,1.0,1.0,1.0
50.17,9.0,1.0,1.0,1.0
50.18,5.0,1.0,1.0,1.0
50.19,6.0,1.0,1.0,1.0
50.2,6.0,1.0,1.0,1.0
50.21,5.0,1.0,1.0,1.0
50.22,16.0,1.0,1.0,1.0
50.23,0.4944,1.0,1.0,1.0
50.24,8.5056,1.0,1.0,1.0
50.25,4.0,1.0,1.0,1.0
50.26,7.0,1.0,1.0,1.0
50.27,6.0,1.0,1.0,1.0
50.28,8.0,1.0,1.0,1.0
50.29,7.0,1.0,1.0,1.0
50.3,3.0,1.0,1.0,1.0
50.31,0.0,1.0,1.0,1.0
50.32,13.4944,1.0,1.0,1.0
50.33,21.0,1.0,1.0,1.0
50.34,3.5056,1.0,1.0,1.0
50.35,12.0,1.0,1.0,1.0
50.36,12.0,1.0,1.0,1.0
50.37,10.0,1.0,1.0,1.0
50.38,8.4944,1.0,1.0,1.0
50.39,5.5056,1.0,1.0,1.0
50.4,7.4944,1.0,1.0,1.0
50.41,5.5056,1.0,1.0,1.0
50.42,6.0,1.0,1.0,1.0
50.43,19.0,1.0,1.0,1.0
50.44,7.4944,1.0,1.0,1.0
50.45,12.5056,1.0,1.0,1.0
50.46,7.0,1.0,1.0,1.0
50.47,6.0,1.0,1.0,1.0
50.48,6.0,1.0,1.0,1.0
50.49,5.0,1.0,1.0,1.0
50.5,14.0,1.0,1.0,1.0
50.51,4.0,1.0,1.0,1.0
50.52,5.0,1.0,1.0,1.0
50.53,6.0,1.0,1.0,1.0
50.54,4.0,1.0,1.0,1.0
50.55,3.0,1.0,1.0,1.0
50.56,4.0,1.0,1.0,1.0
50.57,10.0,1.0,1.0,1.0
50.58,2.0,1.0,1.0,1.0
50.59,5.0,1.0,1.0,1.0
50.6,12.0,1.0,1.0,1.0
50.61,13.9889,1.0,1.0,1.0
50.62,15.0111,1.0,1.0,1.0
50.63,17.0,1.0,1.0,1.0
50.64,8.0,1.0,1.0,1.0
50.65,5.0,1.0,1.0,1.0
50.66,3.0,1.0,1.0,1.0
50.67,8.0,1.0,1.0,1.0
50.68,4.0,1.0,1.0,1.0
50.69,5.0,1.0,1.0,1.0
50.7,12.0,1.0,1.0,1.0
50.71,5.0,1.0,1.0,1.0
50.72,5.4944,1.0,1.0,1.0
50.73,7.5056,1.0,1.0,1.0
50.74,2.0,1.0,1.0,1.0
50.75,18.9889,1.0,1.0,1.0
50.76,7.0111,1.0,1.0,1.0
50.77,8.0,1.0,1.0,1.0
50.78,9.0,1.0,1.0,1.0
50.79,10.0,1.0,1.0,1.0
50.8,0.0,1.0,1.0,1.0
50.81,0.0,1.0,1.0,1.0
50.82,9.0,1.0,1.0,1.0
50.83,9.0,1.0,1.0,1.0
50.84,2.0,1.0,1.0,1.0
50.85,9.0,1.0,1.0,1.0
50.86,19.0,1.0,1.0,1.0
50.87,14.0,1.0,1.0,1.0
50.88,0.0,1.0,1.0,1.0
50.89,5.0,1.0,1.0,1.0
50.9,8.0,1.0,1.0,1.0
50.91,8.4944,1.0,1.0,1.0
50.92,3.5056,1.0,1.0,1.0
50.93,10.4944,1.0,1.0,1.0
50.94,7.5056,1.0,1.0,1.0
50.95,6.0,1.0,1.0,1.0
50.96,2.0,1.0,1.0,1.0
50.97,2.0,1.0,1.0,1.0
50.98,10.0,1.0,1.0,1.0
50.99,7.0,1.0,1.0,1.0
51.0,9.0,1.0,1.0,1.0
51.01,5.0,1.0,1.0,1.0
51.02,7.0,1.0,1.0,1.0
51.03,7.0,1.0,1.0,1.0
51.04,6.0,1.0,1.0,1.0
51.05,2.0,1.0,1.0,1.0
51.06,19.0,1.0,1.0,1.0
51.07,11.0,1.0,1.0,1.0
51.08,11.0,1.0,1.0,1.0
51.09,17.0,1.0,1.0,1.0
51.1,12.0,1.0,1.0,1.0
51.11,2.0,1.0,1.0,1.0
51.12,13.0,1.0,1.0,1.0
51.13,6.0,1.0,1.0,1.0
51.14,5.0,1.0,1.0,1.0
51.15,2.0,1.0,1.0,1.0
51.16,3.0,1.0,1.0,1.0
51.17,2.0,1.0,1.0,1.0
51.18,4.0,1.0,1.0,1.0
51.19,4.0,1.0,1.0,1.0
51.2,7.0,1.0,1.0,1.0
51.21,12.0,1.0,1.0,1.0
51.22,9.4944,1.0,1.0,1.0
51.23,10.5056,1.0,1.0,1.0
51.24,8.0,1.0,1.0,1.0
51.25,2.0,1.0,1.0,1.0
51.26,9.0,1.0,1.0,1.0
51.27,2.0,1.0,1.0,1.0
51.28,11.0,1.0,1.0,1.0
51.29,8.0,1.0,1.0,1.0
51.3,5.0,1.0,1.0,1.0
51.31,8.0,1.0,1.0,1.0
51.32,7.0,1.0,1.0,1.0
51.33,5.0,1.0,1.0,1.0
51.34,13.0,1.0,1.0,1.0
51.35,6.0,1.0,1.0,1.0
51.36,13.0,1.0,1.0,1.0
51.37,9.4944,1.0,1.0,1.0
51.38,6.0,1.0,1.0,1.0
51.39,0.5056,1.0,1.0,1.0
51.4,3.0,1.0,1.0,1.0
51.41,5.0,1.0,1.0,1.0
51.42,14.4944,1.0,1.0,1.0
51.43,9.5056,1.0,1.0,1.0
51.44,9.0,1.0,1.0,1.0
51.45,12.0,1.0,1.0,1.0
51.46,3.0,1.0,1.0,1.0
51.47,12.0,1.0,1.0,1.0
51.48,0.0,1.0,1.0,1.0
51.49,6.0,1.0,1.0,1.0
51.5,2.0,1.0,1.0,1.0
51.51,13.0,1.0,1.0,1.0
51.52,10.0,1.0,1.0,1.0
51.53,10.0,1.0,1.0,1.0
51.54,2.0,1.0,1.0,1.0
51.55,8.0,1.0,1.0,1.0
51.56,8.0,1.0,1.0,1.0
51.57,7.0,1.0,1.0,1.0
51.58,8.0,1.0,1.0,1.0
51.59,3.0,1.0,1.0,1.0
51.6,11.0,1.0,1.0,1.0
51.61,6.0,1.0,1.0,1.0
51.62,6.0,1.0,1.0,1.0
51.63,2.0,1.0,1.0,1.0
51.64,10.0,1.0,1.0,1.0
51.65,6.0,1.0,1.0,1.0
51.66,2.0,1.0,1.0,1.0
51.67,9.0,1.0,1.0,1.0
51.68,3.0,1.0,1.0,1.0
51.69,8.0,1.0,1.0,1.0
51.7,12.0,1.0,1.0,1.0
51.71,11.0,1.0,1.0,1.0
51.72,5.0,1.0,1.0,1.0
51.73,0.4944,1.0,1.0,1.0
51.74,3.5056,1.0,1.0,1.0
51.75,11.0,1.0,1.0,1.0
51.76,10.4944,1.0,1.0,1.0
51.77,6.5056,1.0,1.0,1.0
51.78,4.0,1.0,1.0,1.0
51.79,14.0,1.0,1.0,1.0
51.8,7.0,1.0,1.0,1.0
51.81,6.0,1.0,1.0,1.0
51.82,6.0,1.0,1.0,1.0
51.83,7.0,1.0,1.0,1.0
51.84,7.4944,1.0,1.0,1.0
51.85,11.5056,1.0,1.0,1.0
51.86,6.0,1.0,1.0,1.0
51.87,0.0,1.0,1.0,1.0
51.88,10.0,1.0,1.0,1.0
51.89,5.0,1.0,1.0,1.0
51.9,2.0,1.0,1.0,1.0
51.91,2.0,1.0,1.0,1.0
51.92,10.0,1.0,1.0,1.0
51.93,4.0,1.0,1.0,1.0
51.94,6.0,1.0,1.0,1.0
51.95,16.0,1.0,1.0,1.0
51.96,9.0,1.0,1.0,1.0
51.97,13.0,1.0,1.0,1.0
51.98,5.0,1.0,1.0,1.0
51.99,7.0,1.0,1.0,1.0
52.0,14.0,1.0,1.0,1.0