File: XRD:XRR/SCO/22166_SL(CO)L/22166_SL(CO)L_002_XRD_2-Theta_Omega.asc
*TYPE		=  Raw
*CLASS		=  ASCII CLASS
*SAMPLE		=
*COMMENT	=
*FNAME		=  22166_SL(CO)L_002_XRD_2-Theta_Omega.asc
*DATE		=  02-Dec-22 18:06

*GROUP_COUNT	=  1
*GONIO		=  SmartLab(In-plane), 0.000000
*ATTACHMENT	=  Z-Phi Stage
*ASC		=  0, 0, 0.000000, 0.000000
*I_MONOCHRO	=  Ge(220)x2, 0.000000
*FILTER		=  None
*C_MONOCHRO	=  None, 0.000000
*SLIT_NAME	=  0, Incident slit
*SLIT_NAME	=  1, Receiving slit # 1
*SLIT_NAME	=  2, Receiving slit # 2
*COUNTER	=  D/teX Ultra 250, 0
*POS_FORMAT	=  0
*SCAN_AXIS	=  2Theta/Omega
*MEAS_MODE	=  Continuous Scanning
*TARGET		=  29
*XRAY_CHAR	=  K-ALPHA1
*WAVE_LENGTH1	=  1.54059
*WAVE_LENGTH2	=  1.54441
*THICKNESS	=  0, 0.000000
*MU		=  0, 0.000000
*SCAN_MODE	=  2Theta/Omega
*SPEED_DIM	=  sec./step
*XUNIT		=  deg.
*YUNIT		=  counts
*SCALE_MODE	=  1
*REP_COUNT	=  0
*SE_COUNT	=  0
*STD_MATERIAL	=  Unknown, Unknown, 0.000000, 0.000000, 0.000000, 0.000000, 0.000000, 0.000000
*LATT_CONS	=  0, Unknown, Unknown, 0.000000, 0.000000, 0.000000, 0.000000, 0.000000, 0.000000
*SEC_COUNT	=  1
*TSPEC_SIZE	=  0
*EXTRA_SIZE	=  0
*MEMO		=

*BEGIN
*GROUP		=  0
*START		=  40
*STOP		=  52
*STEP		=  0.01
*OFFSET		=  0.1384
*SPEED		=  22.1803
*SLIT_SPEC	=  0, 0.400mm, 0.4, 0.000000
*SLIT_SPEC	=  1, 0.400mm, 0.4, 0.000000
*SLIT_SPEC	=  2, 0.400mm, 0.4, 0.000000
*KV		=  40
*MA		=  30
*LOW		=  0.000000
*HIGH		=  0.000000
*CTEMPER	=  0, 0.000000
*CTEMPER	=  1, 0.000000
*CTEMPER	=  2, 0.000000
*PAREX		=  0, 0.000000
*PAREX		=  1, 0.000000
*PAREX		=  2, 0.000000
*PAREX		=  3, 0.000000
*PAREX		=  4, 0.000000
*PAREX		=  5, 0.000000
*PAREX		=  6, 0.000000
*PAREX		=  7, 0.000000
*PAREX		=  8, 0.000000
*PAREX		=  9, 0.000000
*PAREX		=  10, 0.000000
*PAREX		=  11, 0.000000
*PAREX		=  12, 0.000000
*PAREX		=  13, 0.000000
*PAREX		=  14, 0.000000
*PAREX		=  15, 0.000000
*FULL_SCALE	=  311105
*INDEX		=  0, 0, 0
*COUNT		=  1201
7, 8.98889, 10.0111, 6
2, 3, 8.98889, 5.50555
7.49445, 14.0111, 5, 7
9, 5, 8.49445, 9.49445
8.01111, 6, 7, 2
5, 7, 9, 10
4, 11, 15.4944, 12.5056
5, 2, 8, 3
2, 10, 9, 2
2, 15.4944, 0.505554, 10.4944
8.50555, 3, 0.000000, 3
3, 18, 10, 13.4944
6.50555, 3, 9, 4
5, 5, 8, 3
0.000000, 2, 3, 3
9, 2, 3, 2
0.494446, 13, 4.50555, 2
3, 0.000000, 9, 7.49445
2.50555, 3, 6, 4
2, 6, 13, 12
11, 7, 5, 0.000000
7, 6, 2, 5
7, 0.000000, 7, 7
12, 12, 11, 11
4, 6, 6, 4
14, 14, 5, 6
7, 0.000000, 2, 0.000000
11, 10, 5, 16
2, 11, 9, 5
5, 5, 10, 13
7, 4, 4.49445, 7.50555
3, 3, 4, 8
17, 10, 8.49445, 11.5056
7.49445, 12.5056, 13, 2
3.49445, 10.5056, 1, 14
11, 3, 7, 14.9889
10.0111, 7.49445, 6.50555, 8
4, 6, 16, 7
3.98889, 6.01111, 13.4944, 12.5056
2, 8, 11, 5
4, 10.9889, 13.0111, 10
4, 10, 10, 3
3, 4, 13, 17
8, 0.000000, 5, 12
14, 2, 7, 12
10, 6, 13, 12
10, 11, 12, 4
8, 7, 5, 12
7.98889, 10.5056, 17, 14.5056
8, 10.4944, 16.5056, 16
13, 4, 5, 8
7, 13, 7, 7
4.49445, 12.5056, 9, 14
9, 13, 7, 6
13, 16, 6, 9
9, 12.4944, 4.50555, 9
9, 4, 7, 12
4, 9, 4, 7
2, 13, 7.49445, 6.50555
29, 7, 5.98889, 17.0111
9, 6, 12, 9
16, 3, 2, 11
2.49445, 5.50555, 1.49445, 5
9.50555, 5, 9.49445, 13.5056
7, 7, 10, 11
5, 11, 5, 4
15, 4, 3, 9
2, 8, 9, 12
4, 10, 11, 3
16, 14, 4, 5.49445
6.50555, 9, 8, 4
11, 15, 5, 13
8, 10.4944, 4.50555, 9
9, 4, 2, 6.49445
10.5056, 10, 8.49445, 6
10.5056, 12, 8, 3
7, 8, 9, 6
6.98889, 8.01111, 0.000000, 9
7, 8.98889, 6.01111, 5
8.49445, 10.5056, 20, 8.49445
9.50555, 9, 12, 14
8, 9, 9, 12
2.98889, 7.01111, 4, 28.9889
8.01111, 6, 8, 10
3, 12, 10, 17.4944
7.50555, 2, 5, 20.4944
3.50555, 15, 16, 10
7, 13, 15, 2
11, 5, 16, 14
13, 6, 17, 6
14, 8, 21, 12
5, 6, 10, 14
20, 4, 6, 21.4944
13, 7.50555, 13, 10
9, 11.4944, 10.5056, 13
10, 13, 13.4944, 14.5056
42, 15, 14, 7
30, 7, 10, 24.9889
25.5056, 31.5056, 16.4944, 25.5056
33, 15, 21, 21
16, 38, 28.4944, 37
31.5056, 24, 22, 17
26.4944, 14.5056, 25, 26
23, 18, 30, 27.9889
22.0111, 17, 23, 29
24, 29, 22, 18
26, 26, 24, 15
27, 20.9889, 36.0111, 39
33, 40.9889, 27.5056, 31.5056
36.4944, 33.5056, 24, 39.4722
34.5278, 24.9889, 27, 35.5056
18, 31.5056, 46, 30
33.4944, 40.5056, 23, 42.4833
64.5167, 28.4944, 37.4944, 46.0111
28, 33.4944, 31, 60.5056
41, 50, 56.4944, 49
62, 39.4944, 45.0111, 43
35.4944, 49.5056, 63, 40.4944
61.4944, 44.5056, 62.9889, 39.5167
29, 36.4944, 54.4944, 56.5056
57.4944, 54.5056, 56.5056, 62.4944
56.5056, 75.9889, 55.5056, 57.5056
55.4944, 70.4944, 58.4944, 49.5167
87.4833, 84.5167, 95.4944, 85
77.9889, 102.506, 90.0111, 87.4833
83.5167, 113.483, 86.0111, 87.9889
108.506, 103, 114.494, 108
102.483, 128.022, 100.011, 104.494
111.494, 81.9889, 104.011, 128.506
117.989, 114, 129.517, 109.494
120, 134.989, 157.989, 148.517
122.011, 120.978, 145.011, 151.011
109.472, 117, 121.011, 162.506
163.472, 147.022, 145, 136.011
172.483, 167.011, 160.989, 165.506
166, 159.989, 179.011, 167.989
185.506, 174.989, 194.011, 205.506
199.494, 181.011, 212.494, 208.989
196, 195.022, 198.989, 192.978
219.517, 202, 204.989, 201.517
204.506, 236.472, 205.011, 222
238.506, 220, 255.506, 224.494
253.494, 239.989, 233.483, 261.539
264.494, 263.494, 280.011, 293.011
281.461, 272.022, 291.494, 281.978
281.022, 313.472, 318.022, 269.989
301.989, 322.011, 311.483, 337.517
321.517, 345, 334.989, 328.483
316.506, 351, 352.528, 375.494
379.494, 426.494, 377.011, 379.989
401, 424.517, 380.483, 399.011
417.011, 448.483, 397.461, 457.528
412, 452.967, 441.044, 486
414.472, 506.528, 496.956, 508.539
517.978, 535.528, 571.483, 545.461
548.528, 549.967, 583.528, 550.517
562.494, 639.989, 649.989, 621.056
564.9, 689.056, 597.011, 657
655.472, 675.978, 690.044, 686.978
644.494, 680.517, 695.483, 752.978
761.022, 732.978, 803.033, 793.022
798.967, 848.517, 843.989, 839.506
825.439, 785.022, 860.022, 922.45
917.561, 997.011, 899.967, 983.483
998.033, 940.967, 1002.55, 1048.91
1052.54, 1041.04, 1054.49, 1007.49
1015.45, 1127.02, 1005.46, 1169.54
1190.52, 1219.48, 1174.53, 1254.46
1261.51, 1344.46, 1278.99, 1355.56
1299.02, 1379.94, 1389.46, 1431.51
1431.02, 1491.51, 1538.01, 1605
1622.97, 1550.46, 1647.01, 1640.48
1716.06, 1616.03, 1664.99, 1691.49
1655.96, 1704.52, 1642.96, 1681.98
1813.56, 1714.04, 1791.9, 1716.02
1742.55, 1773.51, 1786.46, 1752.52
1753.97, 1675.52, 1754.06, 1782.92
1872.01, 1768, 1854.98, 1851.04
1865.02, 1885.42, 1849.57, 1841.96
1761.57, 1964.94, 1881.97, 1965.52
1914.49, 2001.94, 1880.55, 1926.57
1979.36, 1942.56, 1956, 1921.51
1910, 1929.04, 1977.02, 1917
1869.51, 1911.48, 1728, 1781.97
1845.51, 1723.55, 1726.48, 1677.96
1650.55, 1685.48, 1633.02, 1568.53
1650.49, 1609.39, 1565.57, 1609.01
1682.98, 1705.51, 1680.46, 1671.51
1719.54, 1758.94, 1930.49, 1966
2070.94, 2093.06, 2240.99, 2315.48
2498.45, 2586, 2707.48, 2961.43
3089.07, 3226.91, 3316.58, 3331.93
3656.94, 3740.55, 4059.97, 4134.51
4399.81, 4761.55, 5024.49, 5434.94
5709.94, 6505.35, 7139.51, 7944.91
9342.76, 11049.3, 12977, 15894.1
19876.3, 25528.8, 34910.7, 52782.3
103043, 270872, 652499, 1184791.9
1763734.3, 2597790, 3504026, 4259882
4968455, 5545280, 5575699.5, 4203263
1938807.6, 645465, 320863, 215870
155999, 115289, 84971.6, 63477.3
47150.2, 35660.6, 26997.1, 20397.7
16009, 12401.9, 9737.78, 7831.71
6398.14, 5305.52, 4519.07, 3746.99
3250.21, 2836, 2489.47, 2159.61
1922.02, 1686, 1527.01, 1324.55
1248.44, 1151.54, 971.033, 918.539
811, 726, 685.989, 667.483
617.539, 511.011, 513.472, 485.506
440.033, 413.967, 379.528, 386.517
349.978, 324.506, 271.506, 293.472
297.022, 274.506, 233.517, 234.978
220.022, 221.506, 177.989, 197.989
186.517, 176.506, 164.967, 181.517
153.517, 126, 166.494, 129.978
136.528, 99, 138.967, 114.044
102.494, 117.494, 100.483, 78.0222
90, 85.5056, 73.9889, 102.989
83.5167, 91, 67.4944, 53.0111
61.4944, 61, 62.4944, 48.0111
69, 58.4944, 59.4944, 51.0111
55.4944, 38, 65.5056, 45.4944
38.5056, 45, 41, 37
52, 46.4944, 38.5056, 37
26.9778, 38.0222, 41, 50.9889
31.5056, 31, 56, 48.5056
25, 28, 38, 42
40, 30.4944, 53.4944, 54.4944
27.5167, 43.4944, 21.5056, 28
46, 27, 6.98889, 27.0111
32, 16, 16, 30.9889
17.0111, 26.4944, 29.5056, 20.4944
19.5056, 19.4944, 12.5056, 29
20, 24.4944, 28, 19.5056
20, 19, 17, 22
15, 15, 15, 19
13, 15, 23.4944, 16.5056
8, 5, 16, 9
18, 23, 13, 7
13, 24.4944, 25.5056, 21
24, 16, 31, 9.49445
21.5056, 15, 29.4944, 9.50555
8, 5, 10, 12
6.49445, 15.5056, 13, 15
5, 9, 24, 13
13, 12.4944, 15.5056, 15
12, 17, 11.4944, 17.5056
0.000000, 13, 10, 10.4944
1.50555, 8, 11, 8
12, 12.4944, 14.5056, 9
16, 18, 11, 18.4944
9.50555, 10.4944, 6.50555, 6
8, 11.4944, 6.50555, 8
21, 9, 5, 6
6, 5, 16, 0.494446
8.50555, 4, 7, 6
8, 7, 3, 0.000000
13.4944, 21, 3.50555, 12
12, 10, 8.49445, 5.50555
7.49445, 5.50555, 6, 19
7.49445, 12.5056, 7, 6
6, 5, 14, 4
5, 6, 4, 3
4, 10, 2, 5
12, 13.9889, 15.0111, 17
8, 5, 3, 8
4, 5, 12, 5
5.49445, 7.50555, 2, 18.9889
7.01111, 8, 9, 10
0.000000, 0.000000, 9, 9
2, 9, 19, 14
0.000000, 5, 8, 8.49445
3.50555, 10.4944, 7.50555, 6
2, 2, 10, 7
9, 5, 7, 7
6, 2, 19, 11
11, 17, 12, 2
13, 6, 5, 2
3, 2, 4, 4
7, 12, 9.49445, 10.5056
8, 2, 9, 2
11, 8, 5, 8
7, 5, 13, 6
13, 9.49445, 6, 0.505554
3, 5, 14.4944, 9.50555
9, 12, 3, 12
0.000000, 6, 2, 13
10, 10, 2, 8
8, 7, 8, 3
11, 6, 6, 2
10, 6, 2, 9
3, 8, 12, 11
5, 0.494446, 3.50555, 11
10.4944, 6.50555, 4, 14
7, 6, 6, 7
7.49445, 11.5056, 6, 0.000000
10, 5, 2, 2
10, 4, 6, 16
9, 13, 5, 7
14
*END

*EOF