File: XRD:XRR/SCO/22075_SCOT/22075_SCOT_XRD.csv
#twotheta, yobs, ycal, bkg, diff
42.0,9.4944,1.0,1.0,1.0
42.01,14.5056,1.0,1.0,1.0
42.02,6.0,1.0,1.0,1.0
42.03,18.0,1.0,1.0,1.0
42.04,20.0,1.0,1.0,1.0
42.05,4.4944,1.0,1.0,1.0
42.06,12.5056,1.0,1.0,1.0
42.07,13.0,1.0,1.0,1.0
42.08,7.0,1.0,1.0,1.0
42.09,14.0,1.0,1.0,1.0
42.1,4.0,1.0,1.0,1.0
42.11,7.4944,1.0,1.0,1.0
42.12,12.5056,1.0,1.0,1.0
42.13,4.4944,1.0,1.0,1.0
42.14,6.5056,1.0,1.0,1.0
42.15,5.0,1.0,1.0,1.0
42.16,10.4944,1.0,1.0,1.0
42.17,4.0,1.0,1.0,1.0
42.18,13.0,1.0,1.0,1.0
42.19,19.5056,1.0,1.0,1.0
42.2,20.0,1.0,1.0,1.0
42.21,13.0,1.0,1.0,1.0
42.22,10.0,1.0,1.0,1.0
42.23,11.0,1.0,1.0,1.0
42.24,7.4944,1.0,1.0,1.0
42.25,7.5056,1.0,1.0,1.0
42.26,12.0,1.0,1.0,1.0
42.27,16.4944,1.0,1.0,1.0
42.28,12.5056,1.0,1.0,1.0
42.29,13.4944,1.0,1.0,1.0
42.3,19.4944,1.0,1.0,1.0
42.31,9.0111,1.0,1.0,1.0
42.32,8.0,1.0,1.0,1.0
42.33,11.0,1.0,1.0,1.0
42.34,16.0,1.0,1.0,1.0
42.35,22.0,1.0,1.0,1.0
42.36,21.0,1.0,1.0,1.0
42.37,17.0,1.0,1.0,1.0
42.38,10.0,1.0,1.0,1.0
42.39,18.0,1.0,1.0,1.0
42.4,17.4944,1.0,1.0,1.0
42.41,20.5056,1.0,1.0,1.0
42.42,7.0,1.0,1.0,1.0
42.43,11.0,1.0,1.0,1.0
42.44,7.0,1.0,1.0,1.0
42.45,16.0,1.0,1.0,1.0
42.46,11.0,1.0,1.0,1.0
42.47,11.4944,1.0,1.0,1.0
42.48,4.5056,1.0,1.0,1.0
42.49,11.0,1.0,1.0,1.0
42.5,23.0,1.0,1.0,1.0
42.51,19.0,1.0,1.0,1.0
42.52,5.0,1.0,1.0,1.0
42.53,11.0,1.0,1.0,1.0
42.54,13.0,1.0,1.0,1.0
42.55,7.0,1.0,1.0,1.0
42.56,19.0,1.0,1.0,1.0
42.57,16.9889,1.0,1.0,1.0
42.58,12.0111,1.0,1.0,1.0
42.59,12.0,1.0,1.0,1.0
42.6,7.4944,1.0,1.0,1.0
42.61,13.5056,1.0,1.0,1.0
42.62,15.4944,1.0,1.0,1.0
42.63,11.5056,1.0,1.0,1.0
42.64,18.0,1.0,1.0,1.0
42.65,2.0,1.0,1.0,1.0
42.66,9.0,1.0,1.0,1.0
42.67,6.0,1.0,1.0,1.0
42.68,10.9889,1.0,1.0,1.0
42.69,8.0111,1.0,1.0,1.0
42.7,10.0,1.0,1.0,1.0
42.71,8.0,1.0,1.0,1.0
42.72,4.0,1.0,1.0,1.0
42.73,13.4944,1.0,1.0,1.0
42.74,9.5056,1.0,1.0,1.0
42.75,7.0,1.0,1.0,1.0
42.76,16.0,1.0,1.0,1.0
42.77,16.0,1.0,1.0,1.0
42.78,0.0,1.0,1.0,1.0
42.79,14.0,1.0,1.0,1.0
42.8,11.0,1.0,1.0,1.0
42.81,7.0,1.0,1.0,1.0
42.82,11.0,1.0,1.0,1.0
42.83,9.4944,1.0,1.0,1.0
42.84,13.5056,1.0,1.0,1.0
42.85,21.0,1.0,1.0,1.0
42.86,24.4944,1.0,1.0,1.0
42.87,20.5056,1.0,1.0,1.0
42.88,22.4944,1.0,1.0,1.0
42.89,12.5056,1.0,1.0,1.0
42.9,12.0,1.0,1.0,1.0
42.91,11.4944,1.0,1.0,1.0
42.92,14.5056,1.0,1.0,1.0
42.93,8.0,1.0,1.0,1.0
42.94,8.0,1.0,1.0,1.0
42.95,24.0,1.0,1.0,1.0
42.96,18.0,1.0,1.0,1.0
42.97,25.4944,1.0,1.0,1.0
42.98,15.0,1.0,1.0,1.0
42.99,17.5056,1.0,1.0,1.0
43.0,22.0,1.0,1.0,1.0
43.01,17.0,1.0,1.0,1.0
43.02,24.0,1.0,1.0,1.0
43.03,17.0,1.0,1.0,1.0
43.04,29.0,1.0,1.0,1.0
43.05,12.0,1.0,1.0,1.0
43.06,20.4944,1.0,1.0,1.0
43.07,34.5056,1.0,1.0,1.0
43.08,25.0,1.0,1.0,1.0
43.09,15.4944,1.0,1.0,1.0
43.1,25.0,1.0,1.0,1.0
43.11,27.5056,1.0,1.0,1.0
43.12,23.0,1.0,1.0,1.0
43.13,23.0,1.0,1.0,1.0
43.14,34.0,1.0,1.0,1.0
43.15,27.4944,1.0,1.0,1.0
43.16,20.5056,1.0,1.0,1.0
43.17,26.4944,1.0,1.0,1.0
43.18,42.0,1.0,1.0,1.0
43.19,16.5056,1.0,1.0,1.0
43.2,16.0,1.0,1.0,1.0
43.21,19.0,1.0,1.0,1.0
43.22,26.0,1.0,1.0,1.0
43.23,28.0,1.0,1.0,1.0
43.24,14.4944,1.0,1.0,1.0
43.25,25.5056,1.0,1.0,1.0
43.26,22.0,1.0,1.0,1.0
43.27,25.4944,1.0,1.0,1.0
43.28,16.5056,1.0,1.0,1.0
43.29,28.0,1.0,1.0,1.0
43.3,19.9889,1.0,1.0,1.0
43.31,31.0111,1.0,1.0,1.0
43.32,22.0,1.0,1.0,1.0
43.33,10.0,1.0,1.0,1.0
43.34,24.0,1.0,1.0,1.0
43.35,23.4944,1.0,1.0,1.0
43.36,10.5056,1.0,1.0,1.0
43.37,24.0,1.0,1.0,1.0
43.38,16.0,1.0,1.0,1.0
43.39,35.0,1.0,1.0,1.0
43.4,13.0,1.0,1.0,1.0
43.41,15.4944,1.0,1.0,1.0
43.42,14.5056,1.0,1.0,1.0
43.43,13.4944,1.0,1.0,1.0
43.44,22.5056,1.0,1.0,1.0
43.45,7.0,1.0,1.0,1.0
43.46,10.0,1.0,1.0,1.0
43.47,24.0,1.0,1.0,1.0
43.48,12.0,1.0,1.0,1.0
43.49,10.0,1.0,1.0,1.0
43.5,8.0,1.0,1.0,1.0
43.51,16.4944,1.0,1.0,1.0
43.52,11.5056,1.0,1.0,1.0
43.53,18.0,1.0,1.0,1.0
43.54,13.0,1.0,1.0,1.0
43.55,14.0,1.0,1.0,1.0
43.56,19.0,1.0,1.0,1.0
43.57,7.0,1.0,1.0,1.0
43.58,12.0,1.0,1.0,1.0
43.59,14.0,1.0,1.0,1.0
43.6,17.0,1.0,1.0,1.0
43.61,22.0,1.0,1.0,1.0
43.62,20.0,1.0,1.0,1.0
43.63,20.0,1.0,1.0,1.0
43.64,30.0,1.0,1.0,1.0
43.65,17.0,1.0,1.0,1.0
43.66,14.0,1.0,1.0,1.0
43.67,26.0,1.0,1.0,1.0
43.68,22.4944,1.0,1.0,1.0
43.69,35.0,1.0,1.0,1.0
43.7,31.0,1.0,1.0,1.0
43.71,23.5056,1.0,1.0,1.0
43.72,26.9889,1.0,1.0,1.0
43.73,41.0111,1.0,1.0,1.0
43.74,34.0,1.0,1.0,1.0
43.75,20.0,1.0,1.0,1.0
43.76,31.0,1.0,1.0,1.0
43.77,36.4944,1.0,1.0,1.0
43.78,42.5056,1.0,1.0,1.0
43.79,45.9889,1.0,1.0,1.0
43.8,43.5056,1.0,1.0,1.0
43.81,47.4944,1.0,1.0,1.0
43.82,36.0111,1.0,1.0,1.0
43.83,49.0,1.0,1.0,1.0
43.84,45.4944,1.0,1.0,1.0
43.85,44.5056,1.0,1.0,1.0
43.86,60.9889,1.0,1.0,1.0
43.87,45.5056,1.0,1.0,1.0
43.88,58.5056,1.0,1.0,1.0
43.89,55.0,1.0,1.0,1.0
43.9,59.0,1.0,1.0,1.0
43.91,46.0,1.0,1.0,1.0
43.92,65.0,1.0,1.0,1.0
43.93,56.9889,1.0,1.0,1.0
43.94,60.5056,1.0,1.0,1.0
43.95,53.0,1.0,1.0,1.0
43.96,53.4944,1.0,1.0,1.0
43.97,49.0111,1.0,1.0,1.0
43.98,59.0,1.0,1.0,1.0
43.99,57.0,1.0,1.0,1.0
44.0,40.0,1.0,1.0,1.0
44.01,54.9889,1.0,1.0,1.0
44.02,52.0111,1.0,1.0,1.0
44.03,61.4944,1.0,1.0,1.0
44.04,41.4944,1.0,1.0,1.0
44.05,36.0111,1.0,1.0,1.0
44.06,37.0,1.0,1.0,1.0
44.07,35.0,1.0,1.0,1.0
44.08,35.9889,1.0,1.0,1.0
44.09,32.5056,1.0,1.0,1.0
44.1,36.5056,1.0,1.0,1.0
44.11,35.0,1.0,1.0,1.0
44.12,27.4944,1.0,1.0,1.0
44.13,30.5056,1.0,1.0,1.0
44.14,18.0,1.0,1.0,1.0
44.15,19.4944,1.0,1.0,1.0
44.16,19.0,1.0,1.0,1.0
44.17,27.5056,1.0,1.0,1.0
44.18,28.0,1.0,1.0,1.0
44.19,12.0,1.0,1.0,1.0
44.2,28.0,1.0,1.0,1.0
44.21,23.9889,1.0,1.0,1.0
44.22,18.0111,1.0,1.0,1.0
44.23,8.9889,1.0,1.0,1.0
44.24,13.0,1.0,1.0,1.0
44.25,28.0111,1.0,1.0,1.0
44.26,14.0,1.0,1.0,1.0
44.27,33.0,1.0,1.0,1.0
44.28,16.0,1.0,1.0,1.0
44.29,17.0,1.0,1.0,1.0
44.3,13.0,1.0,1.0,1.0
44.31,24.0,1.0,1.0,1.0
44.32,23.0,1.0,1.0,1.0
44.33,17.4944,1.0,1.0,1.0
44.34,13.5056,1.0,1.0,1.0
44.35,11.0,1.0,1.0,1.0
44.36,28.0,1.0,1.0,1.0
44.37,25.0,1.0,1.0,1.0
44.38,26.4944,1.0,1.0,1.0
44.39,36.5056,1.0,1.0,1.0
44.4,23.9889,1.0,1.0,1.0
44.41,55.5056,1.0,1.0,1.0
44.42,56.9889,1.0,1.0,1.0
44.43,48.0,1.0,1.0,1.0
44.44,28.0111,1.0,1.0,1.0
44.45,55.5056,1.0,1.0,1.0
44.46,39.9889,1.0,1.0,1.0
44.47,69.5056,1.0,1.0,1.0
44.48,57.0,1.0,1.0,1.0
44.49,58.4944,1.0,1.0,1.0
44.5,59.5056,1.0,1.0,1.0
44.51,68.0,1.0,1.0,1.0
44.52,58.5056,1.0,1.0,1.0
44.53,68.9778,1.0,1.0,1.0
44.54,102.5056,1.0,1.0,1.0
44.55,97.0111,1.0,1.0,1.0
44.56,68.4944,1.0,1.0,1.0
44.57,83.0,1.0,1.0,1.0
44.58,97.0,1.0,1.0,1.0
44.59,116.0,1.0,1.0,1.0
44.6,101.9889,1.0,1.0,1.0
44.61,88.0,1.0,1.0,1.0
44.62,105.5056,1.0,1.0,1.0
44.63,97.0,1.0,1.0,1.0
44.64,107.0111,1.0,1.0,1.0
44.65,111.4944,1.0,1.0,1.0
44.66,107.0111,1.0,1.0,1.0
44.67,130.4833,1.0,1.0,1.0
44.68,110.5056,1.0,1.0,1.0
44.69,116.9889,1.0,1.0,1.0
44.7,121.0,1.0,1.0,1.0
44.71,111.0222,1.0,1.0,1.0
44.72,102.4833,1.0,1.0,1.0
44.73,111.0,1.0,1.0,1.0
44.74,89.5056,1.0,1.0,1.0
44.75,128.0,1.0,1.0,1.0
44.76,101.0111,1.0,1.0,1.0
44.77,111.9778,1.0,1.0,1.0
44.78,101.5167,1.0,1.0,1.0
44.79,87.9778,1.0,1.0,1.0
44.8,106.0222,1.0,1.0,1.0
44.81,64.5056,1.0,1.0,1.0
44.82,97.9889,1.0,1.0,1.0
44.83,87.4944,1.0,1.0,1.0
44.84,72.5056,1.0,1.0,1.0
44.85,55.5056,1.0,1.0,1.0
44.86,81.5056,1.0,1.0,1.0
44.87,63.4944,1.0,1.0,1.0
44.88,62.4944,1.0,1.0,1.0
44.89,59.5056,1.0,1.0,1.0
44.9,37.0,1.0,1.0,1.0
44.91,47.0,1.0,1.0,1.0
44.92,42.5056,1.0,1.0,1.0
44.93,59.0,1.0,1.0,1.0
44.94,56.9889,1.0,1.0,1.0
44.95,42.5056,1.0,1.0,1.0
44.96,21.5056,1.0,1.0,1.0
44.97,43.4944,1.0,1.0,1.0
44.98,30.5056,1.0,1.0,1.0
44.99,39.0,1.0,1.0,1.0
45.0,18.0,1.0,1.0,1.0
45.01,24.0,1.0,1.0,1.0
45.02,26.4833,1.0,1.0,1.0
45.03,33.0111,1.0,1.0,1.0
45.04,34.5056,1.0,1.0,1.0
45.05,20.4944,1.0,1.0,1.0
45.06,41.0,1.0,1.0,1.0
45.07,20.5056,1.0,1.0,1.0
45.08,22.0,1.0,1.0,1.0
45.09,34.0,1.0,1.0,1.0
45.1,39.0,1.0,1.0,1.0
45.11,42.0,1.0,1.0,1.0
45.12,42.9889,1.0,1.0,1.0
45.13,46.5056,1.0,1.0,1.0
45.14,47.0,1.0,1.0,1.0
45.15,84.5056,1.0,1.0,1.0
45.16,76.4722,1.0,1.0,1.0
45.17,79.0111,1.0,1.0,1.0
45.18,94.5056,1.0,1.0,1.0
45.19,97.0,1.0,1.0,1.0
45.2,104.4944,1.0,1.0,1.0
45.21,100.0,1.0,1.0,1.0
45.22,108.5167,1.0,1.0,1.0
45.23,121.9889,1.0,1.0,1.0
45.24,140.5056,1.0,1.0,1.0
45.25,161.4944,1.0,1.0,1.0
45.26,156.4833,1.0,1.0,1.0
45.27,155.0222,1.0,1.0,1.0
45.28,178.0,1.0,1.0,1.0
45.29,160.9778,1.0,1.0,1.0
45.3,196.0111,1.0,1.0,1.0
45.31,182.9778,1.0,1.0,1.0
45.32,218.0222,1.0,1.0,1.0
45.33,254.0,1.0,1.0,1.0
45.34,232.4944,1.0,1.0,1.0
45.35,285.9556,1.0,1.0,1.0
45.36,244.0444,1.0,1.0,1.0
45.37,247.0111,1.0,1.0,1.0
45.38,244.5056,1.0,1.0,1.0
45.39,228.4833,1.0,1.0,1.0
45.4,266.5056,1.0,1.0,1.0
45.41,224.9778,1.0,1.0,1.0
45.42,284.4944,1.0,1.0,1.0
45.43,252.0111,1.0,1.0,1.0
45.44,284.4944,1.0,1.0,1.0
45.45,261.0,1.0,1.0,1.0
45.46,276.0222,1.0,1.0,1.0
45.47,272.9889,1.0,1.0,1.0
45.48,245.0111,1.0,1.0,1.0
45.49,264.9778,1.0,1.0,1.0
45.5,267.0111,1.0,1.0,1.0
45.51,237.4944,1.0,1.0,1.0
45.52,250.5056,1.0,1.0,1.0
45.53,200.0111,1.0,1.0,1.0
45.54,198.0111,1.0,1.0,1.0
45.55,176.0,1.0,1.0,1.0
45.56,200.9778,1.0,1.0,1.0
45.57,186.9778,1.0,1.0,1.0
45.58,171.5389,1.0,1.0,1.0
45.59,157.9889,1.0,1.0,1.0
45.6,171.0111,1.0,1.0,1.0
45.61,171.4944,1.0,1.0,1.0
45.62,148.0111,1.0,1.0,1.0
45.63,147.9778,1.0,1.0,1.0
45.64,146.0,1.0,1.0,1.0
45.65,121.5167,1.0,1.0,1.0
45.66,108.9889,1.0,1.0,1.0
45.67,115.5167,1.0,1.0,1.0
45.68,114.5056,1.0,1.0,1.0
45.69,93.4833,1.0,1.0,1.0
45.7,113.0,1.0,1.0,1.0
45.71,88.0111,1.0,1.0,1.0
45.72,95.0,1.0,1.0,1.0
45.73,93.4833,1.0,1.0,1.0
45.74,117.5056,1.0,1.0,1.0
45.75,121.0111,1.0,1.0,1.0
45.76,161.9778,1.0,1.0,1.0
45.77,190.4944,1.0,1.0,1.0
45.78,195.0,1.0,1.0,1.0
45.79,195.5278,1.0,1.0,1.0
45.8,253.0,1.0,1.0,1.0
45.81,277.4833,1.0,1.0,1.0
45.82,340.9556,1.0,1.0,1.0
45.83,363.5167,1.0,1.0,1.0
45.84,433.0222,1.0,1.0,1.0
45.85,475.4833,1.0,1.0,1.0
45.86,584.0,1.0,1.0,1.0
45.87,698.9222,1.0,1.0,1.0
45.88,689.5167,1.0,1.0,1.0
45.89,796.4944,1.0,1.0,1.0
45.9,888.0,1.0,1.0,1.0
45.91,999.9889,1.0,1.0,1.0
45.92,1108.0,1.0,1.0,1.0
45.93,1262.49,1.0,1.0,1.0
45.94,1401.93,1.0,1.0,1.0
45.95,1523.54,1.0,1.0,1.0
45.96,1722.48,1.0,1.0,1.0
45.97,1825.01,1.0,1.0,1.0
45.98,2011.41,1.0,1.0,1.0
45.99,2314.99,1.0,1.0,1.0
46.0,2407.45,1.0,1.0,1.0
46.01,2460.06,1.0,1.0,1.0
46.02,2760.92,1.0,1.0,1.0
46.03,3131.04,1.0,1.0,1.0
46.04,3432.439,1.0,1.0,1.0
46.05,3584.35,1.0,1.0,1.0
46.06,3860.52,1.0,1.0,1.0
46.07,4137.53,1.0,1.0,1.0
46.08,4567.48,1.0,1.0,1.0
46.09,4811.37,1.0,1.0,1.0
46.1,5276.03,1.0,1.0,1.0
46.11,5644.47,1.0,1.0,1.0
46.12,5979.34,1.0,1.0,1.0
46.13,6485.45,1.0,1.0,1.0
46.14,6849.1,1.0,1.0,1.0
46.15,7249.39,1.0,1.0,1.0
46.16,7724.34,1.0,1.0,1.0
46.17,8384.1,1.0,1.0,1.0
46.18,8940.21,1.0,1.0,1.0
46.19,9663.01,1.0,1.0,1.0
46.2,10204.6,1.0,1.0,1.0
46.21,11038.8,1.0,1.0,1.0
46.22,11710.9,1.0,1.0,1.0
46.23,12626.833,1.0,1.0,1.0
46.24,13424.583,1.0,1.0,1.0
46.25,14526.7,1.0,1.0,1.0
46.26,15545,1.0,1.0,1.0
46.27,16600.6,1.0,1.0,1.0
46.28,18092.877,1.0,1.0,1.0
46.29,19694.4,1.0,1.0,1.0
46.3,21462.7,1.0,1.0,1.0
46.31,23188.4,1.0,1.0,1.0
46.32,25820.8,1.0,1.0,1.0
46.33,28863.8,1.0,1.0,1.0
46.34,33206.8,1.0,1.0,1.0
46.35,38661.1,1.0,1.0,1.0
46.36,46488.9,1.0,1.0,1.0
46.37,58023.1,1.0,1.0,1.0
46.38,75592.2,1.0,1.0,1.0
46.39,99709.1,1.0,1.0,1.0
46.4,134874,1.0,1.0,1.0
46.41,185175.375,1.0,1.0,1.0
46.42,265251.375,1.0,1.0,1.0
46.43,411495,1.0,1.0,1.0
46.44,670357.0,1.0,1.0,1.0
46.45,1599192.0,1.0,1.0,1.0
46.46,13656312.0,1.0,1.0,1.0
46.47,21923370.0,1.0,1.0,1.0
46.48,22129034.0,1.0,1.0,1.0
46.49,23198100.0,1.0,1.0,1.0
46.5,6831727.0,1.0,1.0,1.0
46.51,1117184.75,1.0,1.0,1.0
46.52,497895,1.0,1.0,1.0
46.53,286818,1.0,1.0,1.0
46.54,185999.75,1.0,1.0,1.0
46.55,117731,1.0,1.0,1.0
46.56,76540.4,1.0,1.0,1.0
46.57,50627.9,1.0,1.0,1.0
46.58,33671.707,1.0,1.0,1.0
46.59,22281.377,1.0,1.0,1.0
46.6,15210,1.0,1.0,1.0
46.61,10933.4,1.0,1.0,1.0
46.62,8102.23,1.0,1.0,1.0
46.63,6565.96,1.0,1.0,1.0
46.64,5432.189,1.0,1.0,1.0
46.65,4522.02,1.0,1.0,1.0
46.66,3870.58,1.0,1.0,1.0
46.67,3584.62,1.0,1.0,1.0
46.68,3192.439,1.0,1.0,1.0
46.69,3076.97,1.0,1.0,1.0
46.7,2923.64,1.0,1.0,1.0
46.71,2744.03,1.0,1.0,1.0
46.72,2658.439,1.0,1.0,1.0
46.73,2658.06,1.0,1.0,1.0
46.74,2537.43,1.0,1.0,1.0
46.75,2461.02,1.0,1.0,1.0
46.76,2433.04,1.0,1.0,1.0
46.77,2420.51,1.0,1.0,1.0
46.78,2367.0,1.0,1.0,1.0
46.79,2279.0,1.0,1.0,1.0
46.8,2183.02,1.0,1.0,1.0
46.81,2020.49,1.0,1.0,1.0
46.82,2114.94,1.0,1.0,1.0
46.83,2050.55,1.0,1.0,1.0
46.84,2044.48,1.0,1.0,1.0
46.85,2032.53,1.0,1.0,1.0
46.86,1970.04,1.0,1.0,1.0
46.87,1890.49,1.0,1.0,1.0
46.88,1875.49,1.0,1.0,1.0
46.89,1778.96,1.0,1.0,1.0
46.9,1658.1,1.0,1.0,1.0
46.91,1584.0,1.0,1.0,1.0
46.92,1516.01,1.0,1.0,1.0
46.93,1504.48,1.0,1.0,1.0
46.94,1409.48,1.0,1.0,1.0
46.95,1411.51,1.0,1.0,1.0
46.96,1310.0,1.0,1.0,1.0
46.97,1242.52,1.0,1.0,1.0
46.98,1197.51,1.0,1.0,1.0
46.99,1125.46,1.0,1.0,1.0
47.0,1066.57,1.0,1.0,1.0
47.01,1019.53,1.0,1.0,1.0
47.02,976.9556,1.0,1.0,1.0
47.03,916.9889,1.0,1.0,1.0
47.04,879.0667,1.0,1.0,1.0
47.05,768.4722,1.0,1.0,1.0
47.06,684.5278,1.0,1.0,1.0
47.07,729.9778,1.0,1.0,1.0
47.08,605.0222,1.0,1.0,1.0
47.09,547.0,1.0,1.0,1.0
47.1,559.9778,1.0,1.0,1.0
47.11,516.0222,1.0,1.0,1.0
47.12,486.0,1.0,1.0,1.0
47.13,381.5278,1.0,1.0,1.0
47.14,423.4722,1.0,1.0,1.0
47.15,313.5389,1.0,1.0,1.0
47.16,321.0,1.0,1.0,1.0
47.17,251.0,1.0,1.0,1.0
47.18,260.4722,1.0,1.0,1.0
47.19,232.5278,1.0,1.0,1.0
47.2,215.4722,1.0,1.0,1.0
47.21,182.0333,1.0,1.0,1.0
47.22,146.0,1.0,1.0,1.0
47.23,139.9778,1.0,1.0,1.0
47.24,124.0222,1.0,1.0,1.0
47.25,103.0,1.0,1.0,1.0
47.26,102.0,1.0,1.0,1.0
47.27,64.5056,1.0,1.0,1.0
47.28,79.4944,1.0,1.0,1.0
47.29,61.0111,1.0,1.0,1.0
47.3,52.4944,1.0,1.0,1.0
47.31,60.9889,1.0,1.0,1.0
47.32,67.0111,1.0,1.0,1.0
47.33,42.0,1.0,1.0,1.0
47.34,55.9889,1.0,1.0,1.0
47.35,50.5167,1.0,1.0,1.0
47.36,53.0,1.0,1.0,1.0
47.37,43.0,1.0,1.0,1.0
47.38,45.0,1.0,1.0,1.0
47.39,66.9889,1.0,1.0,1.0
47.4,73.0,1.0,1.0,1.0
47.41,61.0,1.0,1.0,1.0
47.42,75.5056,1.0,1.0,1.0
47.43,57.5056,1.0,1.0,1.0
47.44,92.4944,1.0,1.0,1.0
47.45,87.4833,1.0,1.0,1.0
47.46,111.0,1.0,1.0,1.0
47.47,110.5056,1.0,1.0,1.0
47.48,106.5056,1.0,1.0,1.0
47.49,106.0,1.0,1.0,1.0
47.5,118.9889,1.0,1.0,1.0
47.51,112.0111,1.0,1.0,1.0
47.52,138.4944,1.0,1.0,1.0
47.53,131.4944,1.0,1.0,1.0
47.54,143.0,1.0,1.0,1.0
47.55,131.5056,1.0,1.0,1.0
47.56,140.9889,1.0,1.0,1.0
47.57,162.0111,1.0,1.0,1.0
47.58,152.4944,1.0,1.0,1.0
47.59,144.5056,1.0,1.0,1.0
47.6,134.9889,1.0,1.0,1.0
47.61,138.0,1.0,1.0,1.0
47.62,152.0111,1.0,1.0,1.0
47.63,149.5056,1.0,1.0,1.0
47.64,150.0,1.0,1.0,1.0
47.65,164.4944,1.0,1.0,1.0
47.66,158.0111,1.0,1.0,1.0
47.67,170.4944,1.0,1.0,1.0
47.68,162.9778,1.0,1.0,1.0
47.69,160.0222,1.0,1.0,1.0
47.7,145.0111,1.0,1.0,1.0
47.71,139.9889,1.0,1.0,1.0
47.72,143.9889,1.0,1.0,1.0
47.73,170.9889,1.0,1.0,1.0
47.74,136.0222,1.0,1.0,1.0
47.75,122.5056,1.0,1.0,1.0
47.76,122.0,1.0,1.0,1.0
47.77,142.9778,1.0,1.0,1.0
47.78,99.5278,1.0,1.0,1.0
47.79,102.0,1.0,1.0,1.0
47.8,101.0,1.0,1.0,1.0
47.81,87.4833,1.0,1.0,1.0
47.82,90.0,1.0,1.0,1.0
47.83,92.0111,1.0,1.0,1.0
47.84,80.0,1.0,1.0,1.0
47.85,77.0,1.0,1.0,1.0
47.86,46.5056,1.0,1.0,1.0
47.87,80.4944,1.0,1.0,1.0
47.88,51.5056,1.0,1.0,1.0
47.89,51.0,1.0,1.0,1.0
47.9,54.0,1.0,1.0,1.0
47.91,46.0,1.0,1.0,1.0
47.92,45.0,1.0,1.0,1.0
47.93,37.4944,1.0,1.0,1.0
47.94,41.5056,1.0,1.0,1.0
47.95,30.4944,1.0,1.0,1.0
47.96,39.5056,1.0,1.0,1.0
47.97,35.0,1.0,1.0,1.0
47.98,30.4944,1.0,1.0,1.0
47.99,30.0,1.0,1.0,1.0
48.0,25.5056,1.0,1.0,1.0
48.01,25.0,1.0,1.0,1.0
48.02,32.0,1.0,1.0,1.0
48.03,18.9889,1.0,1.0,1.0
48.04,29.0111,1.0,1.0,1.0
48.05,22.0,1.0,1.0,1.0
48.06,7.0,1.0,1.0,1.0
48.07,12.0,1.0,1.0,1.0
48.08,13.0,1.0,1.0,1.0
48.09,12.4944,1.0,1.0,1.0
48.1,19.5056,1.0,1.0,1.0
48.11,10.0,1.0,1.0,1.0
48.12,15.9889,1.0,1.0,1.0
48.13,18.0111,1.0,1.0,1.0
48.14,21.0,1.0,1.0,1.0
48.15,14.0,1.0,1.0,1.0
48.16,7.4944,1.0,1.0,1.0
48.17,11.5056,1.0,1.0,1.0
48.18,24.0,1.0,1.0,1.0
48.19,21.0,1.0,1.0,1.0
48.2,18.4944,1.0,1.0,1.0
48.21,22.0,1.0,1.0,1.0
48.22,16.5056,1.0,1.0,1.0
48.23,32.0,1.0,1.0,1.0
48.24,43.0,1.0,1.0,1.0
48.25,35.4944,1.0,1.0,1.0
48.26,39.5056,1.0,1.0,1.0
48.27,36.4944,1.0,1.0,1.0
48.28,30.5056,1.0,1.0,1.0
48.29,43.0,1.0,1.0,1.0
48.3,64.0,1.0,1.0,1.0
48.31,37.9889,1.0,1.0,1.0
48.32,38.0111,1.0,1.0,1.0
48.33,31.4944,1.0,1.0,1.0
48.34,42.0,1.0,1.0,1.0
48.35,52.0,1.0,1.0,1.0
48.36,67.0,1.0,1.0,1.0
48.37,35.4944,1.0,1.0,1.0
48.38,36.0111,1.0,1.0,1.0
48.39,42.4944,1.0,1.0,1.0
48.4,33.9889,1.0,1.0,1.0
48.41,55.0111,1.0,1.0,1.0
48.42,28.5056,1.0,1.0,1.0
48.43,29.0,1.0,1.0,1.0
48.44,42.0,1.0,1.0,1.0
48.45,53.0,1.0,1.0,1.0
48.46,46.4944,1.0,1.0,1.0
48.47,50.0,1.0,1.0,1.0
48.48,53.0,1.0,1.0,1.0
48.49,37.5056,1.0,1.0,1.0
48.5,23.4944,1.0,1.0,1.0
48.51,40.5056,1.0,1.0,1.0
48.52,40.4944,1.0,1.0,1.0
48.53,31.0,1.0,1.0,1.0
48.54,51.5056,1.0,1.0,1.0
48.55,38.4944,1.0,1.0,1.0
48.56,37.5056,1.0,1.0,1.0
48.57,29.0,1.0,1.0,1.0
48.58,23.0,1.0,1.0,1.0
48.59,22.0,1.0,1.0,1.0
48.6,31.0,1.0,1.0,1.0
48.61,14.9889,1.0,1.0,1.0
48.62,24.0111,1.0,1.0,1.0
48.63,28.4944,1.0,1.0,1.0
48.64,22.5056,1.0,1.0,1.0
48.65,33.4944,1.0,1.0,1.0
48.66,17.5056,1.0,1.0,1.0
48.67,22.4944,1.0,1.0,1.0
48.68,20.5056,1.0,1.0,1.0
48.69,16.0,1.0,1.0,1.0
48.7,5.0,1.0,1.0,1.0
48.71,15.0,1.0,1.0,1.0
48.72,16.0,1.0,1.0,1.0
48.73,24.0,1.0,1.0,1.0
48.74,15.0,1.0,1.0,1.0
48.75,16.0,1.0,1.0,1.0
48.76,21.0,1.0,1.0,1.0
48.77,7.4944,1.0,1.0,1.0
48.78,10.5056,1.0,1.0,1.0
48.79,8.0,1.0,1.0,1.0
48.8,10.0,1.0,1.0,1.0
48.81,2.0,1.0,1.0,1.0
48.82,10.0,1.0,1.0,1.0
48.83,10.4944,1.0,1.0,1.0
48.84,8.5056,1.0,1.0,1.0
48.85,10.0,1.0,1.0,1.0
48.86,7.0,1.0,1.0,1.0
48.87,8.4944,1.0,1.0,1.0
48.88,3.5056,1.0,1.0,1.0
48.89,3.0,1.0,1.0,1.0
48.9,5.0,1.0,1.0,1.0
48.91,16.0,1.0,1.0,1.0
48.92,20.4944,1.0,1.0,1.0
48.93,18.5056,1.0,1.0,1.0
48.94,10.0,1.0,1.0,1.0
48.95,19.0,1.0,1.0,1.0
48.96,16.4944,1.0,1.0,1.0
48.97,10.5056,1.0,1.0,1.0
48.98,6.0,1.0,1.0,1.0
48.99,8.0,1.0,1.0,1.0
49.0,10.0,1.0,1.0,1.0
49.01,14.0,1.0,1.0,1.0
49.02,7.0,1.0,1.0,1.0
49.03,9.0,1.0,1.0,1.0
49.04,8.0,1.0,1.0,1.0
49.05,24.0,1.0,1.0,1.0
49.06,21.9889,1.0,1.0,1.0
49.07,11.0111,1.0,1.0,1.0
49.08,6.4944,1.0,1.0,1.0
49.09,21.5056,1.0,1.0,1.0
49.1,7.4944,1.0,1.0,1.0
49.11,14.5056,1.0,1.0,1.0
49.12,7.0,1.0,1.0,1.0
49.13,11.0,1.0,1.0,1.0
49.14,16.4944,1.0,1.0,1.0
49.15,11.4944,1.0,1.0,1.0
49.16,19.0111,1.0,1.0,1.0
49.17,22.0,1.0,1.0,1.0
49.18,14.0,1.0,1.0,1.0
49.19,8.0,1.0,1.0,1.0
49.2,23.0,1.0,1.0,1.0
49.21,16.0,1.0,1.0,1.0
49.22,14.9889,1.0,1.0,1.0
49.23,12.0111,1.0,1.0,1.0
49.24,26.0,1.0,1.0,1.0
49.25,15.4944,1.0,1.0,1.0
49.26,18.5056,1.0,1.0,1.0
49.27,15.0,1.0,1.0,1.0
49.28,23.9889,1.0,1.0,1.0
49.29,15.0111,1.0,1.0,1.0
49.3,17.0,1.0,1.0,1.0
49.31,17.0,1.0,1.0,1.0
49.32,17.0,1.0,1.0,1.0
49.33,14.0,1.0,1.0,1.0
49.34,12.4944,1.0,1.0,1.0
49.35,13.5056,1.0,1.0,1.0
49.36,19.0,1.0,1.0,1.0
49.37,14.0,1.0,1.0,1.0
49.38,10.0,1.0,1.0,1.0
49.39,13.0,1.0,1.0,1.0
49.4,18.0,1.0,1.0,1.0
49.41,10.0,1.0,1.0,1.0
49.42,5.0,1.0,1.0,1.0
49.43,19.0,1.0,1.0,1.0
49.44,10.0,1.0,1.0,1.0
49.45,10.0,1.0,1.0,1.0
49.46,17.4944,1.0,1.0,1.0
49.47,9.5056,1.0,1.0,1.0
49.48,3.0,1.0,1.0,1.0
49.49,13.0,1.0,1.0,1.0
49.5,2.0,1.0,1.0,1.0
49.51,14.0,1.0,1.0,1.0
49.52,7.0,1.0,1.0,1.0
49.53,9.0,1.0,1.0,1.0
49.54,2.0,1.0,1.0,1.0
49.55,9.0,1.0,1.0,1.0
49.56,4.0,1.0,1.0,1.0
49.57,17.0,1.0,1.0,1.0
49.58,5.0,1.0,1.0,1.0
49.59,5.0,1.0,1.0,1.0
49.6,5.0,1.0,1.0,1.0
49.61,4.0,1.0,1.0,1.0
49.62,6.4944,1.0,1.0,1.0
49.63,4.5056,1.0,1.0,1.0
49.64,11.0,1.0,1.0,1.0
49.65,7.0,1.0,1.0,1.0
49.66,5.0,1.0,1.0,1.0
49.67,7.4944,1.0,1.0,1.0
49.68,6.4944,1.0,1.0,1.0
49.69,7.0111,1.0,1.0,1.0
49.7,4.0,1.0,1.0,1.0
49.71,2.0,1.0,1.0,1.0
49.72,9.0,1.0,1.0,1.0
49.73,17.0,1.0,1.0,1.0
49.74,4.0,1.0,1.0,1.0
49.75,4.0,1.0,1.0,1.0
49.76,8.0,1.0,1.0,1.0
49.77,11.0,1.0,1.0,1.0
49.78,7.4944,1.0,1.0,1.0
49.79,7.5056,1.0,1.0,1.0
49.8,13.4944,1.0,1.0,1.0
49.81,6.5056,1.0,1.0,1.0
49.82,7.0,1.0,1.0,1.0
49.83,8.0,1.0,1.0,1.0
49.84,6.0,1.0,1.0,1.0
49.85,9.0,1.0,1.0,1.0
49.86,10.4944,1.0,1.0,1.0
49.87,3.5056,1.0,1.0,1.0
49.88,2.0,1.0,1.0,1.0
49.89,7.0,1.0,1.0,1.0
49.9,10.0,1.0,1.0,1.0
49.91,0.0,1.0,1.0,1.0
49.92,12.0,1.0,1.0,1.0
49.93,11.0,1.0,1.0,1.0
49.94,7.0,1.0,1.0,1.0
49.95,11.4944,1.0,1.0,1.0
49.96,12.0,1.0,1.0,1.0
49.97,11.5056,1.0,1.0,1.0
49.98,10.0,1.0,1.0,1.0
49.99,5.0,1.0,1.0,1.0
50.0,2.0,1.0,1.0,1.0
50.01,9.0,1.0,1.0,1.0
50.02,6.4944,1.0,1.0,1.0
50.03,6.5056,1.0,1.0,1.0
50.04,7.0,1.0,1.0,1.0
50.05,3.4944,1.0,1.0,1.0
50.06,13.5056,1.0,1.0,1.0
50.07,25.0,1.0,1.0,1.0
50.08,6.0,1.0,1.0,1.0
50.09,13.0,1.0,1.0,1.0
50.1,0.0,1.0,1.0,1.0
50.11,14.0,1.0,1.0,1.0
50.12,3.0,1.0,1.0,1.0
50.13,8.0,1.0,1.0,1.0
50.14,6.0,1.0,1.0,1.0
50.15,8.0,1.0,1.0,1.0
50.16,14.0,1.0,1.0,1.0
50.17,4.4944,1.0,1.0,1.0
50.18,9.5056,1.0,1.0,1.0
50.19,12.0,1.0,1.0,1.0
50.2,6.4944,1.0,1.0,1.0
50.21,13.5056,1.0,1.0,1.0
50.22,7.0,1.0,1.0,1.0
50.23,4.0,1.0,1.0,1.0
50.24,2.0,1.0,1.0,1.0
50.25,2.0,1.0,1.0,1.0
50.26,8.0,1.0,1.0,1.0
50.27,7.0,1.0,1.0,1.0
50.28,6.0,1.0,1.0,1.0
50.29,8.0,1.0,1.0,1.0
50.3,5.0,1.0,1.0,1.0
50.31,4.0,1.0,1.0,1.0
50.32,7.4944,1.0,1.0,1.0
50.33,2.5056,1.0,1.0,1.0
50.34,7.0,1.0,1.0,1.0
50.35,4.4944,1.0,1.0,1.0
50.36,6.0,1.0,1.0,1.0
50.37,11.5056,1.0,1.0,1.0
50.38,6.0,1.0,1.0,1.0
50.39,6.0,1.0,1.0,1.0
50.4,12.0,1.0,1.0,1.0
50.41,4.0,1.0,1.0,1.0
50.42,11.0,1.0,1.0,1.0
50.43,3.0,1.0,1.0,1.0
50.44,5.0,1.0,1.0,1.0
50.45,4.0,1.0,1.0,1.0
50.46,9.0,1.0,1.0,1.0
50.47,12.0,1.0,1.0,1.0
50.48,7.0,1.0,1.0,1.0
50.49,2.0,1.0,1.0,1.0
50.5,10.0,1.0,1.0,1.0
50.51,3.0,1.0,1.0,1.0
50.52,3.0,1.0,1.0,1.0
50.53,0.0,1.0,1.0,1.0
50.54,3.0,1.0,1.0,1.0
50.55,3.0,1.0,1.0,1.0
50.56,4.0,1.0,1.0,1.0
50.57,0.0,1.0,1.0,1.0
50.58,4.0,1.0,1.0,1.0
50.59,8.0,1.0,1.0,1.0
50.6,4.0,1.0,1.0,1.0
50.61,4.0,1.0,1.0,1.0
50.62,11.0,1.0,1.0,1.0
50.63,4.0,1.0,1.0,1.0
50.64,6.4944,1.0,1.0,1.0
50.65,10.5056,1.0,1.0,1.0
50.66,1.0,1.0,1.0,1.0
50.67,11.0,1.0,1.0,1.0
50.68,9.0,1.0,1.0,1.0
50.69,6.4944,1.0,1.0,1.0
50.7,4.5056,1.0,1.0,1.0
50.71,8.0,1.0,1.0,1.0
50.72,3.0,1.0,1.0,1.0
50.73,9.0,1.0,1.0,1.0
50.74,5.0,1.0,1.0,1.0
50.75,4.0,1.0,1.0,1.0
50.76,4.0,1.0,1.0,1.0
50.77,9.0,1.0,1.0,1.0
50.78,5.4944,1.0,1.0,1.0
50.79,3.5056,1.0,1.0,1.0
50.8,10.0,1.0,1.0,1.0
50.81,0.0,1.0,1.0,1.0
50.82,10.4944,1.0,1.0,1.0
50.83,0.5056,1.0,1.0,1.0
50.84,7.0,1.0,1.0,1.0
50.85,9.0,1.0,1.0,1.0
50.86,11.0,1.0,1.0,1.0
50.87,9.0,1.0,1.0,1.0
50.88,2.0,1.0,1.0,1.0
50.89,1.0,1.0,1.0,1.0
50.9,5.0,1.0,1.0,1.0
50.91,4.0,1.0,1.0,1.0
50.92,0.0,1.0,1.0,1.0
50.93,7.0,1.0,1.0,1.0
50.94,5.0,1.0,1.0,1.0
50.95,4.0,1.0,1.0,1.0
50.96,4.0,1.0,1.0,1.0
50.97,8.0,1.0,1.0,1.0
50.98,0.0,1.0,1.0,1.0
50.99,15.0,1.0,1.0,1.0
51.0,6.0,1.0,1.0,1.0
51.01,11.9889,1.0,1.0,1.0
51.02,5.0111,1.0,1.0,1.0
51.03,4.0,1.0,1.0,1.0
51.04,5.0,1.0,1.0,1.0
51.05,5.0,1.0,1.0,1.0
51.06,3.0,1.0,1.0,1.0
51.07,9.0,1.0,1.0,1.0
51.08,6.0,1.0,1.0,1.0
51.09,5.0,1.0,1.0,1.0
51.1,4.0,1.0,1.0,1.0
51.11,2.0,1.0,1.0,1.0
51.12,0.0,1.0,1.0,1.0
51.13,3.4944,1.0,1.0,1.0
51.14,7.5056,1.0,1.0,1.0
51.15,10.0,1.0,1.0,1.0
51.16,2.0,1.0,1.0,1.0
51.17,7.4944,1.0,1.0,1.0
51.18,10.5056,1.0,1.0,1.0
51.19,6.0,1.0,1.0,1.0
51.2,0.0,1.0,1.0,1.0
51.21,0.0,1.0,1.0,1.0
51.22,5.0,1.0,1.0,1.0
51.23,7.0,1.0,1.0,1.0
51.24,8.0,1.0,1.0,1.0
51.25,7.0,1.0,1.0,1.0
51.26,2.0,1.0,1.0,1.0
51.27,5.0,1.0,1.0,1.0
51.28,17.0,1.0,1.0,1.0
51.29,0.0,1.0,1.0,1.0
51.3,4.4944,1.0,1.0,1.0
51.31,6.5056,1.0,1.0,1.0
51.32,4.0,1.0,1.0,1.0
51.33,0.0,1.0,1.0,1.0
51.34,5.0,1.0,1.0,1.0
51.35,10.9889,1.0,1.0,1.0
51.36,4.0111,1.0,1.0,1.0
51.37,3.0,1.0,1.0,1.0
51.38,6.0,1.0,1.0,1.0
51.39,9.0,1.0,1.0,1.0
51.4,4.0,1.0,1.0,1.0
51.41,8.0,1.0,1.0,1.0
51.42,2.0,1.0,1.0,1.0
51.43,4.0,1.0,1.0,1.0
51.44,0.0,1.0,1.0,1.0
51.45,13.4944,1.0,1.0,1.0
51.46,2.5056,1.0,1.0,1.0
51.47,0.0,1.0,1.0,1.0
51.48,5.0,1.0,1.0,1.0
51.49,2.0,1.0,1.0,1.0
51.5,17.0,1.0,1.0,1.0
51.51,2.0,1.0,1.0,1.0
51.52,5.0,1.0,1.0,1.0
51.53,5.0,1.0,1.0,1.0
51.54,4.4944,1.0,1.0,1.0
51.55,4.5056,1.0,1.0,1.0
51.56,6.0,1.0,1.0,1.0
51.57,4.0,1.0,1.0,1.0
51.58,7.0,1.0,1.0,1.0
51.59,11.0,1.0,1.0,1.0
51.6,5.0,1.0,1.0,1.0
51.61,5.0,1.0,1.0,1.0
51.62,5.0,1.0,1.0,1.0
51.63,2.0,1.0,1.0,1.0
51.64,0.0,1.0,1.0,1.0
51.65,5.0,1.0,1.0,1.0
51.66,4.0,1.0,1.0,1.0
51.67,3.0,1.0,1.0,1.0
51.68,3.4944,1.0,1.0,1.0
51.69,0.5056,1.0,1.0,1.0
51.7,13.0,1.0,1.0,1.0
51.71,0.0,1.0,1.0,1.0
51.72,3.0,1.0,1.0,1.0
51.73,6.0,1.0,1.0,1.0
51.74,4.0,1.0,1.0,1.0
51.75,9.0,1.0,1.0,1.0
51.76,14.0,1.0,1.0,1.0
51.77,2.0,1.0,1.0,1.0
51.78,1.0,1.0,1.0,1.0
51.79,2.0,1.0,1.0,1.0
51.8,2.0,1.0,1.0,1.0
51.81,0.0,1.0,1.0,1.0
51.82,2.0,1.0,1.0,1.0
51.83,6.0,1.0,1.0,1.0
51.84,8.0,1.0,1.0,1.0
51.85,2.0,1.0,1.0,1.0
51.86,8.0,1.0,1.0,1.0
51.87,2.0,1.0,1.0,1.0
51.88,4.0,1.0,1.0,1.0
51.89,0.0,1.0,1.0,1.0
51.9,9.0,1.0,1.0,1.0
51.91,6.0,1.0,1.0,1.0
51.92,10.0,1.0,1.0,1.0
51.93,11.4944,1.0,1.0,1.0
51.94,6.5056,1.0,1.0,1.0
51.95,0.0,1.0,1.0,1.0
51.96,3.0,1.0,1.0,1.0
51.97,5.0,1.0,1.0,1.0
51.98,15.0,1.0,1.0,1.0
51.99,8.0,1.0,1.0,1.0
52.0,0.0,1.0,1.0,1.0