File: XRD:XRR/STO/22056_STOL/22056_STOL_XRD_002.csv
#twotheta, yobs, ycal, bkg, diff
38.0,18.5056,1.0,1.0,1.0
38.01,15.4944,1.0,1.0,1.0
38.02,27.4944,1.0,1.0,1.0
38.03,17.0111,1.0,1.0,1.0
38.04,23.0,1.0,1.0,1.0
38.05,18.4944,1.0,1.0,1.0
38.06,17.5056,1.0,1.0,1.0
38.07,11.4944,1.0,1.0,1.0
38.08,22.0,1.0,1.0,1.0
38.09,7.5056,1.0,1.0,1.0
38.1,19.4944,1.0,1.0,1.0
38.11,16.0,1.0,1.0,1.0
38.12,11.0,1.0,1.0,1.0
38.13,22.0,1.0,1.0,1.0
38.14,23.0,1.0,1.0,1.0
38.15,19.5056,1.0,1.0,1.0
38.16,16.0,1.0,1.0,1.0
38.17,15.0,1.0,1.0,1.0
38.18,23.4944,1.0,1.0,1.0
38.19,9.5056,1.0,1.0,1.0
38.2,14.0,1.0,1.0,1.0
38.21,22.4944,1.0,1.0,1.0
38.22,24.5056,1.0,1.0,1.0
38.23,22.0,1.0,1.0,1.0
38.24,18.0,1.0,1.0,1.0
38.25,11.0,1.0,1.0,1.0
38.26,17.0,1.0,1.0,1.0
38.27,19.4944,1.0,1.0,1.0
38.28,19.5056,1.0,1.0,1.0
38.29,19.0,1.0,1.0,1.0
38.3,16.4944,1.0,1.0,1.0
38.31,14.4944,1.0,1.0,1.0
38.32,28.0111,1.0,1.0,1.0
38.33,22.0,1.0,1.0,1.0
38.34,24.0,1.0,1.0,1.0
38.35,18.0,1.0,1.0,1.0
38.36,21.0,1.0,1.0,1.0
38.37,22.0,1.0,1.0,1.0
38.38,30.4944,1.0,1.0,1.0
38.39,18.5056,1.0,1.0,1.0
38.4,26.0,1.0,1.0,1.0
38.41,13.4944,1.0,1.0,1.0
38.42,23.5056,1.0,1.0,1.0
38.43,23.0,1.0,1.0,1.0
38.44,12.0,1.0,1.0,1.0
38.45,14.0,1.0,1.0,1.0
38.46,17.0,1.0,1.0,1.0
38.47,16.0,1.0,1.0,1.0
38.48,10.0,1.0,1.0,1.0
38.49,12.0,1.0,1.0,1.0
38.5,13.4833,1.0,1.0,1.0
38.51,18.5167,1.0,1.0,1.0
38.52,18.0,1.0,1.0,1.0
38.53,20.0,1.0,1.0,1.0
38.54,25.4833,1.0,1.0,1.0
38.55,12.5167,1.0,1.0,1.0
38.56,14.9889,1.0,1.0,1.0
38.57,11.0111,1.0,1.0,1.0
38.58,20.0,1.0,1.0,1.0
38.59,8.0,1.0,1.0,1.0
38.6,12.0,1.0,1.0,1.0
38.61,20.0,1.0,1.0,1.0
38.62,9.4944,1.0,1.0,1.0
38.63,23.5056,1.0,1.0,1.0
38.64,15.0,1.0,1.0,1.0
38.65,23.0,1.0,1.0,1.0
38.66,28.0,1.0,1.0,1.0
38.67,17.0,1.0,1.0,1.0
38.68,12.0,1.0,1.0,1.0
38.69,14.0,1.0,1.0,1.0
38.7,15.4944,1.0,1.0,1.0
38.71,10.5056,1.0,1.0,1.0
38.72,20.9889,1.0,1.0,1.0
38.73,13.0111,1.0,1.0,1.0
38.74,17.0,1.0,1.0,1.0
38.75,28.4944,1.0,1.0,1.0
38.76,10.5056,1.0,1.0,1.0
38.77,11.0,1.0,1.0,1.0
38.78,25.0,1.0,1.0,1.0
38.79,14.0,1.0,1.0,1.0
38.8,15.4833,1.0,1.0,1.0
38.81,20.5167,1.0,1.0,1.0
38.82,24.0,1.0,1.0,1.0
38.83,18.0,1.0,1.0,1.0
38.84,13.4944,1.0,1.0,1.0
38.85,23.5056,1.0,1.0,1.0
38.86,21.0,1.0,1.0,1.0
38.87,11.0,1.0,1.0,1.0
38.88,18.0,1.0,1.0,1.0
38.89,22.4944,1.0,1.0,1.0
38.9,15.5056,1.0,1.0,1.0
38.91,10.0,1.0,1.0,1.0
38.92,33.0,1.0,1.0,1.0
38.93,16.4944,1.0,1.0,1.0
38.94,27.0,1.0,1.0,1.0
38.95,19.5056,1.0,1.0,1.0
38.96,24.0,1.0,1.0,1.0
38.97,14.0,1.0,1.0,1.0
38.98,7.0,1.0,1.0,1.0
38.99,18.0,1.0,1.0,1.0
39.0,24.4944,1.0,1.0,1.0
39.01,27.5056,1.0,1.0,1.0
39.02,15.0,1.0,1.0,1.0
39.03,26.9889,1.0,1.0,1.0
39.04,19.0111,1.0,1.0,1.0
39.05,9.0,1.0,1.0,1.0
39.06,26.4944,1.0,1.0,1.0
39.07,17.5056,1.0,1.0,1.0
39.08,18.0,1.0,1.0,1.0
39.09,7.0,1.0,1.0,1.0
39.1,21.4944,1.0,1.0,1.0
39.11,18.0,1.0,1.0,1.0
39.12,9.5056,1.0,1.0,1.0
39.13,12.0,1.0,1.0,1.0
39.14,20.4944,1.0,1.0,1.0
39.15,17.0,1.0,1.0,1.0
39.16,25.0,1.0,1.0,1.0
39.17,12.5056,1.0,1.0,1.0
39.18,23.0,1.0,1.0,1.0
39.19,36.0,1.0,1.0,1.0
39.2,18.0,1.0,1.0,1.0
39.21,19.0,1.0,1.0,1.0
39.22,19.4944,1.0,1.0,1.0
39.23,31.5056,1.0,1.0,1.0
39.24,28.0,1.0,1.0,1.0
39.25,16.0,1.0,1.0,1.0
39.26,15.0,1.0,1.0,1.0
39.27,16.4944,1.0,1.0,1.0
39.28,24.5056,1.0,1.0,1.0
39.29,18.0,1.0,1.0,1.0
39.3,19.0,1.0,1.0,1.0
39.31,27.0,1.0,1.0,1.0
39.32,12.0,1.0,1.0,1.0
39.33,22.0,1.0,1.0,1.0
39.34,17.4944,1.0,1.0,1.0
39.35,11.5056,1.0,1.0,1.0
39.36,22.0,1.0,1.0,1.0
39.37,10.0,1.0,1.0,1.0
39.38,10.4944,1.0,1.0,1.0
39.39,21.5056,1.0,1.0,1.0
39.4,19.0,1.0,1.0,1.0
39.41,12.0,1.0,1.0,1.0
39.42,25.0,1.0,1.0,1.0
39.43,22.0,1.0,1.0,1.0
39.44,19.0,1.0,1.0,1.0
39.45,12.9889,1.0,1.0,1.0
39.46,22.0,1.0,1.0,1.0
39.47,20.0111,1.0,1.0,1.0
39.48,28.0,1.0,1.0,1.0
39.49,14.4944,1.0,1.0,1.0
39.5,20.5056,1.0,1.0,1.0
39.51,16.0,1.0,1.0,1.0
39.52,14.0,1.0,1.0,1.0
39.53,21.4944,1.0,1.0,1.0
39.54,18.5056,1.0,1.0,1.0
39.55,13.0,1.0,1.0,1.0
39.56,32.4944,1.0,1.0,1.0
39.57,17.0,1.0,1.0,1.0
39.58,15.5056,1.0,1.0,1.0
39.59,18.9889,1.0,1.0,1.0
39.6,18.0111,1.0,1.0,1.0
39.61,25.0,1.0,1.0,1.0
39.62,35.0,1.0,1.0,1.0
39.63,5.0,1.0,1.0,1.0
39.64,12.4944,1.0,1.0,1.0
39.65,31.5056,1.0,1.0,1.0
39.66,17.0,1.0,1.0,1.0
39.67,16.0,1.0,1.0,1.0
39.68,22.0,1.0,1.0,1.0
39.69,19.0,1.0,1.0,1.0
39.7,18.0,1.0,1.0,1.0
39.71,9.0,1.0,1.0,1.0
39.72,35.4944,1.0,1.0,1.0
39.73,17.5056,1.0,1.0,1.0
39.74,17.0,1.0,1.0,1.0
39.75,23.0,1.0,1.0,1.0
39.76,18.9889,1.0,1.0,1.0
39.77,18.0111,1.0,1.0,1.0
39.78,13.0,1.0,1.0,1.0
39.79,5.0,1.0,1.0,1.0
39.8,19.0,1.0,1.0,1.0
39.81,21.0,1.0,1.0,1.0
39.82,11.0,1.0,1.0,1.0
39.83,9.0,1.0,1.0,1.0
39.84,21.0,1.0,1.0,1.0
39.85,15.0,1.0,1.0,1.0
39.86,22.0,1.0,1.0,1.0
39.87,18.4944,1.0,1.0,1.0
39.88,25.0,1.0,1.0,1.0
39.89,26.0,1.0,1.0,1.0
39.9,23.5056,1.0,1.0,1.0
39.91,20.0,1.0,1.0,1.0
39.92,11.9889,1.0,1.0,1.0
39.93,18.0,1.0,1.0,1.0
39.94,21.0111,1.0,1.0,1.0
39.95,25.4944,1.0,1.0,1.0
39.96,29.5056,1.0,1.0,1.0
39.97,17.0,1.0,1.0,1.0
39.98,9.4944,1.0,1.0,1.0
39.99,13.5056,1.0,1.0,1.0
40.0,11.9889,1.0,1.0,1.0
40.01,16.0111,1.0,1.0,1.0
40.02,25.9889,1.0,1.0,1.0
40.03,37.4944,1.0,1.0,1.0
40.04,35.0111,1.0,1.0,1.0
40.05,16.5056,1.0,1.0,1.0
40.06,31.4944,1.0,1.0,1.0
40.07,28.5056,1.0,1.0,1.0
40.08,9.4944,1.0,1.0,1.0
40.09,19.0,1.0,1.0,1.0
40.1,22.5056,1.0,1.0,1.0
40.11,35.4833,1.0,1.0,1.0
40.12,22.5167,1.0,1.0,1.0
40.13,23.4944,1.0,1.0,1.0
40.14,24.5056,1.0,1.0,1.0
40.15,36.0,1.0,1.0,1.0
40.16,14.0,1.0,1.0,1.0
40.17,29.4944,1.0,1.0,1.0
40.18,12.5056,1.0,1.0,1.0
40.19,29.0,1.0,1.0,1.0
40.2,14.0,1.0,1.0,1.0
40.21,19.0,1.0,1.0,1.0
40.22,17.0,1.0,1.0,1.0
40.23,28.0,1.0,1.0,1.0
40.24,26.4944,1.0,1.0,1.0
40.25,30.5056,1.0,1.0,1.0
40.26,15.0,1.0,1.0,1.0
40.27,16.4944,1.0,1.0,1.0
40.28,24.5056,1.0,1.0,1.0
40.29,29.0,1.0,1.0,1.0
40.3,32.0,1.0,1.0,1.0
40.31,10.0,1.0,1.0,1.0
40.32,22.0,1.0,1.0,1.0
40.33,12.0,1.0,1.0,1.0
40.34,13.0,1.0,1.0,1.0
40.35,16.0,1.0,1.0,1.0
40.36,11.0,1.0,1.0,1.0
40.37,23.4944,1.0,1.0,1.0
40.38,22.9889,1.0,1.0,1.0
40.39,31.0111,1.0,1.0,1.0
40.4,25.5056,1.0,1.0,1.0
40.41,33.0,1.0,1.0,1.0
40.42,23.4944,1.0,1.0,1.0
40.43,21.5056,1.0,1.0,1.0
40.44,15.0,1.0,1.0,1.0
40.45,19.0,1.0,1.0,1.0
40.46,28.0,1.0,1.0,1.0
40.47,22.4944,1.0,1.0,1.0
40.48,18.5056,1.0,1.0,1.0
40.49,41.0,1.0,1.0,1.0
40.5,26.0,1.0,1.0,1.0
40.51,17.0,1.0,1.0,1.0
40.52,32.0,1.0,1.0,1.0
40.53,24.0,1.0,1.0,1.0
40.54,28.0,1.0,1.0,1.0
40.55,40.0,1.0,1.0,1.0
40.56,28.0,1.0,1.0,1.0
40.57,11.0,1.0,1.0,1.0
40.58,39.0,1.0,1.0,1.0
40.59,17.4833,1.0,1.0,1.0
40.6,20.5167,1.0,1.0,1.0
40.61,26.4944,1.0,1.0,1.0
40.62,24.5056,1.0,1.0,1.0
40.63,10.0,1.0,1.0,1.0
40.64,20.0,1.0,1.0,1.0
40.65,18.0,1.0,1.0,1.0
40.66,19.4944,1.0,1.0,1.0
40.67,29.5056,1.0,1.0,1.0
40.68,25.4944,1.0,1.0,1.0
40.69,9.0,1.0,1.0,1.0
40.7,10.5056,1.0,1.0,1.0
40.71,26.0,1.0,1.0,1.0
40.72,22.0,1.0,1.0,1.0
40.73,27.4944,1.0,1.0,1.0
40.74,16.0,1.0,1.0,1.0
40.75,27.5056,1.0,1.0,1.0
40.76,18.0,1.0,1.0,1.0
40.77,9.0,1.0,1.0,1.0
40.78,18.4944,1.0,1.0,1.0
40.79,21.5056,1.0,1.0,1.0
40.8,27.4944,1.0,1.0,1.0
40.81,33.4944,1.0,1.0,1.0
40.82,33.0111,1.0,1.0,1.0
40.83,19.0,1.0,1.0,1.0
40.84,26.0,1.0,1.0,1.0
40.85,27.0,1.0,1.0,1.0
40.86,11.4944,1.0,1.0,1.0
40.87,39.0,1.0,1.0,1.0
40.88,25.0,1.0,1.0,1.0
40.89,17.5056,1.0,1.0,1.0
40.9,27.0,1.0,1.0,1.0
40.91,27.0,1.0,1.0,1.0
40.92,30.0,1.0,1.0,1.0
40.93,21.4944,1.0,1.0,1.0
40.94,28.0,1.0,1.0,1.0
40.95,12.5056,1.0,1.0,1.0
40.96,19.0,1.0,1.0,1.0
40.97,35.0,1.0,1.0,1.0
40.98,24.4944,1.0,1.0,1.0
40.99,21.5056,1.0,1.0,1.0
41.0,13.0,1.0,1.0,1.0
41.01,19.0,1.0,1.0,1.0
41.02,23.0,1.0,1.0,1.0
41.03,20.0,1.0,1.0,1.0
41.04,20.0,1.0,1.0,1.0
41.05,25.0,1.0,1.0,1.0
41.06,28.0,1.0,1.0,1.0
41.07,26.9889,1.0,1.0,1.0
41.08,22.0111,1.0,1.0,1.0
41.09,23.0,1.0,1.0,1.0
41.1,22.0,1.0,1.0,1.0
41.11,17.0,1.0,1.0,1.0
41.12,16.0,1.0,1.0,1.0
41.13,24.0,1.0,1.0,1.0
41.14,27.0,1.0,1.0,1.0
41.15,23.4944,1.0,1.0,1.0
41.16,17.5056,1.0,1.0,1.0
41.17,22.4944,1.0,1.0,1.0
41.18,31.5056,1.0,1.0,1.0
41.19,22.0,1.0,1.0,1.0
41.2,23.0,1.0,1.0,1.0
41.21,24.0,1.0,1.0,1.0
41.22,33.0,1.0,1.0,1.0
41.23,34.9889,1.0,1.0,1.0
41.24,34.0111,1.0,1.0,1.0
41.25,21.4944,1.0,1.0,1.0
41.26,23.5056,1.0,1.0,1.0
41.27,13.0,1.0,1.0,1.0
41.28,20.0,1.0,1.0,1.0
41.29,27.9889,1.0,1.0,1.0
41.3,22.5056,1.0,1.0,1.0
41.31,23.5056,1.0,1.0,1.0
41.32,12.0,1.0,1.0,1.0
41.33,8.4944,1.0,1.0,1.0
41.34,9.5056,1.0,1.0,1.0
41.35,12.4944,1.0,1.0,1.0
41.36,26.5056,1.0,1.0,1.0
41.37,21.0,1.0,1.0,1.0
41.38,21.9889,1.0,1.0,1.0
41.39,30.0111,1.0,1.0,1.0
41.4,17.0,1.0,1.0,1.0
41.41,17.4833,1.0,1.0,1.0
41.42,39.5167,1.0,1.0,1.0
41.43,25.0,1.0,1.0,1.0
41.44,7.4944,1.0,1.0,1.0
41.45,17.5056,1.0,1.0,1.0
41.46,12.0,1.0,1.0,1.0
41.47,30.4944,1.0,1.0,1.0
41.48,34.5056,1.0,1.0,1.0
41.49,24.0,1.0,1.0,1.0
41.5,26.0,1.0,1.0,1.0
41.51,30.0,1.0,1.0,1.0
41.52,14.4944,1.0,1.0,1.0
41.53,16.4944,1.0,1.0,1.0
41.54,29.5056,1.0,1.0,1.0
41.55,18.5056,1.0,1.0,1.0
41.56,28.4944,1.0,1.0,1.0
41.57,25.5056,1.0,1.0,1.0
41.58,15.0,1.0,1.0,1.0
41.59,15.0,1.0,1.0,1.0
41.6,16.0,1.0,1.0,1.0
41.61,26.0,1.0,1.0,1.0
41.62,17.0,1.0,1.0,1.0
41.63,25.0,1.0,1.0,1.0
41.64,8.4944,1.0,1.0,1.0
41.65,15.5056,1.0,1.0,1.0
41.66,14.0,1.0,1.0,1.0
41.67,16.4944,1.0,1.0,1.0
41.68,15.5056,1.0,1.0,1.0
41.69,29.0,1.0,1.0,1.0
41.7,28.4944,1.0,1.0,1.0
41.71,18.5056,1.0,1.0,1.0
41.72,27.0,1.0,1.0,1.0
41.73,19.4944,1.0,1.0,1.0
41.74,25.0,1.0,1.0,1.0
41.75,12.5056,1.0,1.0,1.0
41.76,20.0,1.0,1.0,1.0
41.77,13.4944,1.0,1.0,1.0
41.78,18.0,1.0,1.0,1.0
41.79,18.5056,1.0,1.0,1.0
41.8,41.0,1.0,1.0,1.0
41.81,21.0,1.0,1.0,1.0
41.82,17.4944,1.0,1.0,1.0
41.83,24.5056,1.0,1.0,1.0
41.84,33.0,1.0,1.0,1.0
41.85,23.4944,1.0,1.0,1.0
41.86,28.5056,1.0,1.0,1.0
41.87,15.4944,1.0,1.0,1.0
41.88,23.4944,1.0,1.0,1.0
41.89,38.5056,1.0,1.0,1.0
41.9,19.5056,1.0,1.0,1.0
41.91,31.9889,1.0,1.0,1.0
41.92,17.5056,1.0,1.0,1.0
41.93,29.5056,1.0,1.0,1.0
41.94,16.0,1.0,1.0,1.0
41.95,24.0,1.0,1.0,1.0
41.96,25.0,1.0,1.0,1.0
41.97,17.0,1.0,1.0,1.0
41.98,35.0,1.0,1.0,1.0
41.99,30.0,1.0,1.0,1.0
42.0,22.0,1.0,1.0,1.0
42.01,21.0,1.0,1.0,1.0
42.02,32.4944,1.0,1.0,1.0
42.03,12.5056,1.0,1.0,1.0
42.04,18.4944,1.0,1.0,1.0
42.05,29.5056,1.0,1.0,1.0
42.06,29.9889,1.0,1.0,1.0
42.07,15.0111,1.0,1.0,1.0
42.08,17.0,1.0,1.0,1.0
42.09,26.0,1.0,1.0,1.0
42.1,23.9889,1.0,1.0,1.0
42.11,31.5056,1.0,1.0,1.0
42.12,22.5056,1.0,1.0,1.0
42.13,17.0,1.0,1.0,1.0
42.14,17.0,1.0,1.0,1.0
42.15,12.0,1.0,1.0,1.0
42.16,26.0,1.0,1.0,1.0
42.17,20.4944,1.0,1.0,1.0
42.18,25.0,1.0,1.0,1.0
42.19,23.0,1.0,1.0,1.0
42.2,26.5056,1.0,1.0,1.0
42.21,31.0,1.0,1.0,1.0
42.22,27.4944,1.0,1.0,1.0
42.23,19.5056,1.0,1.0,1.0
42.24,35.0,1.0,1.0,1.0
42.25,31.0,1.0,1.0,1.0
42.26,33.0,1.0,1.0,1.0
42.27,13.0,1.0,1.0,1.0
42.28,20.0,1.0,1.0,1.0
42.29,21.0,1.0,1.0,1.0
42.3,24.0,1.0,1.0,1.0
42.31,33.4944,1.0,1.0,1.0
42.32,22.5056,1.0,1.0,1.0
42.33,25.0,1.0,1.0,1.0
42.34,31.4944,1.0,1.0,1.0
42.35,27.0,1.0,1.0,1.0
42.36,19.5056,1.0,1.0,1.0
42.37,36.0,1.0,1.0,1.0
42.38,33.0,1.0,1.0,1.0
42.39,32.4944,1.0,1.0,1.0
42.4,29.4944,1.0,1.0,1.0
42.41,26.0111,1.0,1.0,1.0
42.42,30.4944,1.0,1.0,1.0
42.43,31.0,1.0,1.0,1.0
42.44,27.5056,1.0,1.0,1.0
42.45,37.0,1.0,1.0,1.0
42.46,29.0,1.0,1.0,1.0
42.47,30.0,1.0,1.0,1.0
42.48,35.0,1.0,1.0,1.0
42.49,26.0,1.0,1.0,1.0
42.5,28.0,1.0,1.0,1.0
42.51,32.4944,1.0,1.0,1.0
42.52,36.0,1.0,1.0,1.0
42.53,35.0,1.0,1.0,1.0
42.54,50.0,1.0,1.0,1.0
42.55,36.5056,1.0,1.0,1.0
42.56,34.0,1.0,1.0,1.0
42.57,32.0,1.0,1.0,1.0
42.58,37.0,1.0,1.0,1.0
42.59,37.0,1.0,1.0,1.0
42.6,26.4944,1.0,1.0,1.0
42.61,50.5056,1.0,1.0,1.0
42.62,31.0,1.0,1.0,1.0
42.63,41.0,1.0,1.0,1.0
42.64,47.0,1.0,1.0,1.0
42.65,40.0,1.0,1.0,1.0
42.66,17.0,1.0,1.0,1.0
42.67,45.4944,1.0,1.0,1.0
42.68,48.5056,1.0,1.0,1.0
42.69,52.0,1.0,1.0,1.0
42.7,40.9778,1.0,1.0,1.0
42.71,48.0222,1.0,1.0,1.0
42.72,40.4944,1.0,1.0,1.0
42.73,48.5056,1.0,1.0,1.0
42.74,31.9889,1.0,1.0,1.0
42.75,55.0,1.0,1.0,1.0
42.76,34.9889,1.0,1.0,1.0
42.77,40.0222,1.0,1.0,1.0
42.78,41.9889,1.0,1.0,1.0
42.79,61.0,1.0,1.0,1.0
42.8,49.0111,1.0,1.0,1.0
42.81,41.0,1.0,1.0,1.0
42.82,49.9889,1.0,1.0,1.0
42.83,57.5056,1.0,1.0,1.0
42.84,60.0,1.0,1.0,1.0
42.85,51.0,1.0,1.0,1.0
42.86,71.5056,1.0,1.0,1.0
42.87,49.9889,1.0,1.0,1.0
42.88,57.4944,1.0,1.0,1.0
42.89,64.5056,1.0,1.0,1.0
42.9,42.0,1.0,1.0,1.0
42.91,49.0111,1.0,1.0,1.0
42.92,54.9778,1.0,1.0,1.0
42.93,50.5167,1.0,1.0,1.0
42.94,68.9889,1.0,1.0,1.0
42.95,58.5167,1.0,1.0,1.0
42.96,54.0,1.0,1.0,1.0
42.97,57.4944,1.0,1.0,1.0
42.98,70.9889,1.0,1.0,1.0
42.99,61.5167,1.0,1.0,1.0
43.0,60.4833,1.0,1.0,1.0
43.01,80.0,1.0,1.0,1.0
43.02,75.5167,1.0,1.0,1.0
43.03,57.4833,1.0,1.0,1.0
43.04,62.0111,1.0,1.0,1.0
43.05,74.5056,1.0,1.0,1.0
43.06,65.4833,1.0,1.0,1.0
43.07,83.0,1.0,1.0,1.0
43.08,92.0111,1.0,1.0,1.0
43.09,84.9889,1.0,1.0,1.0
43.1,84.4944,1.0,1.0,1.0
43.11,79.0222,1.0,1.0,1.0
43.12,90.9889,1.0,1.0,1.0
43.13,86.4944,1.0,1.0,1.0
43.14,90.0,1.0,1.0,1.0
43.15,61.9889,1.0,1.0,1.0
43.16,109.5167,1.0,1.0,1.0
43.17,76.5056,1.0,1.0,1.0
43.18,84.0,1.0,1.0,1.0
43.19,91.4833,1.0,1.0,1.0
43.2,76.5167,1.0,1.0,1.0
43.21,90.4944,1.0,1.0,1.0
43.22,65.4944,1.0,1.0,1.0
43.23,67.0,1.0,1.0,1.0
43.24,75.5056,1.0,1.0,1.0
43.25,58.0,1.0,1.0,1.0
43.26,110.9889,1.0,1.0,1.0
43.27,101.5056,1.0,1.0,1.0
43.28,101.0,1.0,1.0,1.0
43.29,94.4944,1.0,1.0,1.0
43.3,84.5167,1.0,1.0,1.0
43.31,116.0,1.0,1.0,1.0
43.32,104.4944,1.0,1.0,1.0
43.33,119.4944,1.0,1.0,1.0
43.34,123.0,1.0,1.0,1.0
43.35,106.5056,1.0,1.0,1.0
43.36,96.0111,1.0,1.0,1.0
43.37,114.9889,1.0,1.0,1.0
43.38,130.9889,1.0,1.0,1.0
43.39,111.0222,1.0,1.0,1.0
43.4,84.9889,1.0,1.0,1.0
43.41,135.0,1.0,1.0,1.0
43.42,114.5056,1.0,1.0,1.0
43.43,112.9889,1.0,1.0,1.0
43.44,117.0,1.0,1.0,1.0
43.45,114.5056,1.0,1.0,1.0
43.46,131.4944,1.0,1.0,1.0
43.47,129.5167,1.0,1.0,1.0
43.48,124.0,1.0,1.0,1.0
43.49,121.0,1.0,1.0,1.0
43.5,131.0,1.0,1.0,1.0
43.51,112.9889,1.0,1.0,1.0
43.52,113.0,1.0,1.0,1.0
43.53,144.0,1.0,1.0,1.0
43.54,150.0,1.0,1.0,1.0
43.55,136.5056,1.0,1.0,1.0
43.56,139.4833,1.0,1.0,1.0
43.57,144.0111,1.0,1.0,1.0
43.58,126.5056,1.0,1.0,1.0
43.59,137.5056,1.0,1.0,1.0
43.6,143.9889,1.0,1.0,1.0
43.61,153.9889,1.0,1.0,1.0
43.62,132.0,1.0,1.0,1.0
43.63,143.5056,1.0,1.0,1.0
43.64,172.0111,1.0,1.0,1.0
43.65,146.4944,1.0,1.0,1.0
43.66,156.0111,1.0,1.0,1.0
43.67,115.4833,1.0,1.0,1.0
43.68,150.9889,1.0,1.0,1.0
43.69,174.5056,1.0,1.0,1.0
43.7,173.4833,1.0,1.0,1.0
43.71,144.5278,1.0,1.0,1.0
43.72,122.9889,1.0,1.0,1.0
43.73,191.0,1.0,1.0,1.0
43.74,180.0111,1.0,1.0,1.0
43.75,166.5056,1.0,1.0,1.0
43.76,192.4611,1.0,1.0,1.0
43.77,173.0222,1.0,1.0,1.0
43.78,172.5056,1.0,1.0,1.0
43.79,171.0,1.0,1.0,1.0
43.8,158.9889,1.0,1.0,1.0
43.81,186.0,1.0,1.0,1.0
43.82,166.5167,1.0,1.0,1.0
43.83,163.0,1.0,1.0,1.0
43.84,188.4833,1.0,1.0,1.0
43.85,221.5056,1.0,1.0,1.0
43.86,179.5056,1.0,1.0,1.0
43.87,184.9889,1.0,1.0,1.0
43.88,175.4944,1.0,1.0,1.0
43.89,179.5056,1.0,1.0,1.0
43.9,192.0111,1.0,1.0,1.0
43.91,216.5056,1.0,1.0,1.0
43.92,198.9889,1.0,1.0,1.0
43.93,192.0,1.0,1.0,1.0
43.94,225.4944,1.0,1.0,1.0
43.95,186.5278,1.0,1.0,1.0
43.96,206.9778,1.0,1.0,1.0
43.97,182.4833,1.0,1.0,1.0
43.98,188.0222,1.0,1.0,1.0
43.99,195.0,1.0,1.0,1.0
44.0,198.0111,1.0,1.0,1.0
44.01,226.4722,1.0,1.0,1.0
44.02,249.5167,1.0,1.0,1.0
44.03,204.4833,1.0,1.0,1.0
44.04,202.0,1.0,1.0,1.0
44.05,226.5167,1.0,1.0,1.0
44.06,206.9778,1.0,1.0,1.0
44.07,226.5167,1.0,1.0,1.0
44.08,247.0,1.0,1.0,1.0
44.09,222.5167,1.0,1.0,1.0
44.1,207.9889,1.0,1.0,1.0
44.11,238.4944,1.0,1.0,1.0
44.12,250.0,1.0,1.0,1.0
44.13,237.0,1.0,1.0,1.0
44.14,235.4833,1.0,1.0,1.0
44.15,253.5167,1.0,1.0,1.0
44.16,229.9889,1.0,1.0,1.0
44.17,239.5056,1.0,1.0,1.0
44.18,272.0111,1.0,1.0,1.0
44.19,236.9889,1.0,1.0,1.0
44.2,255.4833,1.0,1.0,1.0
44.21,237.0111,1.0,1.0,1.0
44.22,251.9778,1.0,1.0,1.0
44.23,268.5389,1.0,1.0,1.0
44.24,273.4611,1.0,1.0,1.0
44.25,291.5389,1.0,1.0,1.0
44.26,286.4944,1.0,1.0,1.0
44.27,267.9778,1.0,1.0,1.0
44.28,294.5167,1.0,1.0,1.0
44.29,267.9778,1.0,1.0,1.0
44.3,294.0111,1.0,1.0,1.0
44.31,271.0222,1.0,1.0,1.0
44.32,316.4722,1.0,1.0,1.0
44.33,297.0,1.0,1.0,1.0
44.34,292.4944,1.0,1.0,1.0
44.35,277.4944,1.0,1.0,1.0
44.36,280.55,1.0,1.0,1.0
44.37,284.9778,1.0,1.0,1.0
44.38,332.5056,1.0,1.0,1.0
44.39,279.9778,1.0,1.0,1.0
44.4,321.5278,1.0,1.0,1.0
44.41,262.9778,1.0,1.0,1.0
44.42,307.4944,1.0,1.0,1.0
44.43,340.0222,1.0,1.0,1.0
44.44,290.4722,1.0,1.0,1.0
44.45,299.5056,1.0,1.0,1.0
44.46,307.5056,1.0,1.0,1.0
44.47,325.5167,1.0,1.0,1.0
44.48,299.4833,1.0,1.0,1.0
44.49,286.0,1.0,1.0,1.0
44.5,344.0,1.0,1.0,1.0
44.51,310.4611,1.0,1.0,1.0
44.52,334.5278,1.0,1.0,1.0
44.53,313.5056,1.0,1.0,1.0
44.54,327.5056,1.0,1.0,1.0
44.55,356.0111,1.0,1.0,1.0
44.56,329.4833,1.0,1.0,1.0
44.57,345.5167,1.0,1.0,1.0
44.58,358.9889,1.0,1.0,1.0
44.59,320.0111,1.0,1.0,1.0
44.6,330.4944,1.0,1.0,1.0
44.61,365.5056,1.0,1.0,1.0
44.62,312.9667,1.0,1.0,1.0
44.63,358.0444,1.0,1.0,1.0
44.64,330.0111,1.0,1.0,1.0
44.65,343.9556,1.0,1.0,1.0
44.66,373.0,1.0,1.0,1.0
44.67,351.0444,1.0,1.0,1.0
44.68,358.4722,1.0,1.0,1.0
44.69,330.5167,1.0,1.0,1.0
44.7,372.9778,1.0,1.0,1.0
44.71,356.4944,1.0,1.0,1.0
44.72,346.9889,1.0,1.0,1.0
44.73,393.5167,1.0,1.0,1.0
44.74,373.4833,1.0,1.0,1.0
44.75,349.5167,1.0,1.0,1.0
44.76,368.5278,1.0,1.0,1.0
44.77,399.4611,1.0,1.0,1.0
44.78,366.0,1.0,1.0,1.0
44.79,407.0111,1.0,1.0,1.0
44.8,373.0,1.0,1.0,1.0
44.81,372.0111,1.0,1.0,1.0
44.82,382.5056,1.0,1.0,1.0
44.83,419.4833,1.0,1.0,1.0
44.84,390.5056,1.0,1.0,1.0
44.85,400.4722,1.0,1.0,1.0
44.86,417.5389,1.0,1.0,1.0
44.87,388.4611,1.0,1.0,1.0
44.88,397.0222,1.0,1.0,1.0
44.89,430.9889,1.0,1.0,1.0
44.9,473.4944,1.0,1.0,1.0
44.91,389.0444,1.0,1.0,1.0
44.92,411.45,1.0,1.0,1.0
44.93,424.0111,1.0,1.0,1.0
44.94,425.0111,1.0,1.0,1.0
44.95,435.4722,1.0,1.0,1.0
44.96,426.0222,1.0,1.0,1.0
44.97,443.0,1.0,1.0,1.0
44.98,400.4833,1.0,1.0,1.0
44.99,429.0222,1.0,1.0,1.0
45.0,435.9889,1.0,1.0,1.0
45.01,438.5389,1.0,1.0,1.0
45.02,416.4389,1.0,1.0,1.0
45.03,449.0444,1.0,1.0,1.0
45.04,425.4722,1.0,1.0,1.0
45.05,442.5167,1.0,1.0,1.0
45.06,440.0,1.0,1.0,1.0
45.07,445.4722,1.0,1.0,1.0
45.08,447.4833,1.0,1.0,1.0
45.09,463.0111,1.0,1.0,1.0
45.1,465.5389,1.0,1.0,1.0
45.11,467.4944,1.0,1.0,1.0
45.12,466.4833,1.0,1.0,1.0
45.13,444.4833,1.0,1.0,1.0
45.14,486.5389,1.0,1.0,1.0
45.15,454.0,1.0,1.0,1.0
45.16,465.0,1.0,1.0,1.0
45.17,430.4833,1.0,1.0,1.0
45.18,462.9889,1.0,1.0,1.0
45.19,484.0222,1.0,1.0,1.0
45.2,454.9889,1.0,1.0,1.0
45.21,499.4944,1.0,1.0,1.0
45.22,476.5167,1.0,1.0,1.0
45.23,517.0,1.0,1.0,1.0
45.24,539.4611,1.0,1.0,1.0
45.25,481.9889,1.0,1.0,1.0
45.26,516.5722,1.0,1.0,1.0
45.27,477.9778,1.0,1.0,1.0
45.28,515.4722,1.0,1.0,1.0
45.29,524.0,1.0,1.0,1.0
45.3,514.4722,1.0,1.0,1.0
45.31,502.5167,1.0,1.0,1.0
45.32,500.55,1.0,1.0,1.0
45.33,479.0,1.0,1.0,1.0
45.34,506.9556,1.0,1.0,1.0
45.35,515.0222,1.0,1.0,1.0
45.36,519.45,1.0,1.0,1.0
45.37,486.55,1.0,1.0,1.0
45.38,520.4722,1.0,1.0,1.0
45.39,482.5278,1.0,1.0,1.0
45.4,488.5056,1.0,1.0,1.0
45.41,513.9889,1.0,1.0,1.0
45.42,471.9889,1.0,1.0,1.0
45.43,532.0333,1.0,1.0,1.0
45.44,498.4833,1.0,1.0,1.0
45.45,523.0222,1.0,1.0,1.0
45.46,560.45,1.0,1.0,1.0
45.47,467.0333,1.0,1.0,1.0
45.48,486.4611,1.0,1.0,1.0
45.49,526.5278,1.0,1.0,1.0
45.5,528.9667,1.0,1.0,1.0
45.51,505.55,1.0,1.0,1.0
45.52,487.4611,1.0,1.0,1.0
45.53,536.5278,1.0,1.0,1.0
45.54,512.0222,1.0,1.0,1.0
45.55,486.9445,1.0,1.0,1.0
45.56,554.5278,1.0,1.0,1.0
45.57,535.4833,1.0,1.0,1.0
45.58,555.5056,1.0,1.0,1.0
45.59,519.5167,1.0,1.0,1.0
45.6,522.4833,1.0,1.0,1.0
45.61,528.5389,1.0,1.0,1.0
45.62,550.4722,1.0,1.0,1.0
45.63,554.0,1.0,1.0,1.0
45.64,513.9778,1.0,1.0,1.0
45.65,569.5278,1.0,1.0,1.0
45.66,545.9889,1.0,1.0,1.0
45.67,549.5056,1.0,1.0,1.0
45.68,558.9889,1.0,1.0,1.0
45.69,591.5278,1.0,1.0,1.0
45.7,533.0,1.0,1.0,1.0
45.71,557.9889,1.0,1.0,1.0
45.72,512.4611,1.0,1.0,1.0
45.73,556.5056,1.0,1.0,1.0
45.74,523.5278,1.0,1.0,1.0
45.75,576.9889,1.0,1.0,1.0
45.76,584.4944,1.0,1.0,1.0
45.77,581.5278,1.0,1.0,1.0
45.78,577.4833,1.0,1.0,1.0
45.79,548.9778,1.0,1.0,1.0
45.8,623.0333,1.0,1.0,1.0
45.81,622.9556,1.0,1.0,1.0
45.82,567.0333,1.0,1.0,1.0
45.83,584.5056,1.0,1.0,1.0
45.84,593.4722,1.0,1.0,1.0
45.85,533.0444,1.0,1.0,1.0
45.86,577.0,1.0,1.0,1.0
45.87,558.5056,1.0,1.0,1.0
45.88,608.4722,1.0,1.0,1.0
45.89,624.9889,1.0,1.0,1.0
45.9,566.9778,1.0,1.0,1.0
45.91,617.0222,1.0,1.0,1.0
45.92,599.0222,1.0,1.0,1.0
45.93,620.9778,1.0,1.0,1.0
45.94,614.5278,1.0,1.0,1.0
45.95,572.5167,1.0,1.0,1.0
45.96,543.9667,1.0,1.0,1.0
45.97,581.4944,1.0,1.0,1.0
45.98,595.9889,1.0,1.0,1.0
45.99,662.0,1.0,1.0,1.0
46.0,663.4722,1.0,1.0,1.0
46.01,575.5167,1.0,1.0,1.0
46.02,593.5278,1.0,1.0,1.0
46.03,539.45,1.0,1.0,1.0
46.04,632.5278,1.0,1.0,1.0
46.05,627.0,1.0,1.0,1.0
46.06,572.5056,1.0,1.0,1.0
46.07,645.9889,1.0,1.0,1.0
46.08,620.0555,1.0,1.0,1.0
46.09,586.9556,1.0,1.0,1.0
46.1,633.5167,1.0,1.0,1.0
46.11,664.0111,1.0,1.0,1.0
46.12,602.9667,1.0,1.0,1.0
46.13,606.0,1.0,1.0,1.0
46.14,636.0222,1.0,1.0,1.0
46.15,654.4722,1.0,1.0,1.0
46.16,671.5167,1.0,1.0,1.0
46.17,640.0111,1.0,1.0,1.0
46.18,686.5056,1.0,1.0,1.0
46.19,596.5056,1.0,1.0,1.0
46.2,598.5056,1.0,1.0,1.0
46.21,605.4944,1.0,1.0,1.0
46.22,596.5167,1.0,1.0,1.0
46.23,642.4833,1.0,1.0,1.0
46.24,686.4833,1.0,1.0,1.0
46.25,623.5167,1.0,1.0,1.0
46.26,687.4611,1.0,1.0,1.0
46.27,668.5389,1.0,1.0,1.0
46.28,637.9889,1.0,1.0,1.0
46.29,663.4944,1.0,1.0,1.0
46.3,651.0111,1.0,1.0,1.0
46.31,625.0,1.0,1.0,1.0
46.32,699.5278,1.0,1.0,1.0
46.33,652.9778,1.0,1.0,1.0
46.34,641.5056,1.0,1.0,1.0
46.35,634.45,1.0,1.0,1.0
46.36,637.4944,1.0,1.0,1.0
46.37,644.0222,1.0,1.0,1.0
46.38,669.0111,1.0,1.0,1.0
46.39,639.4833,1.0,1.0,1.0
46.4,679.5167,1.0,1.0,1.0
46.41,641.0,1.0,1.0,1.0
46.42,630.5278,1.0,1.0,1.0
46.43,671.9778,1.0,1.0,1.0
46.44,688.5167,1.0,1.0,1.0
46.45,715.0,1.0,1.0,1.0
46.46,685.9556,1.0,1.0,1.0
46.47,707.0111,1.0,1.0,1.0
46.48,685.0111,1.0,1.0,1.0
46.49,668.0111,1.0,1.0,1.0
46.5,671.0111,1.0,1.0,1.0
46.51,725.4722,1.0,1.0,1.0
46.52,663.5167,1.0,1.0,1.0
46.53,688.9667,1.0,1.0,1.0
46.54,696.0333,1.0,1.0,1.0
46.55,648.9445,1.0,1.0,1.0
46.56,720.5389,1.0,1.0,1.0
46.57,688.4833,1.0,1.0,1.0
46.58,659.0444,1.0,1.0,1.0
46.59,659.4944,1.0,1.0,1.0
46.6,664.9667,1.0,1.0,1.0
46.61,715.0,1.0,1.0,1.0
46.62,693.4944,1.0,1.0,1.0
46.63,711.55,1.0,1.0,1.0
46.64,682.45,1.0,1.0,1.0
46.65,712.0222,1.0,1.0,1.0
46.66,711.4833,1.0,1.0,1.0
46.67,694.5167,1.0,1.0,1.0
46.68,701.9445,1.0,1.0,1.0
46.69,709.0333,1.0,1.0,1.0
46.7,697.0,1.0,1.0,1.0
46.71,732.4944,1.0,1.0,1.0
46.72,729.0222,1.0,1.0,1.0
46.73,750.0111,1.0,1.0,1.0
46.74,746.0111,1.0,1.0,1.0
46.75,714.4389,1.0,1.0,1.0
46.76,749.55,1.0,1.0,1.0
46.77,717.9889,1.0,1.0,1.0
46.78,804.9889,1.0,1.0,1.0
46.79,731.9889,1.0,1.0,1.0
46.8,768.9889,1.0,1.0,1.0
46.81,757.0333,1.0,1.0,1.0
46.82,722.0,1.0,1.0,1.0
46.83,731.9445,1.0,1.0,1.0
46.84,778.5056,1.0,1.0,1.0
46.85,715.5278,1.0,1.0,1.0
46.86,742.5167,1.0,1.0,1.0
46.87,830.45,1.0,1.0,1.0
46.88,772.0222,1.0,1.0,1.0
46.89,810.5056,1.0,1.0,1.0
46.9,823.5167,1.0,1.0,1.0
46.91,806.9889,1.0,1.0,1.0
46.92,783.9889,1.0,1.0,1.0
46.93,770.4944,1.0,1.0,1.0
46.94,810.0111,1.0,1.0,1.0
46.95,789.0333,1.0,1.0,1.0
46.96,802.4944,1.0,1.0,1.0
46.97,822.45,1.0,1.0,1.0
46.98,809.5167,1.0,1.0,1.0
46.99,852.5278,1.0,1.0,1.0
47.0,819.0111,1.0,1.0,1.0
47.01,843.9667,1.0,1.0,1.0
47.02,822.4944,1.0,1.0,1.0
47.03,866.4944,1.0,1.0,1.0
47.04,810.9889,1.0,1.0,1.0
47.05,845.5389,1.0,1.0,1.0
47.06,845.9778,1.0,1.0,1.0
47.07,935.0222,1.0,1.0,1.0
47.08,879.0,1.0,1.0,1.0
47.09,968.45,1.0,1.0,1.0
47.1,889.5167,1.0,1.0,1.0
47.11,890.0444,1.0,1.0,1.0
47.12,916.4944,1.0,1.0,1.0
47.13,987.45,1.0,1.0,1.0
47.14,1003.02,1.0,1.0,1.0
47.15,940.5167,1.0,1.0,1.0
47.16,909.9889,1.0,1.0,1.0
47.17,964.4944,1.0,1.0,1.0
47.18,970.4722,1.0,1.0,1.0
47.19,950.5278,1.0,1.0,1.0
47.2,1015.45,1.0,1.0,1.0
47.21,1010.53,1.0,1.0,1.0
47.22,1037.46,1.0,1.0,1.0
47.23,1081.04,1.0,1.0,1.0
47.24,1028.52,1.0,1.0,1.0
47.25,1114.98,1.0,1.0,1.0
47.26,1036.47,1.0,1.0,1.0
47.27,1099.02,1.0,1.0,1.0
47.28,1144.52,1.0,1.0,1.0
47.29,1141.51,1.0,1.0,1.0
47.3,1143.48,1.0,1.0,1.0
47.31,1135.99,1.0,1.0,1.0
47.32,1205.51,1.0,1.0,1.0
47.33,1176.43,1.0,1.0,1.0
47.34,1281.08,1.0,1.0,1.0
47.35,1230.47,1.0,1.0,1.0
47.36,1262.52,1.0,1.0,1.0
47.37,1261.49,1.0,1.0,1.0
47.38,1237.98,1.0,1.0,1.0
47.39,1392.52,1.0,1.0,1.0
47.4,1361.47,1.0,1.0,1.0
47.41,1370.04,1.0,1.0,1.0
47.42,1400.0,1.0,1.0,1.0
47.43,1369.46,1.0,1.0,1.0
47.44,1475.93,1.0,1.0,1.0
47.45,1505.57,1.0,1.0,1.0
47.46,1542.99,1.0,1.0,1.0
47.47,1553.49,1.0,1.0,1.0
47.48,1648.52,1.0,1.0,1.0
47.49,1671.49,1.0,1.0,1.0
47.5,1716.46,1.0,1.0,1.0
47.51,1725.53,1.0,1.0,1.0
47.52,1791.49,1.0,1.0,1.0
47.53,1761.01,1.0,1.0,1.0
47.54,1903.94,1.0,1.0,1.0
47.55,2009.97,1.0,1.0,1.0
47.56,2100.54,1.0,1.0,1.0
47.57,2111.04,1.0,1.0,1.0
47.58,2208.93,1.0,1.0,1.0
47.59,2219.47,1.0,1.0,1.0
47.6,2367.03,1.0,1.0,1.0
47.61,2422.97,1.0,1.0,1.0
47.62,2491.94,1.0,1.0,1.0
47.63,2598.08,1.0,1.0,1.0
47.64,2817.92,1.0,1.0,1.0
47.65,2877.02,1.0,1.0,1.0
47.66,3108.54,1.0,1.0,1.0
47.67,3236.36,1.0,1.0,1.0
47.68,3290.96,1.0,1.0,1.0
47.69,3616.07,1.0,1.0,1.0
47.7,3887.45,1.0,1.0,1.0
47.71,4069.48,1.0,1.0,1.0
47.72,4288.46,1.0,1.0,1.0
47.73,4587.99,1.0,1.0,1.0
47.74,4980.91,1.0,1.0,1.0
47.75,5548.84,1.0,1.0,1.0
47.76,5810.01,1.0,1.0,1.0
47.77,6355.52,1.0,1.0,1.0
47.78,6987.43,1.0,1.0,1.0
47.79,7878.99,1.0,1.0,1.0
47.8,8712.24,1.0,1.0,1.0
47.81,9943.86,1.0,1.0,1.0
47.82,10950.4,1.0,1.0,1.0
47.83,12698.2,1.0,1.0,1.0
47.84,14698.7,1.0,1.0,1.0
47.85,17139.8,1.0,1.0,1.0
47.86,20259.666,1.0,1.0,1.0
47.87,24759.8,1.0,1.0,1.0
47.88,30566,1.0,1.0,1.0
47.89,38522.6,1.0,1.0,1.0
47.9,50325.082,1.0,1.0,1.0
47.91,68975.1,1.0,1.0,1.0
47.92,114084,1.0,1.0,1.0
47.93,195063,1.0,1.0,1.0
47.94,492308,1.0,1.0,1.0
47.95,2543399.25,1.0,1.0,1.0
47.96,5528974.5,1.0,1.0,1.0
47.97,8457389.0,1.0,1.0,1.0
47.98,11006242.0,1.0,1.0,1.0
47.99,12817432.0,1.0,1.0,1.0
48.0,13453052.0,1.0,1.0,1.0
48.01,12824089.0,1.0,1.0,1.0
48.02,3578521.25,1.0,1.0,1.0
48.03,464051.25,1.0,1.0,1.0
48.04,199486,1.0,1.0,1.0
48.05,122212,1.0,1.0,1.0
48.06,82950.4,1.0,1.0,1.0
48.07,58488.7,1.0,1.0,1.0
48.08,43557.1,1.0,1.0,1.0
48.09,33597.168,1.0,1.0,1.0
48.1,26737.6,1.0,1.0,1.0
48.11,21787.7,1.0,1.0,1.0
48.12,17952.8,1.0,1.0,1.0
48.13,14998.7,1.0,1.0,1.0
48.14,12554.4,1.0,1.0,1.0
48.15,10999.5,1.0,1.0,1.0
48.16,9389.67,1.0,1.0,1.0
48.17,8259.63,1.0,1.0,1.0
48.18,7126.71,1.0,1.0,1.0
48.19,6099.01,1.0,1.0,1.0
48.2,5507.62,1.0,1.0,1.0
48.21,4978.54,1.0,1.0,1.0
48.22,4523.08,1.0,1.0,1.0
48.23,4135.11,1.0,1.0,1.0
48.24,3774.48,1.0,1.0,1.0
48.25,3414.0,1.0,1.0,1.0
48.26,3177.54,1.0,1.0,1.0
48.27,2847.57,1.0,1.0,1.0
48.28,2669.97,1.0,1.0,1.0
48.29,2401.63,1.0,1.0,1.0
48.3,2290.9,1.0,1.0,1.0
48.31,2078.01,1.0,1.0,1.0
48.32,1891.57,1.0,1.0,1.0
48.33,1819.52,1.0,1.0,1.0
48.34,1671.47,1.0,1.0,1.0
48.35,1644.07,1.0,1.0,1.0
48.36,1517.0,1.0,1.0,1.0
48.37,1475.94,1.0,1.0,1.0
48.38,1406.02,1.0,1.0,1.0
48.39,1271.03,1.0,1.0,1.0
48.4,1203.99,1.0,1.0,1.0
48.41,1171.06,1.0,1.0,1.0
48.42,1019.47,1.0,1.0,1.0
48.43,1023.99,1.0,1.0,1.0
48.44,999.4722,1.0,1.0,1.0
48.45,971.5389,1.0,1.0,1.0
48.46,846.0111,1.0,1.0,1.0
48.47,845.0333,1.0,1.0,1.0
48.48,833.4389,1.0,1.0,1.0
48.49,743.5389,1.0,1.0,1.0
48.5,740.5167,1.0,1.0,1.0
48.51,768.5167,1.0,1.0,1.0
48.52,688.4278,1.0,1.0,1.0
48.53,640.0222,1.0,1.0,1.0
48.54,669.0333,1.0,1.0,1.0
48.55,570.5056,1.0,1.0,1.0
48.56,650.4944,1.0,1.0,1.0
48.57,567.5278,1.0,1.0,1.0
48.58,563.4722,1.0,1.0,1.0
48.59,515.5056,1.0,1.0,1.0
48.6,475.0222,1.0,1.0,1.0
48.61,495.5056,1.0,1.0,1.0
48.62,497.9778,1.0,1.0,1.0
48.63,412.5167,1.0,1.0,1.0
48.64,423.5056,1.0,1.0,1.0
48.65,401.4722,1.0,1.0,1.0
48.66,413.5056,1.0,1.0,1.0
48.67,402.0333,1.0,1.0,1.0
48.68,346.0111,1.0,1.0,1.0
48.69,386.4833,1.0,1.0,1.0
48.7,372.5167,1.0,1.0,1.0
48.71,332.5167,1.0,1.0,1.0
48.72,367.9667,1.0,1.0,1.0
48.73,289.0222,1.0,1.0,1.0
48.74,340.4944,1.0,1.0,1.0
48.75,305.4944,1.0,1.0,1.0
48.76,260.0,1.0,1.0,1.0
48.77,307.0,1.0,1.0,1.0
48.78,255.0222,1.0,1.0,1.0
48.79,272.9667,1.0,1.0,1.0
48.8,253.0222,1.0,1.0,1.0
48.81,263.9778,1.0,1.0,1.0
48.82,252.9889,1.0,1.0,1.0
48.83,235.5167,1.0,1.0,1.0
48.84,220.0222,1.0,1.0,1.0
48.85,236.4833,1.0,1.0,1.0
48.86,204.5056,1.0,1.0,1.0
48.87,207.9889,1.0,1.0,1.0
48.88,224.0,1.0,1.0,1.0
48.89,209.5167,1.0,1.0,1.0
48.9,194.9889,1.0,1.0,1.0
48.91,189.0,1.0,1.0,1.0
48.92,182.0111,1.0,1.0,1.0
48.93,206.9889,1.0,1.0,1.0
48.94,180.5056,1.0,1.0,1.0
48.95,176.0111,1.0,1.0,1.0
48.96,160.4833,1.0,1.0,1.0
48.97,190.0222,1.0,1.0,1.0
48.98,155.0,1.0,1.0,1.0
48.99,176.9889,1.0,1.0,1.0
49.0,129.9778,1.0,1.0,1.0
49.01,165.5167,1.0,1.0,1.0
49.02,146.0222,1.0,1.0,1.0
49.03,139.4833,1.0,1.0,1.0
49.04,138.4833,1.0,1.0,1.0
49.05,125.5278,1.0,1.0,1.0
49.06,150.5056,1.0,1.0,1.0
49.07,159.9778,1.0,1.0,1.0
49.08,139.0111,1.0,1.0,1.0
49.09,140.0111,1.0,1.0,1.0
49.1,131.4833,1.0,1.0,1.0
49.11,134.5056,1.0,1.0,1.0
49.12,131.9889,1.0,1.0,1.0
49.13,136.5056,1.0,1.0,1.0
49.14,101.0,1.0,1.0,1.0
49.15,114.5167,1.0,1.0,1.0
49.16,123.4833,1.0,1.0,1.0
49.17,126.0111,1.0,1.0,1.0
49.18,100.9778,1.0,1.0,1.0
49.19,119.0222,1.0,1.0,1.0
49.2,92.0,1.0,1.0,1.0
49.21,104.5056,1.0,1.0,1.0
49.22,90.4944,1.0,1.0,1.0
49.23,109.4833,1.0,1.0,1.0
49.24,103.5167,1.0,1.0,1.0
49.25,85.9889,1.0,1.0,1.0
49.26,96.5056,1.0,1.0,1.0
49.27,104.4944,1.0,1.0,1.0
49.28,84.4944,1.0,1.0,1.0
49.29,87.5167,1.0,1.0,1.0
49.3,78.5056,1.0,1.0,1.0
49.31,94.0,1.0,1.0,1.0
49.32,91.9889,1.0,1.0,1.0
49.33,91.0,1.0,1.0,1.0
49.34,81.0,1.0,1.0,1.0
49.35,95.9889,1.0,1.0,1.0
49.36,94.5056,1.0,1.0,1.0
49.37,73.5167,1.0,1.0,1.0
49.38,72.4833,1.0,1.0,1.0
49.39,81.0111,1.0,1.0,1.0
49.4,81.0,1.0,1.0,1.0
49.41,73.0,1.0,1.0,1.0
49.42,67.5056,1.0,1.0,1.0
49.43,68.9889,1.0,1.0,1.0
49.44,47.0111,1.0,1.0,1.0
49.45,60.0,1.0,1.0,1.0
49.46,62.4944,1.0,1.0,1.0
49.47,71.9889,1.0,1.0,1.0
49.48,81.5056,1.0,1.0,1.0
49.49,79.4944,1.0,1.0,1.0
49.5,52.0111,1.0,1.0,1.0
49.51,68.0,1.0,1.0,1.0
49.52,51.4944,1.0,1.0,1.0
49.53,75.0111,1.0,1.0,1.0
49.54,54.0,1.0,1.0,1.0
49.55,51.9889,1.0,1.0,1.0
49.56,42.0111,1.0,1.0,1.0
49.57,59.9889,1.0,1.0,1.0
49.58,43.0111,1.0,1.0,1.0
49.59,46.9889,1.0,1.0,1.0
49.6,35.0111,1.0,1.0,1.0
49.61,51.4944,1.0,1.0,1.0
49.62,27.5056,1.0,1.0,1.0
49.63,47.4944,1.0,1.0,1.0
49.64,52.5056,1.0,1.0,1.0
49.65,60.4944,1.0,1.0,1.0
49.66,39.0,1.0,1.0,1.0
49.67,43.0,1.0,1.0,1.0
49.68,40.5056,1.0,1.0,1.0
49.69,43.0,1.0,1.0,1.0
49.7,51.0,1.0,1.0,1.0
49.71,27.4944,1.0,1.0,1.0
49.72,30.4944,1.0,1.0,1.0
49.73,53.0111,1.0,1.0,1.0
49.74,31.4944,1.0,1.0,1.0
49.75,36.4944,1.0,1.0,1.0
49.76,30.0111,1.0,1.0,1.0
49.77,54.0,1.0,1.0,1.0
49.78,35.0,1.0,1.0,1.0
49.79,36.4944,1.0,1.0,1.0
49.8,36.0,1.0,1.0,1.0
49.81,52.5056,1.0,1.0,1.0
49.82,20.9889,1.0,1.0,1.0
49.83,41.0,1.0,1.0,1.0
49.84,34.0111,1.0,1.0,1.0
49.85,28.4944,1.0,1.0,1.0
49.86,36.0,1.0,1.0,1.0
49.87,36.5056,1.0,1.0,1.0
49.88,36.9889,1.0,1.0,1.0
49.89,30.0111,1.0,1.0,1.0
49.9,24.0,1.0,1.0,1.0
49.91,38.0,1.0,1.0,1.0
49.92,29.4944,1.0,1.0,1.0
49.93,25.0,1.0,1.0,1.0
49.94,34.5056,1.0,1.0,1.0
49.95,33.0,1.0,1.0,1.0
49.96,43.0,1.0,1.0,1.0
49.97,25.0,1.0,1.0,1.0
49.98,35.9889,1.0,1.0,1.0
49.99,24.0111,1.0,1.0,1.0
50.0,43.0,1.0,1.0,1.0