File: XRD:XRR/LCO/22124_LCOT/22124_LCOT_XRD_002.csv
#twotheta, yobs, ycal, bkg, diff
42.0,5.0,1.0,1.0,1.0
42.01,0.0,1.0,1.0,1.0
42.02,9.0,1.0,1.0,1.0
42.03,0.0,1.0,1.0,1.0
42.04,11.0,1.0,1.0,1.0
42.05,8.0,1.0,1.0,1.0
42.06,3.0,1.0,1.0,1.0
42.07,7.0,1.0,1.0,1.0
42.08,16.4944,1.0,1.0,1.0
42.09,7.5056,1.0,1.0,1.0
42.1,2.0,1.0,1.0,1.0
42.11,8.0,1.0,1.0,1.0
42.12,21.0,1.0,1.0,1.0
42.13,11.0,1.0,1.0,1.0
42.14,6.4944,1.0,1.0,1.0
42.15,5.5056,1.0,1.0,1.0
42.16,9.0,1.0,1.0,1.0
42.17,16.4944,1.0,1.0,1.0
42.18,17.0,1.0,1.0,1.0
42.19,12.5056,1.0,1.0,1.0
42.2,14.0,1.0,1.0,1.0
42.21,10.0,1.0,1.0,1.0
42.22,15.0,1.0,1.0,1.0
42.23,13.0,1.0,1.0,1.0
42.24,7.0,1.0,1.0,1.0
42.25,12.0,1.0,1.0,1.0
42.26,12.0,1.0,1.0,1.0
42.27,6.0,1.0,1.0,1.0
42.28,4.0,1.0,1.0,1.0
42.29,0.0,1.0,1.0,1.0
42.3,10.0,1.0,1.0,1.0
42.31,13.0,1.0,1.0,1.0
42.32,13.0,1.0,1.0,1.0
42.33,11.0,1.0,1.0,1.0
42.34,10.0,1.0,1.0,1.0
42.35,21.0,1.0,1.0,1.0
42.36,13.0,1.0,1.0,1.0
42.37,24.0,1.0,1.0,1.0
42.38,13.4944,1.0,1.0,1.0
42.39,12.5056,1.0,1.0,1.0
42.4,18.0,1.0,1.0,1.0
42.41,18.0,1.0,1.0,1.0
42.42,9.0,1.0,1.0,1.0
42.43,12.0,1.0,1.0,1.0
42.44,8.4944,1.0,1.0,1.0
42.45,5.5056,1.0,1.0,1.0
42.46,4.0,1.0,1.0,1.0
42.47,6.4944,1.0,1.0,1.0
42.48,2.5056,1.0,1.0,1.0
42.49,21.0,1.0,1.0,1.0
42.5,21.0,1.0,1.0,1.0
42.51,6.0,1.0,1.0,1.0
42.52,16.0,1.0,1.0,1.0
42.53,7.4944,1.0,1.0,1.0
42.54,19.5056,1.0,1.0,1.0
42.55,14.0,1.0,1.0,1.0
42.56,17.4944,1.0,1.0,1.0
42.57,4.0,1.0,1.0,1.0
42.58,14.5056,1.0,1.0,1.0
42.59,7.0,1.0,1.0,1.0
42.6,6.0,1.0,1.0,1.0
42.61,11.0,1.0,1.0,1.0
42.62,14.4944,1.0,1.0,1.0
42.63,14.0,1.0,1.0,1.0
42.64,8.0,1.0,1.0,1.0
42.65,15.5056,1.0,1.0,1.0
42.66,14.0,1.0,1.0,1.0
42.67,2.0,1.0,1.0,1.0
42.68,17.0,1.0,1.0,1.0
42.69,14.0,1.0,1.0,1.0
42.7,12.0,1.0,1.0,1.0
42.71,18.0,1.0,1.0,1.0
42.72,7.0,1.0,1.0,1.0
42.73,16.0,1.0,1.0,1.0
42.74,16.0,1.0,1.0,1.0
42.75,14.0,1.0,1.0,1.0
42.76,22.0,1.0,1.0,1.0
42.77,22.0,1.0,1.0,1.0
42.78,14.0,1.0,1.0,1.0
42.79,16.0,1.0,1.0,1.0
42.8,21.0,1.0,1.0,1.0
42.81,18.0,1.0,1.0,1.0
42.82,7.9889,1.0,1.0,1.0
42.83,20.0111,1.0,1.0,1.0
42.84,26.4944,1.0,1.0,1.0
42.85,26.5056,1.0,1.0,1.0
42.86,19.9889,1.0,1.0,1.0
42.87,11.0111,1.0,1.0,1.0
42.88,17.0,1.0,1.0,1.0
42.89,17.4944,1.0,1.0,1.0
42.9,18.5056,1.0,1.0,1.0
42.91,10.0,1.0,1.0,1.0
42.92,11.0,1.0,1.0,1.0
42.93,10.0,1.0,1.0,1.0
42.94,17.4944,1.0,1.0,1.0
42.95,17.0,1.0,1.0,1.0
42.96,11.5056,1.0,1.0,1.0
42.97,8.4944,1.0,1.0,1.0
42.98,22.5056,1.0,1.0,1.0
42.99,12.0,1.0,1.0,1.0
43.0,8.0,1.0,1.0,1.0
43.01,8.0,1.0,1.0,1.0
43.02,11.0,1.0,1.0,1.0
43.03,15.0,1.0,1.0,1.0
43.04,6.0,1.0,1.0,1.0
43.05,9.4944,1.0,1.0,1.0
43.06,12.0,1.0,1.0,1.0
43.07,15.5056,1.0,1.0,1.0
43.08,4.0,1.0,1.0,1.0
43.09,10.0,1.0,1.0,1.0
43.1,12.4944,1.0,1.0,1.0
43.11,19.5056,1.0,1.0,1.0
43.12,25.0,1.0,1.0,1.0
43.13,11.0,1.0,1.0,1.0
43.14,6.4944,1.0,1.0,1.0
43.15,7.5056,1.0,1.0,1.0
43.16,31.0,1.0,1.0,1.0
43.17,32.0,1.0,1.0,1.0
43.18,27.9889,1.0,1.0,1.0
43.19,31.5056,1.0,1.0,1.0
43.2,18.5056,1.0,1.0,1.0
43.21,8.4944,1.0,1.0,1.0
43.22,16.5056,1.0,1.0,1.0
43.23,47.4944,1.0,1.0,1.0
43.24,19.5056,1.0,1.0,1.0
43.25,32.0,1.0,1.0,1.0
43.26,40.4944,1.0,1.0,1.0
43.27,33.4944,1.0,1.0,1.0
43.28,25.0111,1.0,1.0,1.0
43.29,19.4944,1.0,1.0,1.0
43.3,19.0,1.0,1.0,1.0
43.31,32.5056,1.0,1.0,1.0
43.32,29.0,1.0,1.0,1.0
43.33,10.0,1.0,1.0,1.0
43.34,40.4944,1.0,1.0,1.0
43.35,17.0,1.0,1.0,1.0
43.36,24.5056,1.0,1.0,1.0
43.37,19.0,1.0,1.0,1.0
43.38,29.0,1.0,1.0,1.0
43.39,24.4944,1.0,1.0,1.0
43.4,20.5056,1.0,1.0,1.0
43.41,28.0,1.0,1.0,1.0
43.42,28.4944,1.0,1.0,1.0
43.43,20.5056,1.0,1.0,1.0
43.44,21.4944,1.0,1.0,1.0
43.45,22.0,1.0,1.0,1.0
43.46,19.0,1.0,1.0,1.0
43.47,20.5056,1.0,1.0,1.0
43.48,13.0,1.0,1.0,1.0
43.49,7.0,1.0,1.0,1.0
43.5,24.0,1.0,1.0,1.0
43.51,15.0,1.0,1.0,1.0
43.52,14.0,1.0,1.0,1.0
43.53,13.0,1.0,1.0,1.0
43.54,12.0,1.0,1.0,1.0
43.55,10.0,1.0,1.0,1.0
43.56,21.4944,1.0,1.0,1.0
43.57,21.5056,1.0,1.0,1.0
43.58,15.9889,1.0,1.0,1.0
43.59,21.0111,1.0,1.0,1.0
43.6,14.0,1.0,1.0,1.0
43.61,14.4944,1.0,1.0,1.0
43.62,19.5056,1.0,1.0,1.0
43.63,26.0,1.0,1.0,1.0
43.64,16.4833,1.0,1.0,1.0
43.65,32.0111,1.0,1.0,1.0
43.66,27.5056,1.0,1.0,1.0
43.67,15.4944,1.0,1.0,1.0
43.68,17.0,1.0,1.0,1.0
43.69,23.5056,1.0,1.0,1.0
43.7,39.0,1.0,1.0,1.0
43.71,35.0,1.0,1.0,1.0
43.72,43.4944,1.0,1.0,1.0
43.73,29.5056,1.0,1.0,1.0
43.74,40.0,1.0,1.0,1.0
43.75,47.0,1.0,1.0,1.0
43.76,48.0,1.0,1.0,1.0
43.77,43.4944,1.0,1.0,1.0
43.78,32.0,1.0,1.0,1.0
43.79,37.0,1.0,1.0,1.0
43.8,44.0,1.0,1.0,1.0
43.81,46.0,1.0,1.0,1.0
43.82,36.4944,1.0,1.0,1.0
43.83,30.0111,1.0,1.0,1.0
43.84,35.0,1.0,1.0,1.0
43.85,47.0,1.0,1.0,1.0
43.86,31.4944,1.0,1.0,1.0
43.87,18.0,1.0,1.0,1.0
43.88,27.5056,1.0,1.0,1.0
43.89,23.0,1.0,1.0,1.0
43.9,18.0,1.0,1.0,1.0
43.91,36.9889,1.0,1.0,1.0
43.92,28.0111,1.0,1.0,1.0
43.93,28.0,1.0,1.0,1.0
43.94,21.0,1.0,1.0,1.0
43.95,23.0,1.0,1.0,1.0
43.96,36.0,1.0,1.0,1.0
43.97,26.0,1.0,1.0,1.0
43.98,10.0,1.0,1.0,1.0
43.99,18.0,1.0,1.0,1.0
44.0,22.0,1.0,1.0,1.0
44.01,21.0,1.0,1.0,1.0
44.02,21.4944,1.0,1.0,1.0
44.03,34.5056,1.0,1.0,1.0
44.04,29.9889,1.0,1.0,1.0
44.05,25.5056,1.0,1.0,1.0
44.06,29.5056,1.0,1.0,1.0
44.07,31.0,1.0,1.0,1.0
44.08,32.0,1.0,1.0,1.0
44.09,35.4833,1.0,1.0,1.0
44.1,50.4944,1.0,1.0,1.0
44.11,34.0222,1.0,1.0,1.0
44.12,46.0,1.0,1.0,1.0
44.13,46.4833,1.0,1.0,1.0
44.14,30.0111,1.0,1.0,1.0
44.15,43.0,1.0,1.0,1.0
44.16,48.4944,1.0,1.0,1.0
44.17,62.0111,1.0,1.0,1.0
44.18,60.4833,1.0,1.0,1.0
44.19,65.0111,1.0,1.0,1.0
44.2,58.0,1.0,1.0,1.0
44.21,63.0,1.0,1.0,1.0
44.22,90.9889,1.0,1.0,1.0
44.23,84.5056,1.0,1.0,1.0
44.24,71.5056,1.0,1.0,1.0
44.25,56.0,1.0,1.0,1.0
44.26,92.0,1.0,1.0,1.0
44.27,42.0,1.0,1.0,1.0
44.28,63.4944,1.0,1.0,1.0
44.29,69.4833,1.0,1.0,1.0
44.3,75.5167,1.0,1.0,1.0
44.31,72.0,1.0,1.0,1.0
44.32,84.0111,1.0,1.0,1.0
44.33,51.4944,1.0,1.0,1.0
44.34,47.0,1.0,1.0,1.0
44.35,72.0,1.0,1.0,1.0
44.36,53.0,1.0,1.0,1.0
44.37,52.4944,1.0,1.0,1.0
44.38,45.0111,1.0,1.0,1.0
44.39,52.4944,1.0,1.0,1.0
44.4,34.5056,1.0,1.0,1.0
44.41,41.4944,1.0,1.0,1.0
44.42,63.0,1.0,1.0,1.0
44.43,46.0,1.0,1.0,1.0
44.44,44.0,1.0,1.0,1.0
44.45,41.5056,1.0,1.0,1.0
44.46,45.4833,1.0,1.0,1.0
44.47,56.0111,1.0,1.0,1.0
44.48,32.5056,1.0,1.0,1.0
44.49,37.4944,1.0,1.0,1.0
44.5,34.5056,1.0,1.0,1.0
44.51,29.4944,1.0,1.0,1.0
44.52,36.5056,1.0,1.0,1.0
44.53,39.0,1.0,1.0,1.0
44.54,32.4944,1.0,1.0,1.0
44.55,40.5056,1.0,1.0,1.0
44.56,40.0,1.0,1.0,1.0
44.57,39.4944,1.0,1.0,1.0
44.58,47.0,1.0,1.0,1.0
44.59,49.4944,1.0,1.0,1.0
44.6,52.0111,1.0,1.0,1.0
44.61,64.4944,1.0,1.0,1.0
44.62,58.0,1.0,1.0,1.0
44.63,59.5056,1.0,1.0,1.0
44.64,72.0,1.0,1.0,1.0
44.65,71.9889,1.0,1.0,1.0
44.66,95.5056,1.0,1.0,1.0
44.67,78.9889,1.0,1.0,1.0
44.68,87.4944,1.0,1.0,1.0
44.69,87.0222,1.0,1.0,1.0
44.7,95.9889,1.0,1.0,1.0
44.71,99.5056,1.0,1.0,1.0
44.72,108.9889,1.0,1.0,1.0
44.73,152.0,1.0,1.0,1.0
44.74,147.5056,1.0,1.0,1.0
44.75,105.0111,1.0,1.0,1.0
44.76,122.4944,1.0,1.0,1.0
44.77,139.5056,1.0,1.0,1.0
44.78,139.9778,1.0,1.0,1.0
44.79,143.5056,1.0,1.0,1.0
44.8,101.5167,1.0,1.0,1.0
44.81,121.9889,1.0,1.0,1.0
44.82,90.5056,1.0,1.0,1.0
44.83,108.4722,1.0,1.0,1.0
44.84,122.0222,1.0,1.0,1.0
44.85,105.5056,1.0,1.0,1.0
44.86,93.5056,1.0,1.0,1.0
44.87,107.4722,1.0,1.0,1.0
44.88,94.0111,1.0,1.0,1.0
44.89,103.0111,1.0,1.0,1.0
44.9,88.5056,1.0,1.0,1.0
44.91,85.0,1.0,1.0,1.0
44.92,91.4944,1.0,1.0,1.0
44.93,82.5056,1.0,1.0,1.0
44.94,75.0,1.0,1.0,1.0
44.95,63.9889,1.0,1.0,1.0
44.96,47.0111,1.0,1.0,1.0
44.97,66.4944,1.0,1.0,1.0
44.98,67.9889,1.0,1.0,1.0
44.99,65.0111,1.0,1.0,1.0
45.0,44.9889,1.0,1.0,1.0
45.01,55.5167,1.0,1.0,1.0
45.02,54.9889,1.0,1.0,1.0
45.03,59.0111,1.0,1.0,1.0
45.04,60.9889,1.0,1.0,1.0
45.05,83.4944,1.0,1.0,1.0
45.06,73.5056,1.0,1.0,1.0
45.07,55.0111,1.0,1.0,1.0
45.08,62.4944,1.0,1.0,1.0
45.09,99.9889,1.0,1.0,1.0
45.1,107.5056,1.0,1.0,1.0
45.11,86.4944,1.0,1.0,1.0
45.12,107.0,1.0,1.0,1.0
45.13,116.0,1.0,1.0,1.0
45.14,122.9889,1.0,1.0,1.0
45.15,129.0111,1.0,1.0,1.0
45.16,170.5167,1.0,1.0,1.0
45.17,166.9889,1.0,1.0,1.0
45.18,160.9778,1.0,1.0,1.0
45.19,176.9889,1.0,1.0,1.0
45.2,213.5278,1.0,1.0,1.0
45.21,179.4833,1.0,1.0,1.0
45.22,194.5278,1.0,1.0,1.0
45.23,195.4833,1.0,1.0,1.0
45.24,245.4833,1.0,1.0,1.0
45.25,212.0111,1.0,1.0,1.0
45.26,215.0111,1.0,1.0,1.0
45.27,214.4611,1.0,1.0,1.0
45.28,250.0444,1.0,1.0,1.0
45.29,212.9778,1.0,1.0,1.0
45.3,268.0222,1.0,1.0,1.0
45.31,238.4833,1.0,1.0,1.0
45.32,250.0222,1.0,1.0,1.0
45.33,265.4833,1.0,1.0,1.0
45.34,201.5056,1.0,1.0,1.0
45.35,223.4833,1.0,1.0,1.0
45.36,216.5056,1.0,1.0,1.0
45.37,187.0,1.0,1.0,1.0
45.38,210.5056,1.0,1.0,1.0
45.39,222.4833,1.0,1.0,1.0
45.4,194.5278,1.0,1.0,1.0
45.41,161.9889,1.0,1.0,1.0
45.42,173.0,1.0,1.0,1.0
45.43,148.4833,1.0,1.0,1.0
45.44,156.0333,1.0,1.0,1.0
45.45,116.4944,1.0,1.0,1.0
45.46,121.0,1.0,1.0,1.0
45.47,123.0,1.0,1.0,1.0
45.48,108.4833,1.0,1.0,1.0
45.49,116.0,1.0,1.0,1.0
45.5,109.0222,1.0,1.0,1.0
45.51,83.4944,1.0,1.0,1.0
45.52,73.0,1.0,1.0,1.0
45.53,97.0111,1.0,1.0,1.0
45.54,76.0,1.0,1.0,1.0
45.55,95.9889,1.0,1.0,1.0
45.56,76.5056,1.0,1.0,1.0
45.57,104.4833,1.0,1.0,1.0
45.58,114.5056,1.0,1.0,1.0
45.59,108.4944,1.0,1.0,1.0
45.6,159.4944,1.0,1.0,1.0
45.61,142.5167,1.0,1.0,1.0
45.62,184.9778,1.0,1.0,1.0
45.63,176.4944,1.0,1.0,1.0
45.64,226.0111,1.0,1.0,1.0
45.65,249.9889,1.0,1.0,1.0
45.66,307.0,1.0,1.0,1.0
45.67,313.4833,1.0,1.0,1.0
45.68,359.0222,1.0,1.0,1.0
45.69,368.9778,1.0,1.0,1.0
45.7,422.0222,1.0,1.0,1.0
45.71,405.9889,1.0,1.0,1.0
45.72,507.9778,1.0,1.0,1.0
45.73,529.0111,1.0,1.0,1.0
45.74,508.0333,1.0,1.0,1.0
45.75,503.4611,1.0,1.0,1.0
45.76,577.0111,1.0,1.0,1.0
45.77,688.4833,1.0,1.0,1.0
45.78,662.0,1.0,1.0,1.0
45.79,693.0,1.0,1.0,1.0
45.8,692.9778,1.0,1.0,1.0
45.81,697.0,1.0,1.0,1.0
45.82,791.0444,1.0,1.0,1.0
45.83,743.4722,1.0,1.0,1.0
45.84,714.0,1.0,1.0,1.0
45.85,750.9445,1.0,1.0,1.0
45.86,673.0222,1.0,1.0,1.0
45.87,663.5167,1.0,1.0,1.0
45.88,685.5278,1.0,1.0,1.0
45.89,672.5056,1.0,1.0,1.0
45.9,633.9445,1.0,1.0,1.0
45.91,657.0667,1.0,1.0,1.0
45.92,574.9778,1.0,1.0,1.0
45.93,527.0111,1.0,1.0,1.0
45.94,510.5167,1.0,1.0,1.0
45.95,486.4833,1.0,1.0,1.0
45.96,427.0222,1.0,1.0,1.0
45.97,344.4833,1.0,1.0,1.0
45.98,360.0111,1.0,1.0,1.0
45.99,281.4944,1.0,1.0,1.0
46.0,257.0222,1.0,1.0,1.0
46.01,198.0111,1.0,1.0,1.0
46.02,191.4944,1.0,1.0,1.0
46.03,133.5056,1.0,1.0,1.0
46.04,132.9889,1.0,1.0,1.0
46.05,110.5056,1.0,1.0,1.0
46.06,118.4944,1.0,1.0,1.0
46.07,114.5167,1.0,1.0,1.0
46.08,136.4833,1.0,1.0,1.0
46.09,168.4944,1.0,1.0,1.0
46.1,200.0111,1.0,1.0,1.0
46.11,280.9889,1.0,1.0,1.0
46.12,413.9889,1.0,1.0,1.0
46.13,493.9667,1.0,1.0,1.0
46.14,503.9889,1.0,1.0,1.0
46.15,695.5056,1.0,1.0,1.0
46.16,913.9667,1.0,1.0,1.0
46.17,1072.46,1.0,1.0,1.0
46.18,1357.48,1.0,1.0,1.0
46.19,1583.53,1.0,1.0,1.0
46.2,1997.9,1.0,1.0,1.0
46.21,2240.439,1.0,1.0,1.0
46.22,2676.52,1.0,1.0,1.0
46.23,2970.46,1.0,1.0,1.0
46.24,3523.36,1.0,1.0,1.0
46.25,3976.01,1.0,1.0,1.0
46.26,4615.0,1.0,1.0,1.0
46.27,5147.33,1.0,1.0,1.0
46.28,5902.35,1.0,1.0,1.0
46.29,6572.1,1.0,1.0,1.0
46.3,7568.79,1.0,1.0,1.0
46.31,8613.24,1.0,1.0,1.0
46.32,9524.38,1.0,1.0,1.0
46.33,10585.5,1.0,1.0,1.0
46.34,11986.7,1.0,1.0,1.0
46.35,13721.9,1.0,1.0,1.0
46.36,15662.4,1.0,1.0,1.0
46.37,19054.916,1.0,1.0,1.0
46.38,22801,1.0,1.0,1.0
46.39,28710.1,1.0,1.0,1.0
46.4,39097.9,1.0,1.0,1.0
46.41,55072.1,1.0,1.0,1.0
46.42,81365.8,1.0,1.0,1.0
46.43,131154,1.0,1.0,1.0
46.44,226729,1.0,1.0,1.0
46.45,393082,1.0,1.0,1.0
46.46,638873,1.0,1.0,1.0
46.47,1360912.75,1.0,1.0,1.0
46.48,7479363.0,1.0,1.0,1.0
46.49,44020788.0,1.0,1.0,1.0
46.5,29313042.0,1.0,1.0,1.0
46.51,3144145.5,1.0,1.0,1.0
46.52,632381,1.0,1.0,1.0
46.53,330194,1.0,1.0,1.0
46.54,226508,1.0,1.0,1.0
46.55,170977,1.0,1.0,1.0
46.56,134147,1.0,1.0,1.0
46.57,110146,1.0,1.0,1.0
46.58,96751.0,1.0,1.0,1.0
46.59,87737.5,1.0,1.0,1.0
46.6,81500.1,1.0,1.0,1.0
46.61,75951.8,1.0,1.0,1.0
46.62,72411.5,1.0,1.0,1.0
46.63,69111.2,1.0,1.0,1.0
46.64,67654.8,1.0,1.0,1.0
46.65,65398.7,1.0,1.0,1.0
46.66,64222.9,1.0,1.0,1.0
46.67,62809.4,1.0,1.0,1.0
46.68,61859.543,1.0,1.0,1.0
46.69,60987.957,1.0,1.0,1.0
46.7,60215.4,1.0,1.0,1.0
46.71,59700.2,1.0,1.0,1.0
46.72,58730.75,1.0,1.0,1.0
46.73,58194.7,1.0,1.0,1.0
46.74,57563.1,1.0,1.0,1.0
46.75,57381.582,1.0,1.0,1.0
46.76,56014.6,1.0,1.0,1.0
46.77,55634.8,1.0,1.0,1.0
46.78,54666.7,1.0,1.0,1.0
46.79,53341.9,1.0,1.0,1.0
46.8,53270.3,1.0,1.0,1.0
46.81,52241.2,1.0,1.0,1.0
46.82,51215.332,1.0,1.0,1.0
46.83,49942.668,1.0,1.0,1.0
46.84,49463.9,1.0,1.0,1.0
46.85,48267.8,1.0,1.0,1.0
46.86,46665.9,1.0,1.0,1.0
46.87,45705.4,1.0,1.0,1.0
46.88,44484.8,1.0,1.0,1.0
46.89,43580.3,1.0,1.0,1.0
46.9,42449.582,1.0,1.0,1.0
46.91,40763.7,1.0,1.0,1.0
46.92,39143.1,1.0,1.0,1.0
46.93,38440.3,1.0,1.0,1.0
46.94,36976.3,1.0,1.0,1.0
46.95,35482.5,1.0,1.0,1.0
46.96,34174.4,1.0,1.0,1.0
46.97,32302,1.0,1.0,1.0
46.98,31154.6,1.0,1.0,1.0
46.99,29939,1.0,1.0,1.0
47.0,28154.2,1.0,1.0,1.0
47.01,26617.2,1.0,1.0,1.0
47.02,25359.6,1.0,1.0,1.0
47.03,23724.627,1.0,1.0,1.0
47.04,22433.9,1.0,1.0,1.0
47.05,21055.9,1.0,1.0,1.0
47.06,19716.7,1.0,1.0,1.0
47.07,18582.5,1.0,1.0,1.0
47.08,17113.8,1.0,1.0,1.0
47.09,15822.8,1.0,1.0,1.0
47.1,14802.4,1.0,1.0,1.0
47.11,13719.1,1.0,1.0,1.0
47.12,12349.5,1.0,1.0,1.0
47.13,11237.4,1.0,1.0,1.0
47.14,10294,1.0,1.0,1.0
47.15,9476.08,1.0,1.0,1.0
47.16,8631.63,1.0,1.0,1.0
47.17,7636.21,1.0,1.0,1.0
47.18,6888.01,1.0,1.0,1.0
47.19,6102.04,1.0,1.0,1.0
47.2,5316.64,1.0,1.0,1.0
47.21,4540.07,1.0,1.0,1.0
47.22,4027.09,1.0,1.0,1.0
47.23,3487.99,1.0,1.0,1.0
47.24,3057.52,1.0,1.0,1.0
47.25,2490.13,1.0,1.0,1.0
47.26,2117.04,1.0,1.0,1.0
47.27,1703.54,1.0,1.0,1.0
47.28,1461.03,1.0,1.0,1.0
47.29,1146.51,1.0,1.0,1.0
47.3,920.0222,1.0,1.0,1.0
47.31,706.0444,1.0,1.0,1.0
47.32,561.0111,1.0,1.0,1.0
47.33,439.0333,1.0,1.0,1.0
47.34,370.9445,1.0,1.0,1.0
47.35,308.5389,1.0,1.0,1.0
47.36,260.5056,1.0,1.0,1.0
47.37,217.0,1.0,1.0,1.0
47.38,284.4944,1.0,1.0,1.0
47.39,267.4722,1.0,1.0,1.0
47.4,296.0444,1.0,1.0,1.0
47.41,356.4611,1.0,1.0,1.0
47.42,404.4944,1.0,1.0,1.0
47.43,479.5056,1.0,1.0,1.0
47.44,571.4722,1.0,1.0,1.0
47.45,659.9889,1.0,1.0,1.0
47.46,732.9889,1.0,1.0,1.0
47.47,768.9889,1.0,1.0,1.0
47.48,914.0,1.0,1.0,1.0
47.49,977.5389,1.0,1.0,1.0
47.5,1002.96,1.0,1.0,1.0
47.51,1046.99,1.0,1.0,1.0
47.52,1161.99,1.0,1.0,1.0
47.53,1181.02,1.0,1.0,1.0
47.54,1206.01,1.0,1.0,1.0
47.55,1250.97,1.0,1.0,1.0
47.56,1339.48,1.0,1.0,1.0
47.57,1272.06,1.0,1.0,1.0
47.58,1273.48,1.0,1.0,1.0
47.59,1289.49,1.0,1.0,1.0
47.6,1238.54,1.0,1.0,1.0
47.61,1236.44,1.0,1.0,1.0
47.62,1245.98,1.0,1.0,1.0
47.63,1164.02,1.0,1.0,1.0
47.64,1154.01,1.0,1.0,1.0
47.65,1062.57,1.0,1.0,1.0
47.66,1061.46,1.0,1.0,1.0
47.67,1025.49,1.0,1.0,1.0
47.68,935.9889,1.0,1.0,1.0
47.69,902.0,1.0,1.0,1.0
47.7,833.0111,1.0,1.0,1.0
47.71,751.0555,1.0,1.0,1.0
47.72,732.4722,1.0,1.0,1.0
47.73,694.0111,1.0,1.0,1.0
47.74,577.4833,1.0,1.0,1.0
47.75,549.0222,1.0,1.0,1.0
47.76,456.0,1.0,1.0,1.0
47.77,400.0444,1.0,1.0,1.0
47.78,373.4944,1.0,1.0,1.0
47.79,316.9889,1.0,1.0,1.0
47.8,310.9778,1.0,1.0,1.0
47.81,247.0444,1.0,1.0,1.0
47.82,218.0,1.0,1.0,1.0
47.83,145.4944,1.0,1.0,1.0
47.84,149.5056,1.0,1.0,1.0
47.85,114.9889,1.0,1.0,1.0
47.86,109.0222,1.0,1.0,1.0
47.87,102.4944,1.0,1.0,1.0
47.88,102.4944,1.0,1.0,1.0
47.89,80.9889,1.0,1.0,1.0
47.9,82.5167,1.0,1.0,1.0
47.91,83.4944,1.0,1.0,1.0
47.92,106.0,1.0,1.0,1.0
47.93,93.4833,1.0,1.0,1.0
47.94,142.0111,1.0,1.0,1.0
47.95,146.0,1.0,1.0,1.0
47.96,176.4944,1.0,1.0,1.0
47.97,177.0222,1.0,1.0,1.0
47.98,212.9889,1.0,1.0,1.0
47.99,214.9889,1.0,1.0,1.0
48.0,237.0,1.0,1.0,1.0
48.01,215.4944,1.0,1.0,1.0
48.02,291.9778,1.0,1.0,1.0
48.03,309.5056,1.0,1.0,1.0
48.04,301.5167,1.0,1.0,1.0
48.05,309.9778,1.0,1.0,1.0
48.06,349.5278,1.0,1.0,1.0
48.07,361.4722,1.0,1.0,1.0
48.08,331.4944,1.0,1.0,1.0
48.09,334.4944,1.0,1.0,1.0
48.1,360.5389,1.0,1.0,1.0
48.11,337.0111,1.0,1.0,1.0
48.12,350.9333,1.0,1.0,1.0
48.13,352.5167,1.0,1.0,1.0
48.14,330.0222,1.0,1.0,1.0
48.15,311.0,1.0,1.0,1.0
48.16,348.0222,1.0,1.0,1.0
48.17,337.4611,1.0,1.0,1.0
48.18,284.0,1.0,1.0,1.0
48.19,297.0222,1.0,1.0,1.0
48.2,287.5056,1.0,1.0,1.0
48.21,254.4944,1.0,1.0,1.0
48.22,250.0222,1.0,1.0,1.0
48.23,246.4611,1.0,1.0,1.0
48.24,215.0222,1.0,1.0,1.0
48.25,200.0111,1.0,1.0,1.0
48.26,177.0,1.0,1.0,1.0
48.27,171.9889,1.0,1.0,1.0
48.28,128.0111,1.0,1.0,1.0
48.29,121.5167,1.0,1.0,1.0
48.3,138.4944,1.0,1.0,1.0
48.31,104.9889,1.0,1.0,1.0
48.32,110.0111,1.0,1.0,1.0
48.33,94.9889,1.0,1.0,1.0
48.34,84.0111,1.0,1.0,1.0
48.35,68.4944,1.0,1.0,1.0
48.36,68.5056,1.0,1.0,1.0
48.37,67.0,1.0,1.0,1.0
48.38,54.5056,1.0,1.0,1.0
48.39,54.0,1.0,1.0,1.0
48.4,55.0,1.0,1.0,1.0
48.41,40.4833,1.0,1.0,1.0
48.42,49.5167,1.0,1.0,1.0
48.43,49.4944,1.0,1.0,1.0
48.44,43.5056,1.0,1.0,1.0
48.45,66.4944,1.0,1.0,1.0
48.46,73.0,1.0,1.0,1.0
48.47,51.5056,1.0,1.0,1.0
48.48,62.4944,1.0,1.0,1.0
48.49,64.4944,1.0,1.0,1.0
48.5,78.0111,1.0,1.0,1.0
48.51,79.4944,1.0,1.0,1.0
48.52,99.5056,1.0,1.0,1.0
48.53,92.4722,1.0,1.0,1.0
48.54,86.0222,1.0,1.0,1.0
48.55,95.4944,1.0,1.0,1.0
48.56,137.5056,1.0,1.0,1.0
48.57,133.0,1.0,1.0,1.0
48.58,134.0,1.0,1.0,1.0
48.59,130.4722,1.0,1.0,1.0
48.6,136.5278,1.0,1.0,1.0
48.61,147.9889,1.0,1.0,1.0
48.62,127.0,1.0,1.0,1.0
48.63,124.5167,1.0,1.0,1.0
48.64,125.4833,1.0,1.0,1.0
48.65,159.4944,1.0,1.0,1.0
48.66,123.5056,1.0,1.0,1.0
48.67,120.5056,1.0,1.0,1.0
48.68,115.4944,1.0,1.0,1.0
48.69,129.0,1.0,1.0,1.0
48.7,117.0,1.0,1.0,1.0
48.71,103.0111,1.0,1.0,1.0
48.72,123.0,1.0,1.0,1.0
48.73,82.4944,1.0,1.0,1.0
48.74,97.0,1.0,1.0,1.0
48.75,89.0,1.0,1.0,1.0
48.76,78.5056,1.0,1.0,1.0
48.77,72.4944,1.0,1.0,1.0
48.78,90.0,1.0,1.0,1.0
48.79,80.5056,1.0,1.0,1.0
48.8,73.5056,1.0,1.0,1.0
48.81,47.4833,1.0,1.0,1.0
48.82,39.0,1.0,1.0,1.0
48.83,55.5167,1.0,1.0,1.0
48.84,32.4944,1.0,1.0,1.0
48.85,40.0,1.0,1.0,1.0
48.86,52.4833,1.0,1.0,1.0
48.87,30.0222,1.0,1.0,1.0
48.88,38.0,1.0,1.0,1.0
48.89,29.0,1.0,1.0,1.0
48.9,28.0,1.0,1.0,1.0
48.91,29.4944,1.0,1.0,1.0
48.92,40.4944,1.0,1.0,1.0
48.93,30.5056,1.0,1.0,1.0
48.94,20.5056,1.0,1.0,1.0
48.95,39.9778,1.0,1.0,1.0
48.96,41.0222,1.0,1.0,1.0
48.97,48.0,1.0,1.0,1.0
48.98,65.4944,1.0,1.0,1.0
48.99,33.0,1.0,1.0,1.0
49.0,36.4944,1.0,1.0,1.0
49.01,45.4944,1.0,1.0,1.0
49.02,44.0111,1.0,1.0,1.0
49.03,46.5056,1.0,1.0,1.0
49.04,42.4944,1.0,1.0,1.0
49.05,61.5056,1.0,1.0,1.0
49.06,38.0,1.0,1.0,1.0
49.07,49.0,1.0,1.0,1.0
49.08,41.4833,1.0,1.0,1.0
49.09,52.5167,1.0,1.0,1.0
49.1,43.4944,1.0,1.0,1.0
49.11,63.0,1.0,1.0,1.0
49.12,66.4944,1.0,1.0,1.0
49.13,63.0111,1.0,1.0,1.0
49.14,51.4944,1.0,1.0,1.0
49.15,57.4944,1.0,1.0,1.0
49.16,60.4944,1.0,1.0,1.0
49.17,54.5167,1.0,1.0,1.0
49.18,66.9889,1.0,1.0,1.0
49.19,64.0111,1.0,1.0,1.0
49.2,71.0,1.0,1.0,1.0
49.21,47.4944,1.0,1.0,1.0
49.22,45.5056,1.0,1.0,1.0
49.23,56.9889,1.0,1.0,1.0
49.24,52.0111,1.0,1.0,1.0
49.25,47.4944,1.0,1.0,1.0
49.26,47.0,1.0,1.0,1.0
49.27,44.0,1.0,1.0,1.0
49.28,47.5056,1.0,1.0,1.0
49.29,61.0,1.0,1.0,1.0
49.3,34.4944,1.0,1.0,1.0
49.31,36.4944,1.0,1.0,1.0
49.32,26.0111,1.0,1.0,1.0
49.33,29.4944,1.0,1.0,1.0
49.34,33.5056,1.0,1.0,1.0
49.35,30.4944,1.0,1.0,1.0
49.36,18.5056,1.0,1.0,1.0
49.37,15.0,1.0,1.0,1.0
49.38,37.4944,1.0,1.0,1.0
49.39,27.0,1.0,1.0,1.0
49.4,28.5056,1.0,1.0,1.0
49.41,20.0,1.0,1.0,1.0
49.42,16.0,1.0,1.0,1.0
49.43,21.9889,1.0,1.0,1.0
49.44,27.0111,1.0,1.0,1.0
49.45,17.0,1.0,1.0,1.0
49.46,20.4944,1.0,1.0,1.0
49.47,21.5056,1.0,1.0,1.0
49.48,25.0,1.0,1.0,1.0
49.49,27.4944,1.0,1.0,1.0
49.5,27.5056,1.0,1.0,1.0
49.51,12.0,1.0,1.0,1.0
49.52,32.0,1.0,1.0,1.0
49.53,26.0,1.0,1.0,1.0
49.54,33.4944,1.0,1.0,1.0
49.55,46.4944,1.0,1.0,1.0
49.56,28.0111,1.0,1.0,1.0
49.57,22.9889,1.0,1.0,1.0
49.58,26.0111,1.0,1.0,1.0
49.59,31.0,1.0,1.0,1.0
49.6,15.0,1.0,1.0,1.0
49.61,50.0,1.0,1.0,1.0
49.62,28.0,1.0,1.0,1.0
49.63,36.4944,1.0,1.0,1.0
49.64,16.0,1.0,1.0,1.0
49.65,35.5056,1.0,1.0,1.0
49.66,28.9889,1.0,1.0,1.0
49.67,35.0111,1.0,1.0,1.0
49.68,18.4944,1.0,1.0,1.0
49.69,20.5056,1.0,1.0,1.0
49.7,31.0,1.0,1.0,1.0
49.71,22.0,1.0,1.0,1.0
49.72,25.0,1.0,1.0,1.0
49.73,29.0,1.0,1.0,1.0
49.74,26.0,1.0,1.0,1.0
49.75,29.0,1.0,1.0,1.0
49.76,40.0,1.0,1.0,1.0
49.77,16.0,1.0,1.0,1.0
49.78,33.0,1.0,1.0,1.0
49.79,19.0,1.0,1.0,1.0
49.8,25.0,1.0,1.0,1.0
49.81,17.0,1.0,1.0,1.0
49.82,15.0,1.0,1.0,1.0
49.83,26.0,1.0,1.0,1.0
49.84,19.4944,1.0,1.0,1.0
49.85,25.0,1.0,1.0,1.0
49.86,16.5056,1.0,1.0,1.0
49.87,10.0,1.0,1.0,1.0
49.88,15.0,1.0,1.0,1.0
49.89,13.4944,1.0,1.0,1.0
49.9,12.5056,1.0,1.0,1.0
49.91,4.0,1.0,1.0,1.0
49.92,10.0,1.0,1.0,1.0
49.93,55.0,1.0,1.0,1.0
49.94,12.0,1.0,1.0,1.0
49.95,11.0,1.0,1.0,1.0
49.96,21.0,1.0,1.0,1.0
49.97,12.0,1.0,1.0,1.0
49.98,7.0,1.0,1.0,1.0
49.99,9.0,1.0,1.0,1.0
50.0,4.0,1.0,1.0,1.0
50.01,10.0,1.0,1.0,1.0
50.02,26.0,1.0,1.0,1.0
50.03,13.0,1.0,1.0,1.0
50.04,10.4944,1.0,1.0,1.0
50.05,20.5056,1.0,1.0,1.0
50.06,6.0,1.0,1.0,1.0
50.07,18.0,1.0,1.0,1.0
50.08,20.0,1.0,1.0,1.0
50.09,21.0,1.0,1.0,1.0
50.1,5.9889,1.0,1.0,1.0
50.11,19.5056,1.0,1.0,1.0
50.12,31.0,1.0,1.0,1.0
50.13,12.4944,1.0,1.0,1.0
50.14,19.0111,1.0,1.0,1.0
50.15,15.0,1.0,1.0,1.0
50.16,11.0,1.0,1.0,1.0
50.17,4.0,1.0,1.0,1.0
50.18,11.0,1.0,1.0,1.0
50.19,17.0,1.0,1.0,1.0
50.2,12.0,1.0,1.0,1.0
50.21,24.4944,1.0,1.0,1.0
50.22,11.5056,1.0,1.0,1.0
50.23,12.0,1.0,1.0,1.0
50.24,4.0,1.0,1.0,1.0
50.25,5.0,1.0,1.0,1.0
50.26,7.0,1.0,1.0,1.0
50.27,13.0,1.0,1.0,1.0
50.28,8.0,1.0,1.0,1.0
50.29,10.0,1.0,1.0,1.0
50.3,13.0,1.0,1.0,1.0
50.31,11.4944,1.0,1.0,1.0
50.32,18.0,1.0,1.0,1.0
50.33,10.5056,1.0,1.0,1.0
50.34,7.0,1.0,1.0,1.0
50.35,14.0,1.0,1.0,1.0
50.36,14.4944,1.0,1.0,1.0
50.37,10.5056,1.0,1.0,1.0
50.38,8.0,1.0,1.0,1.0
50.39,20.4944,1.0,1.0,1.0
50.4,21.5056,1.0,1.0,1.0
50.41,17.4944,1.0,1.0,1.0
50.42,6.0,1.0,1.0,1.0
50.43,7.5056,1.0,1.0,1.0
50.44,7.0,1.0,1.0,1.0
50.45,11.0,1.0,1.0,1.0
50.46,4.4944,1.0,1.0,1.0
50.47,5.5056,1.0,1.0,1.0
50.48,14.0,1.0,1.0,1.0
50.49,6.0,1.0,1.0,1.0
50.5,13.0,1.0,1.0,1.0
50.51,24.0,1.0,1.0,1.0
50.52,12.0,1.0,1.0,1.0
50.53,10.0,1.0,1.0,1.0
50.54,9.0,1.0,1.0,1.0
50.55,13.4944,1.0,1.0,1.0
50.56,6.5056,1.0,1.0,1.0
50.57,12.0,1.0,1.0,1.0
50.58,7.4944,1.0,1.0,1.0
50.59,9.5056,1.0,1.0,1.0
50.6,15.0,1.0,1.0,1.0
50.61,9.0,1.0,1.0,1.0
50.62,14.4944,1.0,1.0,1.0
50.63,9.5056,1.0,1.0,1.0
50.64,0.4944,1.0,1.0,1.0
50.65,5.5056,1.0,1.0,1.0
50.66,20.4944,1.0,1.0,1.0
50.67,3.5056,1.0,1.0,1.0
50.68,5.0,1.0,1.0,1.0
50.69,4.0,1.0,1.0,1.0
50.7,8.0,1.0,1.0,1.0
50.71,7.0,1.0,1.0,1.0
50.72,14.0,1.0,1.0,1.0
50.73,9.0,1.0,1.0,1.0
50.74,7.0,1.0,1.0,1.0
50.75,4.4944,1.0,1.0,1.0
50.76,12.5056,1.0,1.0,1.0
50.77,14.0,1.0,1.0,1.0
50.78,0.0,1.0,1.0,1.0
50.79,4.0,1.0,1.0,1.0
50.8,8.0,1.0,1.0,1.0
50.81,13.4944,1.0,1.0,1.0
50.82,9.5056,1.0,1.0,1.0
50.83,12.0,1.0,1.0,1.0
50.84,5.0,1.0,1.0,1.0
50.85,7.0,1.0,1.0,1.0
50.86,2.0,1.0,1.0,1.0
50.87,14.0,1.0,1.0,1.0
50.88,14.0,1.0,1.0,1.0
50.89,8.4944,1.0,1.0,1.0
50.9,9.5056,1.0,1.0,1.0
50.91,12.0,1.0,1.0,1.0
50.92,11.0,1.0,1.0,1.0
50.93,10.0,1.0,1.0,1.0
50.94,7.9889,1.0,1.0,1.0
50.95,3.0111,1.0,1.0,1.0
50.96,3.0,1.0,1.0,1.0
50.97,13.0,1.0,1.0,1.0
50.98,12.4944,1.0,1.0,1.0
50.99,6.5056,1.0,1.0,1.0
51.0,3.0,1.0,1.0,1.0
51.01,0.0,1.0,1.0,1.0
51.02,11.0,1.0,1.0,1.0
51.03,14.0,1.0,1.0,1.0
51.04,6.0,1.0,1.0,1.0
51.05,7.0,1.0,1.0,1.0
51.06,10.0,1.0,1.0,1.0
51.07,5.0,1.0,1.0,1.0
51.08,3.0,1.0,1.0,1.0
51.09,8.0,1.0,1.0,1.0
51.1,12.0,1.0,1.0,1.0
51.11,4.0,1.0,1.0,1.0
51.12,2.0,1.0,1.0,1.0
51.13,2.0,1.0,1.0,1.0
51.14,0.0,1.0,1.0,1.0
51.15,0.0,1.0,1.0,1.0
51.16,4.0,1.0,1.0,1.0
51.17,2.0,1.0,1.0,1.0
51.18,2.0,1.0,1.0,1.0
51.19,8.0,1.0,1.0,1.0
51.2,6.0,1.0,1.0,1.0
51.21,3.0,1.0,1.0,1.0
51.22,12.0,1.0,1.0,1.0
51.23,0.0,1.0,1.0,1.0
51.24,4.0,1.0,1.0,1.0
51.25,4.0,1.0,1.0,1.0
51.26,2.0,1.0,1.0,1.0
51.27,8.0,1.0,1.0,1.0
51.28,6.4944,1.0,1.0,1.0
51.29,10.5056,1.0,1.0,1.0
51.3,2.0,1.0,1.0,1.0
51.31,3.0,1.0,1.0,1.0
51.32,3.0,1.0,1.0,1.0
51.33,3.0,1.0,1.0,1.0
51.34,7.0,1.0,1.0,1.0
51.35,6.0,1.0,1.0,1.0
51.36,9.0,1.0,1.0,1.0
51.37,9.0,1.0,1.0,1.0
51.38,2.0,1.0,1.0,1.0
51.39,11.0,1.0,1.0,1.0
51.4,11.0,1.0,1.0,1.0
51.41,10.0,1.0,1.0,1.0
51.42,4.0,1.0,1.0,1.0
51.43,7.4944,1.0,1.0,1.0
51.44,6.5056,1.0,1.0,1.0
51.45,5.0,1.0,1.0,1.0
51.46,2.0,1.0,1.0,1.0
51.47,14.0,1.0,1.0,1.0
51.48,6.0,1.0,1.0,1.0
51.49,6.0,1.0,1.0,1.0
51.5,9.0,1.0,1.0,1.0
51.51,3.0,1.0,1.0,1.0
51.52,11.0,1.0,1.0,1.0
51.53,2.0,1.0,1.0,1.0
51.54,0.0,1.0,1.0,1.0
51.55,7.0,1.0,1.0,1.0
51.56,7.0,1.0,1.0,1.0
51.57,8.4944,1.0,1.0,1.0
51.58,9.5056,1.0,1.0,1.0
51.59,2.4944,1.0,1.0,1.0
51.6,3.5056,1.0,1.0,1.0
51.61,7.0,1.0,1.0,1.0
51.62,8.0,1.0,1.0,1.0
51.63,0.0,1.0,1.0,1.0
51.64,0.0,1.0,1.0,1.0
51.65,2.0,1.0,1.0,1.0
51.66,10.0,1.0,1.0,1.0
51.67,8.0,1.0,1.0,1.0
51.68,8.0,1.0,1.0,1.0
51.69,5.0,1.0,1.0,1.0
51.7,7.0,1.0,1.0,1.0
51.71,7.0,1.0,1.0,1.0
51.72,9.4944,1.0,1.0,1.0
51.73,5.5056,1.0,1.0,1.0
51.74,2.0,1.0,1.0,1.0
51.75,4.0,1.0,1.0,1.0
51.76,5.0,1.0,1.0,1.0
51.77,5.0,1.0,1.0,1.0
51.78,2.0,1.0,1.0,1.0
51.79,3.0,1.0,1.0,1.0
51.8,3.4944,1.0,1.0,1.0
51.81,5.5056,1.0,1.0,1.0
51.82,0.0,1.0,1.0,1.0
51.83,2.0,1.0,1.0,1.0
51.84,2.0,1.0,1.0,1.0
51.85,9.0,1.0,1.0,1.0
51.86,2.0,1.0,1.0,1.0
51.87,3.0,1.0,1.0,1.0
51.88,8.0,1.0,1.0,1.0
51.89,7.0,1.0,1.0,1.0
51.9,10.0,1.0,1.0,1.0
51.91,5.0,1.0,1.0,1.0
51.92,6.0,1.0,1.0,1.0
51.93,2.0,1.0,1.0,1.0
51.94,0.0,1.0,1.0,1.0
51.95,13.0,1.0,1.0,1.0
51.96,9.0,1.0,1.0,1.0
51.97,5.0,1.0,1.0,1.0
51.98,7.0,1.0,1.0,1.0
51.99,1.0,1.0,1.0,1.0
52.0,1.0,1.0,1.0,1.0