File: XRD:XRR/LCO/22127_LCOS/22127_LCOS_XRD_200.csv
#twotheta, yobs, ycal, bkg, diff
42.0,18.5056,1.0,1.0,1.0
42.01,12.4944,1.0,1.0,1.0
42.02,11.5056,1.0,1.0,1.0
42.03,7.0,1.0,1.0,1.0
42.04,15.0,1.0,1.0,1.0
42.05,17.0,1.0,1.0,1.0
42.06,20.0,1.0,1.0,1.0
42.07,7.0,1.0,1.0,1.0
42.08,10.0,1.0,1.0,1.0
42.09,6.4944,1.0,1.0,1.0
42.1,16.4944,1.0,1.0,1.0
42.11,20.5056,1.0,1.0,1.0
42.12,5.5056,1.0,1.0,1.0
42.13,17.0,1.0,1.0,1.0
42.14,14.0,1.0,1.0,1.0
42.15,9.0,1.0,1.0,1.0
42.16,16.0,1.0,1.0,1.0
42.17,8.0,1.0,1.0,1.0
42.18,13.0,1.0,1.0,1.0
42.19,11.0,1.0,1.0,1.0
42.2,20.0,1.0,1.0,1.0
42.21,19.4944,1.0,1.0,1.0
42.22,17.5056,1.0,1.0,1.0
42.23,21.4944,1.0,1.0,1.0
42.24,7.5056,1.0,1.0,1.0
42.25,8.0,1.0,1.0,1.0
42.26,21.0,1.0,1.0,1.0
42.27,14.0,1.0,1.0,1.0
42.28,22.0,1.0,1.0,1.0
42.29,23.0,1.0,1.0,1.0
42.3,19.0,1.0,1.0,1.0
42.31,24.0,1.0,1.0,1.0
42.32,14.9889,1.0,1.0,1.0
42.33,29.0111,1.0,1.0,1.0
42.34,13.9889,1.0,1.0,1.0
42.35,22.0111,1.0,1.0,1.0
42.36,21.0,1.0,1.0,1.0
42.37,22.0,1.0,1.0,1.0
42.38,19.0,1.0,1.0,1.0
42.39,31.4944,1.0,1.0,1.0
42.4,22.5056,1.0,1.0,1.0
42.41,23.4944,1.0,1.0,1.0
42.42,25.5056,1.0,1.0,1.0
42.43,22.0,1.0,1.0,1.0
42.44,13.0,1.0,1.0,1.0
42.45,27.0,1.0,1.0,1.0
42.46,23.0,1.0,1.0,1.0
42.47,25.4944,1.0,1.0,1.0
42.48,26.4944,1.0,1.0,1.0
42.49,30.0111,1.0,1.0,1.0
42.5,25.0,1.0,1.0,1.0
42.51,17.0,1.0,1.0,1.0
42.52,12.0,1.0,1.0,1.0
42.53,19.0,1.0,1.0,1.0
42.54,20.4944,1.0,1.0,1.0
42.55,17.5056,1.0,1.0,1.0
42.56,19.4944,1.0,1.0,1.0
42.57,21.0,1.0,1.0,1.0
42.58,28.5056,1.0,1.0,1.0
42.59,17.0,1.0,1.0,1.0
42.6,22.0,1.0,1.0,1.0
42.61,21.9889,1.0,1.0,1.0
42.62,11.0111,1.0,1.0,1.0
42.63,14.4944,1.0,1.0,1.0
42.64,15.5056,1.0,1.0,1.0
42.65,8.4944,1.0,1.0,1.0
42.66,14.5056,1.0,1.0,1.0
42.67,12.0,1.0,1.0,1.0
42.68,14.0,1.0,1.0,1.0
42.69,18.9889,1.0,1.0,1.0
42.7,10.0111,1.0,1.0,1.0
42.71,20.0,1.0,1.0,1.0
42.72,11.0,1.0,1.0,1.0
42.73,11.0,1.0,1.0,1.0
42.74,16.0,1.0,1.0,1.0
42.75,4.4944,1.0,1.0,1.0
42.76,15.5056,1.0,1.0,1.0
42.77,10.4944,1.0,1.0,1.0
42.78,13.5056,1.0,1.0,1.0
42.79,13.0,1.0,1.0,1.0
42.8,21.4944,1.0,1.0,1.0
42.81,11.5056,1.0,1.0,1.0
42.82,7.0,1.0,1.0,1.0
42.83,6.0,1.0,1.0,1.0
42.84,8.4944,1.0,1.0,1.0
42.85,11.5056,1.0,1.0,1.0
42.86,18.0,1.0,1.0,1.0
42.87,11.0,1.0,1.0,1.0
42.88,26.0,1.0,1.0,1.0
42.89,12.0,1.0,1.0,1.0
42.9,21.0,1.0,1.0,1.0
42.91,1.4944,1.0,1.0,1.0
42.92,16.5056,1.0,1.0,1.0
42.93,23.0,1.0,1.0,1.0
42.94,26.4944,1.0,1.0,1.0
42.95,9.5056,1.0,1.0,1.0
42.96,22.0,1.0,1.0,1.0
42.97,17.9889,1.0,1.0,1.0
42.98,24.5056,1.0,1.0,1.0
42.99,18.0,1.0,1.0,1.0
43.0,18.9889,1.0,1.0,1.0
43.01,19.5167,1.0,1.0,1.0
43.02,17.0,1.0,1.0,1.0
43.03,35.9889,1.0,1.0,1.0
43.04,47.0,1.0,1.0,1.0
43.05,22.5056,1.0,1.0,1.0
43.06,24.5056,1.0,1.0,1.0
43.07,50.9889,1.0,1.0,1.0
43.08,25.0111,1.0,1.0,1.0
43.09,29.0,1.0,1.0,1.0
43.1,26.0,1.0,1.0,1.0
43.11,21.0,1.0,1.0,1.0
43.12,32.0,1.0,1.0,1.0
43.13,35.9889,1.0,1.0,1.0
43.14,50.5056,1.0,1.0,1.0
43.15,33.5056,1.0,1.0,1.0
43.16,33.9889,1.0,1.0,1.0
43.17,44.0111,1.0,1.0,1.0
43.18,28.4944,1.0,1.0,1.0
43.19,40.5056,1.0,1.0,1.0
43.2,34.4944,1.0,1.0,1.0
43.21,33.9889,1.0,1.0,1.0
43.22,29.5167,1.0,1.0,1.0
43.23,23.0,1.0,1.0,1.0
43.24,32.0,1.0,1.0,1.0
43.25,26.0,1.0,1.0,1.0
43.26,26.0,1.0,1.0,1.0
43.27,29.0,1.0,1.0,1.0
43.28,26.9778,1.0,1.0,1.0
43.29,37.0222,1.0,1.0,1.0
43.3,49.0,1.0,1.0,1.0
43.31,21.9889,1.0,1.0,1.0
43.32,42.0111,1.0,1.0,1.0
43.33,37.9889,1.0,1.0,1.0
43.34,20.0111,1.0,1.0,1.0
43.35,23.4944,1.0,1.0,1.0
43.36,21.5056,1.0,1.0,1.0
43.37,35.9889,1.0,1.0,1.0
43.38,18.0111,1.0,1.0,1.0
43.39,10.0,1.0,1.0,1.0
43.4,15.0,1.0,1.0,1.0
43.41,14.0,1.0,1.0,1.0
43.42,15.0,1.0,1.0,1.0
43.43,12.0,1.0,1.0,1.0
43.44,23.0,1.0,1.0,1.0
43.45,15.4944,1.0,1.0,1.0
43.46,15.5056,1.0,1.0,1.0
43.47,6.4944,1.0,1.0,1.0
43.48,30.5056,1.0,1.0,1.0
43.49,18.0,1.0,1.0,1.0
43.5,22.0,1.0,1.0,1.0
43.51,12.0,1.0,1.0,1.0
43.52,25.0,1.0,1.0,1.0
43.53,15.0,1.0,1.0,1.0
43.54,22.0,1.0,1.0,1.0
43.55,19.0,1.0,1.0,1.0
43.56,12.0,1.0,1.0,1.0
43.57,24.4944,1.0,1.0,1.0
43.58,32.0,1.0,1.0,1.0
43.59,12.5056,1.0,1.0,1.0
43.6,24.0,1.0,1.0,1.0
43.61,22.4944,1.0,1.0,1.0
43.62,33.5056,1.0,1.0,1.0
43.63,46.9889,1.0,1.0,1.0
43.64,33.0,1.0,1.0,1.0
43.65,45.0111,1.0,1.0,1.0
43.66,32.9889,1.0,1.0,1.0
43.67,51.0,1.0,1.0,1.0
43.68,33.0111,1.0,1.0,1.0
43.69,26.4944,1.0,1.0,1.0
43.7,49.4944,1.0,1.0,1.0
43.71,41.0111,1.0,1.0,1.0
43.72,35.0,1.0,1.0,1.0
43.73,30.0,1.0,1.0,1.0
43.74,30.0,1.0,1.0,1.0
43.75,35.0,1.0,1.0,1.0
43.76,39.4944,1.0,1.0,1.0
43.77,43.4944,1.0,1.0,1.0
43.78,42.0,1.0,1.0,1.0
43.79,54.0111,1.0,1.0,1.0
43.8,25.9889,1.0,1.0,1.0
43.81,61.5056,1.0,1.0,1.0
43.82,60.5056,1.0,1.0,1.0
43.83,43.9889,1.0,1.0,1.0
43.84,56.5056,1.0,1.0,1.0
43.85,50.5056,1.0,1.0,1.0
43.86,35.4944,1.0,1.0,1.0
43.87,52.5056,1.0,1.0,1.0
43.88,50.0,1.0,1.0,1.0
43.89,33.4833,1.0,1.0,1.0
43.9,39.0111,1.0,1.0,1.0
43.91,49.0,1.0,1.0,1.0
43.92,47.5056,1.0,1.0,1.0
43.93,42.0,1.0,1.0,1.0
43.94,37.9889,1.0,1.0,1.0
43.95,52.5056,1.0,1.0,1.0
43.96,37.5056,1.0,1.0,1.0
43.97,52.4944,1.0,1.0,1.0
43.98,38.0,1.0,1.0,1.0
43.99,54.0,1.0,1.0,1.0
44.0,47.0,1.0,1.0,1.0
44.01,30.0,1.0,1.0,1.0
44.02,15.4944,1.0,1.0,1.0
44.03,37.0111,1.0,1.0,1.0
44.04,27.0,1.0,1.0,1.0
44.05,45.0,1.0,1.0,1.0
44.06,36.0,1.0,1.0,1.0
44.07,19.0,1.0,1.0,1.0
44.08,20.0,1.0,1.0,1.0
44.09,31.9889,1.0,1.0,1.0
44.1,30.5056,1.0,1.0,1.0
44.11,32.5056,1.0,1.0,1.0
44.12,31.0,1.0,1.0,1.0
44.13,20.9889,1.0,1.0,1.0
44.14,30.0111,1.0,1.0,1.0
44.15,20.4944,1.0,1.0,1.0
44.16,31.5056,1.0,1.0,1.0
44.17,30.4944,1.0,1.0,1.0
44.18,27.5056,1.0,1.0,1.0
44.19,35.0,1.0,1.0,1.0
44.2,32.0,1.0,1.0,1.0
44.21,31.0,1.0,1.0,1.0
44.22,27.0,1.0,1.0,1.0
44.23,40.4944,1.0,1.0,1.0
44.24,20.5056,1.0,1.0,1.0
44.25,28.0,1.0,1.0,1.0
44.26,44.0,1.0,1.0,1.0
44.27,35.4944,1.0,1.0,1.0
44.28,43.0,1.0,1.0,1.0
44.29,53.5056,1.0,1.0,1.0
44.3,45.0,1.0,1.0,1.0
44.31,68.4944,1.0,1.0,1.0
44.32,42.4944,1.0,1.0,1.0
44.33,58.5056,1.0,1.0,1.0
44.34,46.0,1.0,1.0,1.0
44.35,59.0,1.0,1.0,1.0
44.36,39.0,1.0,1.0,1.0
44.37,72.4944,1.0,1.0,1.0
44.38,76.0111,1.0,1.0,1.0
44.39,52.0,1.0,1.0,1.0
44.4,64.4944,1.0,1.0,1.0
44.41,57.4944,1.0,1.0,1.0
44.42,48.5056,1.0,1.0,1.0
44.43,77.5056,1.0,1.0,1.0
44.44,77.4944,1.0,1.0,1.0
44.45,69.0,1.0,1.0,1.0
44.46,62.4833,1.0,1.0,1.0
44.47,70.5167,1.0,1.0,1.0
44.48,92.4944,1.0,1.0,1.0
44.49,80.0111,1.0,1.0,1.0
44.5,69.4722,1.0,1.0,1.0
44.51,67.0222,1.0,1.0,1.0
44.52,84.9889,1.0,1.0,1.0
44.53,68.4944,1.0,1.0,1.0
44.54,71.5167,1.0,1.0,1.0
44.55,85.5056,1.0,1.0,1.0
44.56,79.4944,1.0,1.0,1.0
44.57,53.5056,1.0,1.0,1.0
44.58,60.0,1.0,1.0,1.0
44.59,73.4944,1.0,1.0,1.0
44.6,48.5056,1.0,1.0,1.0
44.61,48.4833,1.0,1.0,1.0
44.62,74.5167,1.0,1.0,1.0
44.63,44.0,1.0,1.0,1.0
44.64,65.4833,1.0,1.0,1.0
44.65,66.0,1.0,1.0,1.0
44.66,49.0111,1.0,1.0,1.0
44.67,47.5056,1.0,1.0,1.0
44.68,46.4944,1.0,1.0,1.0
44.69,53.4944,1.0,1.0,1.0
44.7,55.4944,1.0,1.0,1.0
44.71,53.5167,1.0,1.0,1.0
44.72,63.4944,1.0,1.0,1.0
44.73,40.0,1.0,1.0,1.0
44.74,57.0,1.0,1.0,1.0
44.75,47.5056,1.0,1.0,1.0
44.76,49.4944,1.0,1.0,1.0
44.77,29.4944,1.0,1.0,1.0
44.78,45.0111,1.0,1.0,1.0
44.79,42.4833,1.0,1.0,1.0
44.8,46.5056,1.0,1.0,1.0
44.81,53.5056,1.0,1.0,1.0
44.82,41.5056,1.0,1.0,1.0
44.83,61.4944,1.0,1.0,1.0
44.84,63.0,1.0,1.0,1.0
44.85,23.5056,1.0,1.0,1.0
44.86,67.4944,1.0,1.0,1.0
44.87,52.4944,1.0,1.0,1.0
44.88,72.5056,1.0,1.0,1.0
44.89,59.4944,1.0,1.0,1.0
44.9,92.0111,1.0,1.0,1.0
44.91,62.4944,1.0,1.0,1.0
44.92,64.4944,1.0,1.0,1.0
44.93,91.5056,1.0,1.0,1.0
44.94,61.9778,1.0,1.0,1.0
44.95,67.0222,1.0,1.0,1.0
44.96,83.9889,1.0,1.0,1.0
44.97,105.5056,1.0,1.0,1.0
44.98,97.0,1.0,1.0,1.0
44.99,94.5056,1.0,1.0,1.0
45.0,104.4944,1.0,1.0,1.0
45.01,93.9778,1.0,1.0,1.0
45.02,159.5278,1.0,1.0,1.0
45.03,119.0,1.0,1.0,1.0
45.04,114.5056,1.0,1.0,1.0
45.05,104.9778,1.0,1.0,1.0
45.06,143.0222,1.0,1.0,1.0
45.07,146.0,1.0,1.0,1.0
45.08,148.9778,1.0,1.0,1.0
45.09,124.0111,1.0,1.0,1.0
45.1,119.9778,1.0,1.0,1.0
45.11,131.0333,1.0,1.0,1.0
45.12,138.4833,1.0,1.0,1.0
45.13,153.0,1.0,1.0,1.0
45.14,153.0111,1.0,1.0,1.0
45.15,150.9889,1.0,1.0,1.0
45.16,139.0111,1.0,1.0,1.0
45.17,146.9889,1.0,1.0,1.0
45.18,123.5056,1.0,1.0,1.0
45.19,137.9889,1.0,1.0,1.0
45.2,104.5056,1.0,1.0,1.0
45.21,144.0,1.0,1.0,1.0
45.22,105.0,1.0,1.0,1.0
45.23,139.5056,1.0,1.0,1.0
45.24,125.5056,1.0,1.0,1.0
45.25,136.4944,1.0,1.0,1.0
45.26,122.4833,1.0,1.0,1.0
45.27,126.5167,1.0,1.0,1.0
45.28,111.0,1.0,1.0,1.0
45.29,95.0,1.0,1.0,1.0
45.3,122.0,1.0,1.0,1.0
45.31,111.4944,1.0,1.0,1.0
45.32,111.5167,1.0,1.0,1.0
45.33,105.9889,1.0,1.0,1.0
45.34,103.4944,1.0,1.0,1.0
45.35,96.5056,1.0,1.0,1.0
45.36,111.0,1.0,1.0,1.0
45.37,122.0,1.0,1.0,1.0
45.38,108.4944,1.0,1.0,1.0
45.39,107.0111,1.0,1.0,1.0
45.4,114.0,1.0,1.0,1.0
45.41,108.4944,1.0,1.0,1.0
45.42,101.5056,1.0,1.0,1.0
45.43,111.0,1.0,1.0,1.0
45.44,135.4833,1.0,1.0,1.0
45.45,122.0,1.0,1.0,1.0
45.46,116.4944,1.0,1.0,1.0
45.47,147.0222,1.0,1.0,1.0
45.48,139.4944,1.0,1.0,1.0
45.49,170.4944,1.0,1.0,1.0
45.5,151.5056,1.0,1.0,1.0
45.51,177.4944,1.0,1.0,1.0
45.52,170.5167,1.0,1.0,1.0
45.53,214.9667,1.0,1.0,1.0
45.54,199.0222,1.0,1.0,1.0
45.55,215.4944,1.0,1.0,1.0
45.56,216.9556,1.0,1.0,1.0
45.57,244.55,1.0,1.0,1.0
45.58,252.0,1.0,1.0,1.0
45.59,260.4611,1.0,1.0,1.0
45.6,295.0333,1.0,1.0,1.0
45.61,287.4611,1.0,1.0,1.0
45.62,291.0444,1.0,1.0,1.0
45.63,326.9889,1.0,1.0,1.0
45.64,346.4722,1.0,1.0,1.0
45.65,396.4944,1.0,1.0,1.0
45.66,364.0111,1.0,1.0,1.0
45.67,411.0,1.0,1.0,1.0
45.68,384.0222,1.0,1.0,1.0
45.69,413.0,1.0,1.0,1.0
45.7,378.9778,1.0,1.0,1.0
45.71,410.4944,1.0,1.0,1.0
45.72,412.5056,1.0,1.0,1.0
45.73,431.4944,1.0,1.0,1.0
45.74,415.4944,1.0,1.0,1.0
45.75,440.9889,1.0,1.0,1.0
45.76,464.0111,1.0,1.0,1.0
45.77,489.4722,1.0,1.0,1.0
45.78,489.0111,1.0,1.0,1.0
45.79,465.0555,1.0,1.0,1.0
45.8,438.9667,1.0,1.0,1.0
45.81,451.4611,1.0,1.0,1.0
45.82,445.5167,1.0,1.0,1.0
45.83,467.0,1.0,1.0,1.0
45.84,418.0111,1.0,1.0,1.0
45.85,435.5167,1.0,1.0,1.0
45.86,442.4833,1.0,1.0,1.0
45.87,425.9889,1.0,1.0,1.0
45.88,460.0333,1.0,1.0,1.0
45.89,439.0111,1.0,1.0,1.0
45.9,420.0,1.0,1.0,1.0
45.91,417.4611,1.0,1.0,1.0
45.92,416.5389,1.0,1.0,1.0
45.93,405.9778,1.0,1.0,1.0
45.94,393.9889,1.0,1.0,1.0
45.95,422.0111,1.0,1.0,1.0
45.96,373.5167,1.0,1.0,1.0
45.97,366.0111,1.0,1.0,1.0
45.98,367.9889,1.0,1.0,1.0
45.99,401.9778,1.0,1.0,1.0
46.0,416.0222,1.0,1.0,1.0
46.01,427.9778,1.0,1.0,1.0
46.02,413.4944,1.0,1.0,1.0
46.03,473.4833,1.0,1.0,1.0
46.04,451.0333,1.0,1.0,1.0
46.05,517.4722,1.0,1.0,1.0
46.06,585.4833,1.0,1.0,1.0
46.07,629.0,1.0,1.0,1.0
46.08,689.4944,1.0,1.0,1.0
46.09,717.0333,1.0,1.0,1.0
46.1,698.0,1.0,1.0,1.0
46.11,800.4722,1.0,1.0,1.0
46.12,952.4389,1.0,1.0,1.0
46.13,1046.54,1.0,1.0,1.0
46.14,1126.0,1.0,1.0,1.0
46.15,1252.98,1.0,1.0,1.0
46.16,1404.93,1.0,1.0,1.0
46.17,1458.49,1.0,1.0,1.0
46.18,1669.03,1.0,1.0,1.0
46.19,1854.97,1.0,1.0,1.0
46.2,1978.51,1.0,1.0,1.0
46.21,2175.9,1.0,1.0,1.0
46.22,2492.02,1.0,1.0,1.0
46.23,2620.48,1.0,1.0,1.0
46.24,2797.42,1.0,1.0,1.0
46.25,2976.57,1.0,1.0,1.0
46.26,3281.45,1.0,1.0,1.0
46.27,3564.93,1.0,1.0,1.0
46.28,3881.439,1.0,1.0,1.0
46.29,4121.01,1.0,1.0,1.0
46.3,4379.01,1.0,1.0,1.0
46.31,4608.41,1.0,1.0,1.0
46.32,4885.55,1.0,1.0,1.0
46.33,5370.97,1.0,1.0,1.0
46.34,5724.35,1.0,1.0,1.0
46.35,6028.59,1.0,1.0,1.0
46.36,6539.9,1.0,1.0,1.0
46.37,6941.46,1.0,1.0,1.0
46.38,7341.37,1.0,1.0,1.0
46.39,7751.03,1.0,1.0,1.0
46.4,8347.29,1.0,1.0,1.0
46.41,8768.99,1.0,1.0,1.0
46.42,9151.87,1.0,1.0,1.0
46.43,9733.22,1.0,1.0,1.0
46.44,9972.81,1.0,1.0,1.0
46.45,10618.6,1.0,1.0,1.0
46.46,11301.833,1.0,1.0,1.0
46.47,11560.6,1.0,1.0,1.0
46.48,12312.7,1.0,1.0,1.0
46.49,12884.5,1.0,1.0,1.0
46.5,13412.833,1.0,1.0,1.0
46.51,13911.6,1.0,1.0,1.0
46.52,14523.4,1.0,1.0,1.0
46.53,15274.6,1.0,1.0,1.0
46.54,15925.2,1.0,1.0,1.0
46.55,16433.2,1.0,1.0,1.0
46.56,17051.877,1.0,1.0,1.0
46.57,17489.3,1.0,1.0,1.0
46.58,18303.8,1.0,1.0,1.0
46.59,18824.627,1.0,1.0,1.0
46.6,19638.127,1.0,1.0,1.0
46.61,20305.5,1.0,1.0,1.0
46.62,21077,1.0,1.0,1.0
46.63,21714.4,1.0,1.0,1.0
46.64,22273.5,1.0,1.0,1.0
46.65,23271.9,1.0,1.0,1.0
46.66,24281.3,1.0,1.0,1.0
46.67,24621.1,1.0,1.0,1.0
46.68,25497.3,1.0,1.0,1.0
46.69,26410.5,1.0,1.0,1.0
46.7,27249.3,1.0,1.0,1.0
46.71,28007.6,1.0,1.0,1.0
46.72,29094.084,1.0,1.0,1.0
46.73,30434.7,1.0,1.0,1.0
46.74,31646,1.0,1.0,1.0
46.75,33050.8,1.0,1.0,1.0
46.76,34599.6,1.0,1.0,1.0
46.77,35598.7,1.0,1.0,1.0
46.78,38030.9,1.0,1.0,1.0
46.79,39993.832,1.0,1.0,1.0
46.8,42478.9,1.0,1.0,1.0
46.81,45916.3,1.0,1.0,1.0
46.82,49472.1,1.0,1.0,1.0
46.83,54306.9,1.0,1.0,1.0
46.84,60187.6,1.0,1.0,1.0
46.85,67369.3,1.0,1.0,1.0
46.86,77362.6,1.0,1.0,1.0
46.87,90581.1,1.0,1.0,1.0
46.88,108669,1.0,1.0,1.0
46.89,134521,1.0,1.0,1.0
46.9,174442,1.0,1.0,1.0
46.91,236238,1.0,1.0,1.0
46.92,349227,1.0,1.0,1.0
46.93,602506,1.0,1.0,1.0
46.94,1761708.25,1.0,1.0,1.0
46.95,13431346.0,1.0,1.0,1.0
46.96,40285548.0,1.0,1.0,1.0
46.97,22086602.0,1.0,1.0,1.0
46.98,2894892.0,1.0,1.0,1.0
46.99,428739,1.0,1.0,1.0
47.0,203450,1.0,1.0,1.0
47.01,126401,1.0,1.0,1.0
47.02,83825.4,1.0,1.0,1.0
47.03,54786.6,1.0,1.0,1.0
47.04,37151.7,1.0,1.0,1.0
47.05,27097.8,1.0,1.0,1.0
47.06,20542.6,1.0,1.0,1.0
47.07,16330.9,1.0,1.0,1.0
47.08,13442.9,1.0,1.0,1.0
47.09,11199.1,1.0,1.0,1.0
47.1,9646.13,1.0,1.0,1.0
47.11,8564.54,1.0,1.0,1.0
47.12,7861.18,1.0,1.0,1.0
47.13,6870.49,1.0,1.0,1.0
47.14,6400.14,1.0,1.0,1.0
47.15,5674.11,1.0,1.0,1.0
47.16,5226.06,1.0,1.0,1.0
47.17,4912.96,1.0,1.0,1.0
47.18,4511.1,1.0,1.0,1.0
47.19,4097.07,1.0,1.0,1.0
47.2,3803.01,1.0,1.0,1.0
47.21,3570.06,1.0,1.0,1.0
47.22,3196.01,1.0,1.0,1.0
47.23,3107.93,1.0,1.0,1.0
47.24,2798.53,1.0,1.0,1.0
47.25,2497.59,1.0,1.0,1.0
47.26,2411.01,1.0,1.0,1.0
47.27,2172.03,1.0,1.0,1.0
47.28,2019.51,1.0,1.0,1.0
47.29,1821.44,1.0,1.0,1.0
47.3,1673.64,1.0,1.0,1.0
47.31,1472.46,1.0,1.0,1.0
47.32,1343.99,1.0,1.0,1.0
47.33,1220.03,1.0,1.0,1.0
47.34,1124.1,1.0,1.0,1.0
47.35,961.4056,1.0,1.0,1.0
47.36,842.0222,1.0,1.0,1.0
47.37,815.0444,1.0,1.0,1.0
47.38,726.0111,1.0,1.0,1.0
47.39,589.9778,1.0,1.0,1.0
47.4,526.4944,1.0,1.0,1.0
47.41,442.0111,1.0,1.0,1.0
47.42,398.5278,1.0,1.0,1.0
47.43,328.0,1.0,1.0,1.0
47.44,292.5056,1.0,1.0,1.0
47.45,288.0,1.0,1.0,1.0
47.46,237.5167,1.0,1.0,1.0
47.47,187.5056,1.0,1.0,1.0
47.48,174.4944,1.0,1.0,1.0
47.49,160.5167,1.0,1.0,1.0
47.5,103.0,1.0,1.0,1.0
47.51,120.0,1.0,1.0,1.0
47.52,105.4944,1.0,1.0,1.0
47.53,96.0,1.0,1.0,1.0
47.54,96.5056,1.0,1.0,1.0
47.55,69.9889,1.0,1.0,1.0
47.56,108.5056,1.0,1.0,1.0
47.57,129.0,1.0,1.0,1.0
47.58,118.0111,1.0,1.0,1.0
47.59,105.9778,1.0,1.0,1.0
47.6,141.0111,1.0,1.0,1.0
47.61,158.4944,1.0,1.0,1.0
47.62,150.0,1.0,1.0,1.0
47.63,183.4944,1.0,1.0,1.0
47.64,194.9889,1.0,1.0,1.0
47.65,202.5278,1.0,1.0,1.0
47.66,225.9778,1.0,1.0,1.0
47.67,261.9778,1.0,1.0,1.0
47.68,213.5389,1.0,1.0,1.0
47.69,230.9778,1.0,1.0,1.0
47.7,257.9778,1.0,1.0,1.0
47.71,318.4833,1.0,1.0,1.0
47.72,280.0333,1.0,1.0,1.0
47.73,295.5167,1.0,1.0,1.0
47.74,283.0,1.0,1.0,1.0
47.75,325.9556,1.0,1.0,1.0
47.76,326.5278,1.0,1.0,1.0
47.77,330.0,1.0,1.0,1.0
47.78,318.5056,1.0,1.0,1.0
47.79,314.5056,1.0,1.0,1.0
47.8,340.0,1.0,1.0,1.0
47.81,350.4722,1.0,1.0,1.0
47.82,331.5278,1.0,1.0,1.0
47.83,345.9889,1.0,1.0,1.0
47.84,286.0,1.0,1.0,1.0
47.85,289.0,1.0,1.0,1.0
47.86,275.0333,1.0,1.0,1.0
47.87,259.9445,1.0,1.0,1.0
47.88,266.5167,1.0,1.0,1.0
47.89,271.0222,1.0,1.0,1.0
47.9,221.5167,1.0,1.0,1.0
47.91,253.9667,1.0,1.0,1.0
47.92,250.0,1.0,1.0,1.0
47.93,242.0333,1.0,1.0,1.0
47.94,230.4833,1.0,1.0,1.0
47.95,218.5056,1.0,1.0,1.0
47.96,166.5056,1.0,1.0,1.0
47.97,198.0,1.0,1.0,1.0
47.98,151.9889,1.0,1.0,1.0
47.99,148.9889,1.0,1.0,1.0
48.0,135.0333,1.0,1.0,1.0
48.01,123.4944,1.0,1.0,1.0
48.02,99.0,1.0,1.0,1.0
48.03,118.0,1.0,1.0,1.0
48.04,100.4833,1.0,1.0,1.0
48.05,98.5167,1.0,1.0,1.0
48.06,89.0,1.0,1.0,1.0
48.07,82.5056,1.0,1.0,1.0
48.08,52.9889,1.0,1.0,1.0
48.09,62.5056,1.0,1.0,1.0
48.1,64.4944,1.0,1.0,1.0
48.11,36.5056,1.0,1.0,1.0
48.12,53.5056,1.0,1.0,1.0
48.13,41.0,1.0,1.0,1.0
48.14,44.0,1.0,1.0,1.0
48.15,21.9889,1.0,1.0,1.0
48.16,40.5056,1.0,1.0,1.0
48.17,37.0,1.0,1.0,1.0
48.18,15.0,1.0,1.0,1.0
48.19,53.5056,1.0,1.0,1.0
48.2,42.9889,1.0,1.0,1.0
48.21,52.0111,1.0,1.0,1.0
48.22,39.0,1.0,1.0,1.0
48.23,22.4944,1.0,1.0,1.0
48.24,43.4833,1.0,1.0,1.0
48.25,43.0222,1.0,1.0,1.0
48.26,46.4944,1.0,1.0,1.0
48.27,57.9889,1.0,1.0,1.0
48.28,60.0111,1.0,1.0,1.0
48.29,77.0,1.0,1.0,1.0
48.3,75.4944,1.0,1.0,1.0
48.31,71.0111,1.0,1.0,1.0
48.32,52.4944,1.0,1.0,1.0
48.33,70.4944,1.0,1.0,1.0
48.34,84.0,1.0,1.0,1.0
48.35,87.0111,1.0,1.0,1.0
48.36,94.4944,1.0,1.0,1.0
48.37,120.4944,1.0,1.0,1.0
48.38,91.4944,1.0,1.0,1.0
48.39,126.0,1.0,1.0,1.0
48.4,113.5056,1.0,1.0,1.0
48.41,101.0111,1.0,1.0,1.0
48.42,111.4944,1.0,1.0,1.0
48.43,103.0,1.0,1.0,1.0
48.44,119.4833,1.0,1.0,1.0
48.45,100.5056,1.0,1.0,1.0
48.46,116.5167,1.0,1.0,1.0
48.47,105.9778,1.0,1.0,1.0
48.48,93.0,1.0,1.0,1.0
48.49,95.5056,1.0,1.0,1.0
48.5,116.5056,1.0,1.0,1.0
48.51,110.4944,1.0,1.0,1.0
48.52,107.5056,1.0,1.0,1.0
48.53,69.4944,1.0,1.0,1.0
48.54,88.0111,1.0,1.0,1.0
48.55,73.9889,1.0,1.0,1.0
48.56,70.9889,1.0,1.0,1.0
48.57,108.0222,1.0,1.0,1.0
48.58,101.0,1.0,1.0,1.0
48.59,88.9889,1.0,1.0,1.0
48.6,84.4944,1.0,1.0,1.0
48.61,66.5167,1.0,1.0,1.0
48.62,85.5056,1.0,1.0,1.0
48.63,69.4833,1.0,1.0,1.0
48.64,67.5056,1.0,1.0,1.0
48.65,72.9889,1.0,1.0,1.0
48.66,70.0111,1.0,1.0,1.0
48.67,53.4833,1.0,1.0,1.0
48.68,54.5278,1.0,1.0,1.0
48.69,56.0,1.0,1.0,1.0
48.7,24.4944,1.0,1.0,1.0
48.71,52.5056,1.0,1.0,1.0
48.72,31.0,1.0,1.0,1.0
48.73,30.9889,1.0,1.0,1.0
48.74,26.0111,1.0,1.0,1.0
48.75,31.0,1.0,1.0,1.0
48.76,23.0,1.0,1.0,1.0
48.77,10.4944,1.0,1.0,1.0
48.78,19.5056,1.0,1.0,1.0
48.79,21.0,1.0,1.0,1.0
48.8,28.0,1.0,1.0,1.0
48.81,14.0,1.0,1.0,1.0
48.82,13.0,1.0,1.0,1.0
48.83,16.0,1.0,1.0,1.0
48.84,7.4944,1.0,1.0,1.0
48.85,29.5056,1.0,1.0,1.0
48.86,14.0,1.0,1.0,1.0
48.87,24.9889,1.0,1.0,1.0
48.88,12.0111,1.0,1.0,1.0
48.89,20.0,1.0,1.0,1.0
48.9,29.9889,1.0,1.0,1.0
48.91,33.5056,1.0,1.0,1.0
48.92,14.0,1.0,1.0,1.0
48.93,15.5056,1.0,1.0,1.0
48.94,20.9889,1.0,1.0,1.0
48.95,26.0111,1.0,1.0,1.0
48.96,23.0,1.0,1.0,1.0
48.97,21.9889,1.0,1.0,1.0
48.98,33.0,1.0,1.0,1.0
48.99,34.5056,1.0,1.0,1.0
49.0,42.0,1.0,1.0,1.0
49.01,28.5056,1.0,1.0,1.0
49.02,32.0,1.0,1.0,1.0
49.03,48.9889,1.0,1.0,1.0
49.04,32.5056,1.0,1.0,1.0
49.05,40.5056,1.0,1.0,1.0
49.06,43.9889,1.0,1.0,1.0
49.07,30.0111,1.0,1.0,1.0
49.08,44.9889,1.0,1.0,1.0
49.09,43.4944,1.0,1.0,1.0
49.1,33.5167,1.0,1.0,1.0
49.11,45.0,1.0,1.0,1.0
49.12,45.4944,1.0,1.0,1.0
49.13,61.0,1.0,1.0,1.0
49.14,43.0,1.0,1.0,1.0
49.15,52.4944,1.0,1.0,1.0
49.16,61.5056,1.0,1.0,1.0
49.17,40.5056,1.0,1.0,1.0
49.18,57.9778,1.0,1.0,1.0
49.19,52.0222,1.0,1.0,1.0
49.2,48.4944,1.0,1.0,1.0
49.21,46.0,1.0,1.0,1.0
49.22,58.0,1.0,1.0,1.0
49.23,35.5056,1.0,1.0,1.0
49.24,43.0,1.0,1.0,1.0
49.25,37.4944,1.0,1.0,1.0
49.26,21.0,1.0,1.0,1.0
49.27,45.0,1.0,1.0,1.0
49.28,37.0,1.0,1.0,1.0
49.29,31.4944,1.0,1.0,1.0
49.3,29.0111,1.0,1.0,1.0
49.31,30.0,1.0,1.0,1.0
49.32,25.0,1.0,1.0,1.0
49.33,18.0,1.0,1.0,1.0
49.34,26.4944,1.0,1.0,1.0
49.35,20.5056,1.0,1.0,1.0
49.36,28.0,1.0,1.0,1.0
49.37,24.0,1.0,1.0,1.0
49.38,20.0,1.0,1.0,1.0
49.39,10.0,1.0,1.0,1.0
49.4,19.0,1.0,1.0,1.0
49.41,19.0,1.0,1.0,1.0
49.42,14.0,1.0,1.0,1.0
49.43,14.0,1.0,1.0,1.0
49.44,18.0,1.0,1.0,1.0
49.45,21.0,1.0,1.0,1.0
49.46,12.0,1.0,1.0,1.0
49.47,8.0,1.0,1.0,1.0
49.48,10.0,1.0,1.0,1.0
49.49,10.0,1.0,1.0,1.0
49.5,6.0,1.0,1.0,1.0
49.51,4.0,1.0,1.0,1.0
49.52,9.0,1.0,1.0,1.0
49.53,6.0,1.0,1.0,1.0
49.54,3.0,1.0,1.0,1.0
49.55,5.0,1.0,1.0,1.0
49.56,13.0,1.0,1.0,1.0
49.57,11.0,1.0,1.0,1.0
49.58,15.4944,1.0,1.0,1.0
49.59,13.5056,1.0,1.0,1.0
49.6,3.0,1.0,1.0,1.0
49.61,20.0,1.0,1.0,1.0
49.62,5.4944,1.0,1.0,1.0
49.63,18.5056,1.0,1.0,1.0
49.64,14.0,1.0,1.0,1.0
49.65,13.0,1.0,1.0,1.0
49.66,21.4944,1.0,1.0,1.0
49.67,20.5056,1.0,1.0,1.0
49.68,17.0,1.0,1.0,1.0
49.69,18.0,1.0,1.0,1.0
49.7,16.4944,1.0,1.0,1.0
49.71,16.5056,1.0,1.0,1.0
49.72,32.0,1.0,1.0,1.0
49.73,7.0,1.0,1.0,1.0
49.74,17.0,1.0,1.0,1.0
49.75,14.0,1.0,1.0,1.0
49.76,13.0,1.0,1.0,1.0
49.77,14.0,1.0,1.0,1.0
49.78,25.9889,1.0,1.0,1.0
49.79,24.0111,1.0,1.0,1.0
49.8,28.0,1.0,1.0,1.0
49.81,25.0,1.0,1.0,1.0
49.82,34.0,1.0,1.0,1.0
49.83,24.9889,1.0,1.0,1.0
49.84,29.0111,1.0,1.0,1.0
49.85,23.4944,1.0,1.0,1.0
49.86,28.0,1.0,1.0,1.0
49.87,20.0,1.0,1.0,1.0
49.88,36.5056,1.0,1.0,1.0
49.89,21.4944,1.0,1.0,1.0
49.9,24.5056,1.0,1.0,1.0
49.91,26.0,1.0,1.0,1.0
49.92,25.4944,1.0,1.0,1.0
49.93,16.5056,1.0,1.0,1.0
49.94,9.0,1.0,1.0,1.0
49.95,27.4944,1.0,1.0,1.0
49.96,11.5056,1.0,1.0,1.0
49.97,9.0,1.0,1.0,1.0
49.98,15.0,1.0,1.0,1.0
49.99,18.0,1.0,1.0,1.0
50.0,20.9889,1.0,1.0,1.0
50.01,29.0111,1.0,1.0,1.0
50.02,16.0,1.0,1.0,1.0
50.03,18.0,1.0,1.0,1.0
50.04,15.4944,1.0,1.0,1.0
50.05,10.5056,1.0,1.0,1.0
50.06,8.0,1.0,1.0,1.0
50.07,17.0,1.0,1.0,1.0
50.08,16.4944,1.0,1.0,1.0
50.09,7.5056,1.0,1.0,1.0
50.1,7.0,1.0,1.0,1.0
50.11,20.4944,1.0,1.0,1.0
50.12,13.5056,1.0,1.0,1.0
50.13,16.0,1.0,1.0,1.0
50.14,4.0,1.0,1.0,1.0
50.15,9.0,1.0,1.0,1.0
50.16,6.0,1.0,1.0,1.0
50.17,12.0,1.0,1.0,1.0
50.18,12.0,1.0,1.0,1.0
50.19,6.0,1.0,1.0,1.0
50.2,10.0,1.0,1.0,1.0
50.21,2.0,1.0,1.0,1.0
50.22,5.0,1.0,1.0,1.0
50.23,2.0,1.0,1.0,1.0
50.24,6.0,1.0,1.0,1.0
50.25,2.0,1.0,1.0,1.0
50.26,7.4944,1.0,1.0,1.0
50.27,7.5056,1.0,1.0,1.0
50.28,2.0,1.0,1.0,1.0
50.29,3.0,1.0,1.0,1.0
50.3,4.0,1.0,1.0,1.0
50.31,4.0,1.0,1.0,1.0
50.32,14.0,1.0,1.0,1.0
50.33,8.0,1.0,1.0,1.0
50.34,14.0,1.0,1.0,1.0
50.35,12.9889,1.0,1.0,1.0
50.36,20.0111,1.0,1.0,1.0
50.37,15.0,1.0,1.0,1.0
50.38,13.0,1.0,1.0,1.0
50.39,13.0,1.0,1.0,1.0
50.4,6.4944,1.0,1.0,1.0
50.41,6.5056,1.0,1.0,1.0
50.42,9.0,1.0,1.0,1.0
50.43,18.0,1.0,1.0,1.0
50.44,10.0,1.0,1.0,1.0
50.45,19.0,1.0,1.0,1.0
50.46,15.0,1.0,1.0,1.0
50.47,20.0,1.0,1.0,1.0
50.48,13.0,1.0,1.0,1.0
50.49,6.0,1.0,1.0,1.0
50.5,9.0,1.0,1.0,1.0
50.51,23.0,1.0,1.0,1.0
50.52,15.0,1.0,1.0,1.0
50.53,6.0,1.0,1.0,1.0
50.54,14.0,1.0,1.0,1.0
50.55,14.0,1.0,1.0,1.0
50.56,8.0,1.0,1.0,1.0
50.57,27.0,1.0,1.0,1.0
50.58,12.0,1.0,1.0,1.0
50.59,12.0,1.0,1.0,1.0
50.6,18.0,1.0,1.0,1.0
50.61,5.0,1.0,1.0,1.0
50.62,17.0,1.0,1.0,1.0
50.63,8.0,1.0,1.0,1.0
50.64,7.0,1.0,1.0,1.0
50.65,8.0,1.0,1.0,1.0
50.66,18.0,1.0,1.0,1.0
50.67,13.0,1.0,1.0,1.0
50.68,3.0,1.0,1.0,1.0
50.69,15.0,1.0,1.0,1.0
50.7,1.0,1.0,1.0,1.0
50.71,9.0,1.0,1.0,1.0
50.72,8.0,1.0,1.0,1.0
50.73,4.0,1.0,1.0,1.0
50.74,10.4944,1.0,1.0,1.0
50.75,14.5056,1.0,1.0,1.0
50.76,8.0,1.0,1.0,1.0
50.77,6.0,1.0,1.0,1.0
50.78,2.0,1.0,1.0,1.0
50.79,2.0,1.0,1.0,1.0
50.8,6.4944,1.0,1.0,1.0
50.81,5.5056,1.0,1.0,1.0
50.82,2.4944,1.0,1.0,1.0
50.83,16.5056,1.0,1.0,1.0
50.84,2.0,1.0,1.0,1.0
50.85,8.4944,1.0,1.0,1.0
50.86,7.5056,1.0,1.0,1.0
50.87,7.0,1.0,1.0,1.0
50.88,11.0,1.0,1.0,1.0
50.89,11.0,1.0,1.0,1.0
50.9,1.0,1.0,1.0,1.0
50.91,5.0,1.0,1.0,1.0
50.92,4.0,1.0,1.0,1.0
50.93,4.0,1.0,1.0,1.0
50.94,5.0,1.0,1.0,1.0
50.95,2.0,1.0,1.0,1.0
50.96,8.0,1.0,1.0,1.0
50.97,7.0,1.0,1.0,1.0
50.98,6.0,1.0,1.0,1.0
50.99,4.0,1.0,1.0,1.0
51.0,5.0,1.0,1.0,1.0
51.01,7.0,1.0,1.0,1.0
51.02,11.0,1.0,1.0,1.0
51.03,5.0,1.0,1.0,1.0
51.04,7.4944,1.0,1.0,1.0
51.05,6.5056,1.0,1.0,1.0
51.06,5.0,1.0,1.0,1.0
51.07,8.0,1.0,1.0,1.0
51.08,3.0,1.0,1.0,1.0
51.09,4.4944,1.0,1.0,1.0
51.1,6.5056,1.0,1.0,1.0
51.11,6.0,1.0,1.0,1.0
51.12,10.9889,1.0,1.0,1.0
51.13,7.5056,1.0,1.0,1.0
51.14,12.5056,1.0,1.0,1.0
51.15,4.0,1.0,1.0,1.0
51.16,8.0,1.0,1.0,1.0
51.17,13.0,1.0,1.0,1.0
51.18,13.0,1.0,1.0,1.0
51.19,14.0,1.0,1.0,1.0
51.2,2.0,1.0,1.0,1.0
51.21,10.4944,1.0,1.0,1.0
51.22,7.5056,1.0,1.0,1.0
51.23,4.0,1.0,1.0,1.0
51.24,4.4944,1.0,1.0,1.0
51.25,15.5056,1.0,1.0,1.0
51.26,14.0,1.0,1.0,1.0
51.27,6.0,1.0,1.0,1.0
51.28,15.0,1.0,1.0,1.0
51.29,0.0,1.0,1.0,1.0
51.3,12.0,1.0,1.0,1.0
51.31,20.0,1.0,1.0,1.0
51.32,5.0,1.0,1.0,1.0
51.33,14.0,1.0,1.0,1.0
51.34,5.0,1.0,1.0,1.0
51.35,9.0,1.0,1.0,1.0
51.36,8.0,1.0,1.0,1.0
51.37,5.0,1.0,1.0,1.0
51.38,13.0,1.0,1.0,1.0
51.39,3.0,1.0,1.0,1.0
51.4,5.0,1.0,1.0,1.0
51.41,2.0,1.0,1.0,1.0
51.42,3.4944,1.0,1.0,1.0
51.43,1.5056,1.0,1.0,1.0
51.44,8.0,1.0,1.0,1.0
51.45,5.0,1.0,1.0,1.0
51.46,15.0,1.0,1.0,1.0
51.47,0.0,1.0,1.0,1.0
51.48,3.0,1.0,1.0,1.0
51.49,2.0,1.0,1.0,1.0
51.5,8.4944,1.0,1.0,1.0
51.51,5.5056,1.0,1.0,1.0
51.52,7.0,1.0,1.0,1.0
51.53,6.0,1.0,1.0,1.0
51.54,2.0,1.0,1.0,1.0
51.55,5.0,1.0,1.0,1.0
51.56,6.4944,1.0,1.0,1.0
51.57,10.5056,1.0,1.0,1.0
51.58,2.0,1.0,1.0,1.0
51.59,4.4944,1.0,1.0,1.0
51.6,0.5056,1.0,1.0,1.0
51.61,6.0,1.0,1.0,1.0
51.62,6.0,1.0,1.0,1.0
51.63,2.0,1.0,1.0,1.0
51.64,6.0,1.0,1.0,1.0
51.65,2.0,1.0,1.0,1.0
51.66,3.0,1.0,1.0,1.0
51.67,0.0,1.0,1.0,1.0
51.68,3.0,1.0,1.0,1.0
51.69,7.0,1.0,1.0,1.0
51.7,2.4944,1.0,1.0,1.0
51.71,4.5056,1.0,1.0,1.0
51.72,1.0,1.0,1.0,1.0
51.73,4.0,1.0,1.0,1.0
51.74,7.0,1.0,1.0,1.0
51.75,3.0,1.0,1.0,1.0
51.76,7.0,1.0,1.0,1.0
51.77,0.0,1.0,1.0,1.0
51.78,12.4944,1.0,1.0,1.0
51.79,0.5056,1.0,1.0,1.0
51.8,8.0,1.0,1.0,1.0
51.81,31.0,1.0,1.0,1.0
51.82,4.0,1.0,1.0,1.0
51.83,3.0,1.0,1.0,1.0
51.84,6.0,1.0,1.0,1.0
51.85,7.9889,1.0,1.0,1.0
51.86,8.0111,1.0,1.0,1.0
51.87,2.0,1.0,1.0,1.0
51.88,1.0,1.0,1.0,1.0
51.89,2.0,1.0,1.0,1.0
51.9,4.0,1.0,1.0,1.0
51.91,4.0,1.0,1.0,1.0
51.92,5.0,1.0,1.0,1.0
51.93,0.0,1.0,1.0,1.0
51.94,6.0,1.0,1.0,1.0
51.95,3.0,1.0,1.0,1.0
51.96,4.0,1.0,1.0,1.0
51.97,4.0,1.0,1.0,1.0
51.98,2.0,1.0,1.0,1.0
51.99,9.0,1.0,1.0,1.0
52.0,0.0,1.0,1.0,1.0