File: XRD:XRR/STO/22055_STOL/22055_STOL_XRD.csv
#twotheta, yobs, ycal, bkg, diff
38.0,0.0,1.0,1.0,1.0
38.01,2.0,1.0,1.0,1.0
38.02,4.0,1.0,1.0,1.0
38.03,2.0,1.0,1.0,1.0
38.04,2.0,1.0,1.0,1.0
38.05,2.0,1.0,1.0,1.0
38.06,2.0,1.0,1.0,1.0
38.07,3.0,1.0,1.0,1.0
38.08,0.0,1.0,1.0,1.0
38.09,0.0,1.0,1.0,1.0
38.1,0.0,1.0,1.0,1.0
38.11,0.0,1.0,1.0,1.0
38.12,2.0,1.0,1.0,1.0
38.13,2.0,1.0,1.0,1.0
38.14,5.0,1.0,1.0,1.0
38.15,2.0,1.0,1.0,1.0
38.16,2.0,1.0,1.0,1.0
38.17,4.0,1.0,1.0,1.0
38.18,2.0,1.0,1.0,1.0
38.19,0.0,1.0,1.0,1.0
38.2,0.0,1.0,1.0,1.0
38.21,4.0,1.0,1.0,1.0
38.22,2.0,1.0,1.0,1.0
38.23,3.0,1.0,1.0,1.0
38.24,2.0,1.0,1.0,1.0
38.25,0.0,1.0,1.0,1.0
38.26,0.0,1.0,1.0,1.0
38.27,0.0,1.0,1.0,1.0
38.28,3.0,1.0,1.0,1.0
38.29,4.0,1.0,1.0,1.0
38.3,3.0,1.0,1.0,1.0
38.31,2.0,1.0,1.0,1.0
38.32,2.0,1.0,1.0,1.0
38.33,2.0,1.0,1.0,1.0
38.34,0.0,1.0,1.0,1.0
38.35,0.0,1.0,1.0,1.0
38.36,2.0,1.0,1.0,1.0
38.37,3.0,1.0,1.0,1.0
38.38,5.0,1.0,1.0,1.0
38.39,2.0,1.0,1.0,1.0
38.4,1.4944,1.0,1.0,1.0
38.41,3.5056,1.0,1.0,1.0
38.42,9.0,1.0,1.0,1.0
38.43,0.0,1.0,1.0,1.0
38.44,0.0,1.0,1.0,1.0
38.45,2.0,1.0,1.0,1.0
38.46,0.0,1.0,1.0,1.0
38.47,0.0,1.0,1.0,1.0
38.48,0.0,1.0,1.0,1.0
38.49,0.0,1.0,1.0,1.0
38.5,0.0,1.0,1.0,1.0
38.51,0.0,1.0,1.0,1.0
38.52,4.0,1.0,1.0,1.0
38.53,0.0,1.0,1.0,1.0
38.54,3.0,1.0,1.0,1.0
38.55,0.0,1.0,1.0,1.0
38.56,9.0,1.0,1.0,1.0
38.57,0.0,1.0,1.0,1.0
38.58,4.0,1.0,1.0,1.0
38.59,0.0,1.0,1.0,1.0
38.6,3.0,1.0,1.0,1.0
38.61,2.0,1.0,1.0,1.0
38.62,2.0,1.0,1.0,1.0
38.63,2.0,1.0,1.0,1.0
38.64,2.0,1.0,1.0,1.0
38.65,6.0,1.0,1.0,1.0
38.66,8.0,1.0,1.0,1.0
38.67,2.0,1.0,1.0,1.0
38.68,2.0,1.0,1.0,1.0
38.69,2.0,1.0,1.0,1.0
38.7,2.0,1.0,1.0,1.0
38.71,0.0,1.0,1.0,1.0
38.72,4.0,1.0,1.0,1.0
38.73,3.0,1.0,1.0,1.0
38.74,2.0,1.0,1.0,1.0
38.75,0.0,1.0,1.0,1.0
38.76,0.0,1.0,1.0,1.0
38.77,0.0,1.0,1.0,1.0
38.78,0.0,1.0,1.0,1.0
38.79,0.0,1.0,1.0,1.0
38.8,0.0,1.0,1.0,1.0
38.81,6.0,1.0,1.0,1.0
38.82,2.0,1.0,1.0,1.0
38.83,0.0,1.0,1.0,1.0
38.84,2.0,1.0,1.0,1.0
38.85,2.0,1.0,1.0,1.0
38.86,5.0,1.0,1.0,1.0
38.87,4.0,1.0,1.0,1.0
38.88,0.0,1.0,1.0,1.0
38.89,0.0,1.0,1.0,1.0
38.9,5.0,1.0,1.0,1.0
38.91,5.0,1.0,1.0,1.0
38.92,2.0,1.0,1.0,1.0
38.93,2.0,1.0,1.0,1.0
38.94,2.0,1.0,1.0,1.0
38.95,4.0,1.0,1.0,1.0
38.96,4.0,1.0,1.0,1.0
38.97,2.0,1.0,1.0,1.0
38.98,0.0,1.0,1.0,1.0
38.99,0.4944,1.0,1.0,1.0
39.0,5.5056,1.0,1.0,1.0
39.01,2.0,1.0,1.0,1.0
39.02,0.0,1.0,1.0,1.0
39.03,0.0,1.0,1.0,1.0
39.04,0.0,1.0,1.0,1.0
39.05,2.0,1.0,1.0,1.0
39.06,2.0,1.0,1.0,1.0
39.07,0.0,1.0,1.0,1.0
39.08,0.0,1.0,1.0,1.0
39.09,0.0,1.0,1.0,1.0
39.1,0.0,1.0,1.0,1.0
39.11,0.0,1.0,1.0,1.0
39.12,0.0,1.0,1.0,1.0
39.13,2.0,1.0,1.0,1.0
39.14,3.0,1.0,1.0,1.0
39.15,0.0,1.0,1.0,1.0
39.16,0.0,1.0,1.0,1.0
39.17,3.0,1.0,1.0,1.0
39.18,0.0,1.0,1.0,1.0
39.19,1.0,1.0,1.0,1.0
39.2,2.0,1.0,1.0,1.0
39.21,8.0,1.0,1.0,1.0
39.22,0.0,1.0,1.0,1.0
39.23,0.0,1.0,1.0,1.0
39.24,0.0,1.0,1.0,1.0
39.25,1.0,1.0,1.0,1.0
39.26,2.0,1.0,1.0,1.0
39.27,3.0,1.0,1.0,1.0
39.28,5.0,1.0,1.0,1.0
39.29,0.0,1.0,1.0,1.0
39.3,0.0,1.0,1.0,1.0
39.31,2.0,1.0,1.0,1.0
39.32,0.0,1.0,1.0,1.0
39.33,0.0,1.0,1.0,1.0
39.34,4.0,1.0,1.0,1.0
39.35,2.0,1.0,1.0,1.0
39.36,0.0,1.0,1.0,1.0
39.37,0.0,1.0,1.0,1.0
39.38,0.0,1.0,1.0,1.0
39.39,2.0,1.0,1.0,1.0
39.4,0.0,1.0,1.0,1.0
39.41,2.9889,1.0,1.0,1.0
39.42,7.0111,1.0,1.0,1.0
39.43,2.0,1.0,1.0,1.0
39.44,3.4944,1.0,1.0,1.0
39.45,7.5056,1.0,1.0,1.0
39.46,4.0,1.0,1.0,1.0
39.47,4.0,1.0,1.0,1.0
39.48,7.0,1.0,1.0,1.0
39.49,7.0,1.0,1.0,1.0
39.5,0.0,1.0,1.0,1.0
39.51,4.0,1.0,1.0,1.0
39.52,0.0,1.0,1.0,1.0
39.53,2.0,1.0,1.0,1.0
39.54,7.0,1.0,1.0,1.0
39.55,0.0,1.0,1.0,1.0
39.56,2.0,1.0,1.0,1.0
39.57,0.0,1.0,1.0,1.0
39.58,1.4944,1.0,1.0,1.0
39.59,6.5056,1.0,1.0,1.0
39.6,2.0,1.0,1.0,1.0
39.61,3.0,1.0,1.0,1.0
39.62,4.0,1.0,1.0,1.0
39.63,4.0,1.0,1.0,1.0
39.64,0.0,1.0,1.0,1.0
39.65,3.0,1.0,1.0,1.0
39.66,2.0,1.0,1.0,1.0
39.67,2.0,1.0,1.0,1.0
39.68,0.0,1.0,1.0,1.0
39.69,4.0,1.0,1.0,1.0
39.7,0.0,1.0,1.0,1.0
39.71,2.0,1.0,1.0,1.0
39.72,3.0,1.0,1.0,1.0
39.73,0.0,1.0,1.0,1.0
39.74,0.0,1.0,1.0,1.0
39.75,0.0,1.0,1.0,1.0
39.76,4.0,1.0,1.0,1.0
39.77,0.0,1.0,1.0,1.0
39.78,2.0,1.0,1.0,1.0
39.79,0.0,1.0,1.0,1.0
39.8,2.0,1.0,1.0,1.0
39.81,0.0,1.0,1.0,1.0
39.82,4.0,1.0,1.0,1.0
39.83,0.0,1.0,1.0,1.0
39.84,0.0,1.0,1.0,1.0
39.85,2.0,1.0,1.0,1.0
39.86,4.0,1.0,1.0,1.0
39.87,0.0,1.0,1.0,1.0
39.88,3.0,1.0,1.0,1.0
39.89,3.0,1.0,1.0,1.0
39.9,0.0,1.0,1.0,1.0
39.91,2.0,1.0,1.0,1.0
39.92,0.0,1.0,1.0,1.0
39.93,0.0,1.0,1.0,1.0
39.94,0.0,1.0,1.0,1.0
39.95,2.0,1.0,1.0,1.0
39.96,0.0,1.0,1.0,1.0
39.97,5.0,1.0,1.0,1.0
39.98,4.0,1.0,1.0,1.0
39.99,2.0,1.0,1.0,1.0
40.0,5.0,1.0,1.0,1.0
40.01,3.0,1.0,1.0,1.0
40.02,3.0,1.0,1.0,1.0
40.03,2.0,1.0,1.0,1.0
40.04,0.0,1.0,1.0,1.0
40.05,0.0,1.0,1.0,1.0
40.06,2.0,1.0,1.0,1.0
40.07,4.0,1.0,1.0,1.0
40.08,3.0,1.0,1.0,1.0
40.09,2.0,1.0,1.0,1.0
40.1,3.0,1.0,1.0,1.0
40.11,0.0,1.0,1.0,1.0
40.12,5.4944,1.0,1.0,1.0
40.13,0.5056,1.0,1.0,1.0
40.14,4.0,1.0,1.0,1.0
40.15,2.0,1.0,1.0,1.0
40.16,4.0,1.0,1.0,1.0
40.17,0.0,1.0,1.0,1.0
40.18,5.0,1.0,1.0,1.0
40.19,0.0,1.0,1.0,1.0
40.2,2.0,1.0,1.0,1.0
40.21,0.0,1.0,1.0,1.0
40.22,2.0,1.0,1.0,1.0
40.23,0.0,1.0,1.0,1.0
40.24,5.0,1.0,1.0,1.0
40.25,3.4944,1.0,1.0,1.0
40.26,4.5056,1.0,1.0,1.0
40.27,2.0,1.0,1.0,1.0
40.28,0.0,1.0,1.0,1.0
40.29,0.0,1.0,1.0,1.0
40.3,4.0,1.0,1.0,1.0
40.31,0.0,1.0,1.0,1.0
40.32,0.0,1.0,1.0,1.0
40.33,0.0,1.0,1.0,1.0
40.34,1.0,1.0,1.0,1.0
40.35,0.0,1.0,1.0,1.0
40.36,3.4944,1.0,1.0,1.0
40.37,4.5056,1.0,1.0,1.0
40.38,2.0,1.0,1.0,1.0
40.39,2.0,1.0,1.0,1.0
40.4,0.0,1.0,1.0,1.0
40.41,2.4944,1.0,1.0,1.0
40.42,0.5056,1.0,1.0,1.0
40.43,0.0,1.0,1.0,1.0
40.44,6.0,1.0,1.0,1.0
40.45,5.0,1.0,1.0,1.0
40.46,4.0,1.0,1.0,1.0
40.47,2.0,1.0,1.0,1.0
40.48,0.0,1.0,1.0,1.0
40.49,0.0,1.0,1.0,1.0
40.5,2.0,1.0,1.0,1.0
40.51,5.0,1.0,1.0,1.0
40.52,4.0,1.0,1.0,1.0
40.53,3.0,1.0,1.0,1.0
40.54,4.0,1.0,1.0,1.0
40.55,0.0,1.0,1.0,1.0
40.56,2.4944,1.0,1.0,1.0
40.57,1.5056,1.0,1.0,1.0
40.58,2.0,1.0,1.0,1.0
40.59,5.0,1.0,1.0,1.0
40.6,0.0,1.0,1.0,1.0
40.61,2.0,1.0,1.0,1.0
40.62,7.0,1.0,1.0,1.0
40.63,0.0,1.0,1.0,1.0
40.64,0.0,1.0,1.0,1.0
40.65,2.0,1.0,1.0,1.0
40.66,2.0,1.0,1.0,1.0
40.67,3.0,1.0,1.0,1.0
40.68,4.0,1.0,1.0,1.0
40.69,2.0,1.0,1.0,1.0
40.7,0.0,1.0,1.0,1.0
40.71,3.0,1.0,1.0,1.0
40.72,2.0,1.0,1.0,1.0
40.73,2.0,1.0,1.0,1.0
40.74,4.0,1.0,1.0,1.0
40.75,3.0,1.0,1.0,1.0
40.76,2.0,1.0,1.0,1.0
40.77,2.0,1.0,1.0,1.0
40.78,6.0,1.0,1.0,1.0
40.79,4.0,1.0,1.0,1.0
40.8,4.0,1.0,1.0,1.0
40.81,7.0,1.0,1.0,1.0
40.82,2.0,1.0,1.0,1.0
40.83,3.0,1.0,1.0,1.0
40.84,2.0,1.0,1.0,1.0
40.85,2.0,1.0,1.0,1.0
40.86,6.0,1.0,1.0,1.0
40.87,4.0,1.0,1.0,1.0
40.88,0.0,1.0,1.0,1.0
40.89,2.0,1.0,1.0,1.0
40.9,3.0,1.0,1.0,1.0
40.91,0.0,1.0,1.0,1.0
40.92,2.0,1.0,1.0,1.0
40.93,4.0,1.0,1.0,1.0
40.94,8.0,1.0,1.0,1.0
40.95,4.0,1.0,1.0,1.0
40.96,4.0,1.0,1.0,1.0
40.97,0.0,1.0,1.0,1.0
40.98,6.0,1.0,1.0,1.0
40.99,2.0,1.0,1.0,1.0
41.0,0.0,1.0,1.0,1.0
41.01,2.0,1.0,1.0,1.0
41.02,2.0,1.0,1.0,1.0
41.03,4.0,1.0,1.0,1.0
41.04,4.0,1.0,1.0,1.0
41.05,2.0,1.0,1.0,1.0
41.06,6.0,1.0,1.0,1.0
41.07,0.0,1.0,1.0,1.0
41.08,2.4944,1.0,1.0,1.0
41.09,5.5056,1.0,1.0,1.0
41.1,4.0,1.0,1.0,1.0
41.11,0.0,1.0,1.0,1.0
41.12,2.0,1.0,1.0,1.0
41.13,0.0,1.0,1.0,1.0
41.14,4.0,1.0,1.0,1.0
41.15,0.0,1.0,1.0,1.0
41.16,0.0,1.0,1.0,1.0
41.17,2.0,1.0,1.0,1.0
41.18,2.0,1.0,1.0,1.0
41.19,0.0,1.0,1.0,1.0
41.2,3.0,1.0,1.0,1.0
41.21,5.0,1.0,1.0,1.0
41.22,2.0,1.0,1.0,1.0
41.23,0.0,1.0,1.0,1.0
41.24,8.0,1.0,1.0,1.0
41.25,4.0,1.0,1.0,1.0
41.26,6.0,1.0,1.0,1.0
41.27,0.0,1.0,1.0,1.0
41.28,0.0,1.0,1.0,1.0
41.29,2.0,1.0,1.0,1.0
41.3,0.0,1.0,1.0,1.0
41.31,3.0,1.0,1.0,1.0
41.32,2.0,1.0,1.0,1.0
41.33,4.0,1.0,1.0,1.0
41.34,5.0,1.0,1.0,1.0
41.35,0.0,1.0,1.0,1.0
41.36,4.0,1.0,1.0,1.0
41.37,7.0,1.0,1.0,1.0
41.38,3.0,1.0,1.0,1.0
41.39,0.0,1.0,1.0,1.0
41.4,0.0,1.0,1.0,1.0
41.41,3.0,1.0,1.0,1.0
41.42,5.0,1.0,1.0,1.0
41.43,4.0,1.0,1.0,1.0
41.44,3.0,1.0,1.0,1.0
41.45,2.0,1.0,1.0,1.0
41.46,9.0,1.0,1.0,1.0
41.47,4.0,1.0,1.0,1.0
41.48,12.0,1.0,1.0,1.0
41.49,5.0,1.0,1.0,1.0
41.5,2.0,1.0,1.0,1.0
41.51,4.0,1.0,1.0,1.0
41.52,4.0,1.0,1.0,1.0
41.53,0.0,1.0,1.0,1.0
41.54,2.0,1.0,1.0,1.0
41.55,0.0,1.0,1.0,1.0
41.56,4.0,1.0,1.0,1.0
41.57,0.0,1.0,1.0,1.0
41.58,2.0,1.0,1.0,1.0
41.59,0.0,1.0,1.0,1.0
41.6,0.0,1.0,1.0,1.0
41.61,0.0,1.0,1.0,1.0
41.62,0.0,1.0,1.0,1.0
41.63,5.0,1.0,1.0,1.0
41.64,4.4944,1.0,1.0,1.0
41.65,3.5056,1.0,1.0,1.0
41.66,0.0,1.0,1.0,1.0
41.67,5.0,1.0,1.0,1.0
41.68,0.0,1.0,1.0,1.0
41.69,2.0,1.0,1.0,1.0
41.7,0.0,1.0,1.0,1.0
41.71,5.0,1.0,1.0,1.0
41.72,4.0,1.0,1.0,1.0
41.73,4.0,1.0,1.0,1.0
41.74,6.0,1.0,1.0,1.0
41.75,4.0,1.0,1.0,1.0
41.76,2.0,1.0,1.0,1.0
41.77,0.0,1.0,1.0,1.0
41.78,0.0,1.0,1.0,1.0
41.79,2.0,1.0,1.0,1.0
41.8,0.0,1.0,1.0,1.0
41.81,2.0,1.0,1.0,1.0
41.82,5.0,1.0,1.0,1.0
41.83,2.0,1.0,1.0,1.0
41.84,0.0,1.0,1.0,1.0
41.85,4.0,1.0,1.0,1.0
41.86,6.0,1.0,1.0,1.0
41.87,0.0,1.0,1.0,1.0
41.88,2.0,1.0,1.0,1.0
41.89,0.0,1.0,1.0,1.0
41.9,3.0,1.0,1.0,1.0
41.91,4.0,1.0,1.0,1.0
41.92,0.0,1.0,1.0,1.0
41.93,3.0,1.0,1.0,1.0
41.94,9.0,1.0,1.0,1.0
41.95,5.0,1.0,1.0,1.0
41.96,2.0,1.0,1.0,1.0
41.97,4.0,1.0,1.0,1.0
41.98,2.0,1.0,1.0,1.0
41.99,4.0,1.0,1.0,1.0
42.0,7.0,1.0,1.0,1.0
42.01,4.0,1.0,1.0,1.0
42.02,3.0,1.0,1.0,1.0
42.03,4.0,1.0,1.0,1.0
42.04,5.0,1.0,1.0,1.0
42.05,0.0,1.0,1.0,1.0
42.06,1.9889,1.0,1.0,1.0
42.07,10.0111,1.0,1.0,1.0
42.08,4.0,1.0,1.0,1.0
42.09,2.0,1.0,1.0,1.0
42.1,4.0,1.0,1.0,1.0
42.11,2.0,1.0,1.0,1.0
42.12,4.0,1.0,1.0,1.0
42.13,2.0,1.0,1.0,1.0
42.14,2.0,1.0,1.0,1.0
42.15,0.0,1.0,1.0,1.0
42.16,7.0,1.0,1.0,1.0
42.17,0.0,1.0,1.0,1.0
42.18,2.0,1.0,1.0,1.0
42.19,0.0,1.0,1.0,1.0
42.2,2.0,1.0,1.0,1.0
42.21,0.0,1.0,1.0,1.0
42.22,2.0,1.0,1.0,1.0
42.23,4.0,1.0,1.0,1.0
42.24,0.0,1.0,1.0,1.0
42.25,2.0,1.0,1.0,1.0
42.26,4.0,1.0,1.0,1.0
42.27,6.0,1.0,1.0,1.0
42.28,4.0,1.0,1.0,1.0
42.29,5.0,1.0,1.0,1.0
42.3,0.0,1.0,1.0,1.0
42.31,5.9889,1.0,1.0,1.0
42.32,3.0111,1.0,1.0,1.0
42.33,0.0,1.0,1.0,1.0
42.34,6.0,1.0,1.0,1.0
42.35,0.0,1.0,1.0,1.0
42.36,0.0,1.0,1.0,1.0
42.37,2.0,1.0,1.0,1.0
42.38,2.0,1.0,1.0,1.0
42.39,0.0,1.0,1.0,1.0
42.4,0.0,1.0,1.0,1.0
42.41,7.0,1.0,1.0,1.0
42.42,0.0,1.0,1.0,1.0
42.43,0.0,1.0,1.0,1.0
42.44,2.0,1.0,1.0,1.0
42.45,4.0,1.0,1.0,1.0
42.46,4.0,1.0,1.0,1.0
42.47,2.0,1.0,1.0,1.0
42.48,0.0,1.0,1.0,1.0
42.49,2.0,1.0,1.0,1.0
42.5,6.0,1.0,1.0,1.0
42.51,2.0,1.0,1.0,1.0
42.52,0.0,1.0,1.0,1.0
42.53,6.0,1.0,1.0,1.0
42.54,2.0,1.0,1.0,1.0
42.55,0.0,1.0,1.0,1.0
42.56,5.0,1.0,1.0,1.0
42.57,0.0,1.0,1.0,1.0
42.58,2.0,1.0,1.0,1.0
42.59,0.0,1.0,1.0,1.0
42.6,0.0,1.0,1.0,1.0
42.61,2.0,1.0,1.0,1.0
42.62,2.0,1.0,1.0,1.0
42.63,0.0,1.0,1.0,1.0
42.64,2.0,1.0,1.0,1.0
42.65,4.0,1.0,1.0,1.0
42.66,0.0,1.0,1.0,1.0
42.67,0.0,1.0,1.0,1.0
42.68,0.0,1.0,1.0,1.0
42.69,7.0,1.0,1.0,1.0
42.7,6.0,1.0,1.0,1.0
42.71,4.0,1.0,1.0,1.0
42.72,2.0,1.0,1.0,1.0
42.73,4.0,1.0,1.0,1.0
42.74,8.0,1.0,1.0,1.0
42.75,5.0,1.0,1.0,1.0
42.76,4.0,1.0,1.0,1.0
42.77,8.0,1.0,1.0,1.0
42.78,0.0,1.0,1.0,1.0
42.79,0.0,1.0,1.0,1.0
42.8,1.0,1.0,1.0,1.0
42.81,4.0,1.0,1.0,1.0
42.82,3.0,1.0,1.0,1.0
42.83,0.0,1.0,1.0,1.0
42.84,4.0,1.0,1.0,1.0
42.85,9.9889,1.0,1.0,1.0
42.86,6.0111,1.0,1.0,1.0
42.87,2.0,1.0,1.0,1.0
42.88,7.0,1.0,1.0,1.0
42.89,3.0,1.0,1.0,1.0
42.9,3.0,1.0,1.0,1.0
42.91,7.0,1.0,1.0,1.0
42.92,7.0,1.0,1.0,1.0
42.93,5.0,1.0,1.0,1.0
42.94,1.0,1.0,1.0,1.0
42.95,12.0,1.0,1.0,1.0
42.96,0.0,1.0,1.0,1.0
42.97,8.4944,1.0,1.0,1.0
42.98,12.5056,1.0,1.0,1.0
42.99,6.4944,1.0,1.0,1.0
43.0,9.5056,1.0,1.0,1.0
43.01,2.0,1.0,1.0,1.0
43.02,6.0,1.0,1.0,1.0
43.03,9.0,1.0,1.0,1.0
43.04,11.0,1.0,1.0,1.0
43.05,7.0,1.0,1.0,1.0
43.06,8.4944,1.0,1.0,1.0
43.07,3.5056,1.0,1.0,1.0
43.08,10.0,1.0,1.0,1.0
43.09,5.0,1.0,1.0,1.0
43.1,2.0,1.0,1.0,1.0
43.11,5.0,1.0,1.0,1.0
43.12,10.0,1.0,1.0,1.0
43.13,2.0,1.0,1.0,1.0
43.14,15.0,1.0,1.0,1.0
43.15,16.0,1.0,1.0,1.0
43.16,16.0,1.0,1.0,1.0
43.17,6.0,1.0,1.0,1.0
43.18,13.0,1.0,1.0,1.0
43.19,9.0,1.0,1.0,1.0
43.2,7.0,1.0,1.0,1.0
43.21,17.0,1.0,1.0,1.0
43.22,4.0,1.0,1.0,1.0
43.23,15.0,1.0,1.0,1.0
43.24,14.0,1.0,1.0,1.0
43.25,14.0,1.0,1.0,1.0
43.26,7.4944,1.0,1.0,1.0
43.27,18.5056,1.0,1.0,1.0
43.28,9.4944,1.0,1.0,1.0
43.29,10.5056,1.0,1.0,1.0
43.3,11.0,1.0,1.0,1.0
43.31,7.0,1.0,1.0,1.0
43.32,23.0,1.0,1.0,1.0
43.33,12.0,1.0,1.0,1.0
43.34,22.4944,1.0,1.0,1.0
43.35,12.5056,1.0,1.0,1.0
43.36,22.0,1.0,1.0,1.0
43.37,9.0,1.0,1.0,1.0
43.38,13.0,1.0,1.0,1.0
43.39,10.0,1.0,1.0,1.0
43.4,19.0,1.0,1.0,1.0
43.41,12.4944,1.0,1.0,1.0
43.42,14.0,1.0,1.0,1.0
43.43,20.5056,1.0,1.0,1.0
43.44,18.4944,1.0,1.0,1.0
43.45,20.5056,1.0,1.0,1.0
43.46,8.0,1.0,1.0,1.0
43.47,32.0,1.0,1.0,1.0
43.48,28.0,1.0,1.0,1.0
43.49,18.0,1.0,1.0,1.0
43.5,18.4944,1.0,1.0,1.0
43.51,21.0,1.0,1.0,1.0
43.52,24.5056,1.0,1.0,1.0
43.53,20.0,1.0,1.0,1.0
43.54,34.0,1.0,1.0,1.0
43.55,28.0,1.0,1.0,1.0
43.56,17.9889,1.0,1.0,1.0
43.57,20.0,1.0,1.0,1.0
43.58,26.5056,1.0,1.0,1.0
43.59,28.5056,1.0,1.0,1.0
43.6,31.9889,1.0,1.0,1.0
43.61,36.0111,1.0,1.0,1.0
43.62,40.0,1.0,1.0,1.0
43.63,13.0,1.0,1.0,1.0
43.64,30.0,1.0,1.0,1.0
43.65,39.0,1.0,1.0,1.0
43.66,39.0,1.0,1.0,1.0
43.67,21.4944,1.0,1.0,1.0
43.68,30.5056,1.0,1.0,1.0
43.69,50.0,1.0,1.0,1.0
43.7,34.4944,1.0,1.0,1.0
43.71,38.4944,1.0,1.0,1.0
43.72,28.0111,1.0,1.0,1.0
43.73,26.9889,1.0,1.0,1.0
43.74,32.0111,1.0,1.0,1.0
43.75,30.0,1.0,1.0,1.0
43.76,27.4944,1.0,1.0,1.0
43.77,32.0,1.0,1.0,1.0
43.78,36.0,1.0,1.0,1.0
43.79,29.0,1.0,1.0,1.0
43.8,33.0,1.0,1.0,1.0
43.81,36.4944,1.0,1.0,1.0
43.82,36.0111,1.0,1.0,1.0
43.83,35.4944,1.0,1.0,1.0
43.84,58.4944,1.0,1.0,1.0
43.85,49.0111,1.0,1.0,1.0
43.86,28.9889,1.0,1.0,1.0
43.87,45.5056,1.0,1.0,1.0
43.88,56.0,1.0,1.0,1.0
43.89,34.5056,1.0,1.0,1.0
43.9,38.0,1.0,1.0,1.0
43.91,45.9778,1.0,1.0,1.0
43.92,50.0,1.0,1.0,1.0
43.93,36.0222,1.0,1.0,1.0
43.94,45.4944,1.0,1.0,1.0
43.95,47.0,1.0,1.0,1.0
43.96,51.4944,1.0,1.0,1.0
43.97,61.0111,1.0,1.0,1.0
43.98,41.0,1.0,1.0,1.0
43.99,49.4944,1.0,1.0,1.0
44.0,73.9889,1.0,1.0,1.0
44.01,54.5056,1.0,1.0,1.0
44.02,51.0111,1.0,1.0,1.0
44.03,50.4944,1.0,1.0,1.0
44.04,69.4944,1.0,1.0,1.0
44.05,49.0,1.0,1.0,1.0
44.06,43.0111,1.0,1.0,1.0
44.07,38.4944,1.0,1.0,1.0
44.08,59.5056,1.0,1.0,1.0
44.09,39.0,1.0,1.0,1.0
44.1,60.9889,1.0,1.0,1.0
44.11,45.5056,1.0,1.0,1.0
44.12,58.5056,1.0,1.0,1.0
44.13,66.4833,1.0,1.0,1.0
44.14,58.5167,1.0,1.0,1.0
44.15,69.0,1.0,1.0,1.0
44.16,84.0,1.0,1.0,1.0
44.17,54.0,1.0,1.0,1.0
44.18,61.0,1.0,1.0,1.0
44.19,54.4944,1.0,1.0,1.0
44.2,81.0,1.0,1.0,1.0
44.21,75.0,1.0,1.0,1.0
44.22,73.0,1.0,1.0,1.0
44.23,67.4944,1.0,1.0,1.0
44.24,55.5056,1.0,1.0,1.0
44.25,63.0,1.0,1.0,1.0
44.26,96.0,1.0,1.0,1.0
44.27,84.0,1.0,1.0,1.0
44.28,65.4944,1.0,1.0,1.0
44.29,71.4944,1.0,1.0,1.0
44.3,81.5056,1.0,1.0,1.0
44.31,72.5056,1.0,1.0,1.0
44.32,84.0,1.0,1.0,1.0
44.33,73.9889,1.0,1.0,1.0
44.34,81.0111,1.0,1.0,1.0
44.35,76.9889,1.0,1.0,1.0
44.36,78.5056,1.0,1.0,1.0
44.37,74.0,1.0,1.0,1.0
44.38,90.4944,1.0,1.0,1.0
44.39,94.0,1.0,1.0,1.0
44.4,96.5167,1.0,1.0,1.0
44.41,79.0,1.0,1.0,1.0
44.42,97.4722,1.0,1.0,1.0
44.43,95.5278,1.0,1.0,1.0
44.44,65.4944,1.0,1.0,1.0
44.45,81.4944,1.0,1.0,1.0
44.46,106.4944,1.0,1.0,1.0
44.47,85.5056,1.0,1.0,1.0
44.48,113.0,1.0,1.0,1.0
44.49,98.5056,1.0,1.0,1.0
44.5,104.9889,1.0,1.0,1.0
44.51,96.0111,1.0,1.0,1.0
44.52,106.4944,1.0,1.0,1.0
44.53,96.0,1.0,1.0,1.0
44.54,72.4944,1.0,1.0,1.0
44.55,81.0111,1.0,1.0,1.0
44.56,107.9889,1.0,1.0,1.0
44.57,99.4944,1.0,1.0,1.0
44.58,106.0111,1.0,1.0,1.0
44.59,102.4944,1.0,1.0,1.0
44.6,107.0,1.0,1.0,1.0
44.61,104.5056,1.0,1.0,1.0
44.62,116.9889,1.0,1.0,1.0
44.63,86.5056,1.0,1.0,1.0
44.64,104.0111,1.0,1.0,1.0
44.65,101.9889,1.0,1.0,1.0
44.66,116.4944,1.0,1.0,1.0
44.67,114.0222,1.0,1.0,1.0
44.68,106.4944,1.0,1.0,1.0
44.69,106.5056,1.0,1.0,1.0
44.7,127.4833,1.0,1.0,1.0
44.71,131.5056,1.0,1.0,1.0
44.72,112.5056,1.0,1.0,1.0
44.73,119.4944,1.0,1.0,1.0
44.74,116.0,1.0,1.0,1.0
44.75,103.9889,1.0,1.0,1.0
44.76,116.5056,1.0,1.0,1.0
44.77,123.5056,1.0,1.0,1.0
44.78,132.0,1.0,1.0,1.0
44.79,125.9889,1.0,1.0,1.0
44.8,141.5056,1.0,1.0,1.0
44.81,101.0111,1.0,1.0,1.0
44.82,115.0,1.0,1.0,1.0
44.83,121.0,1.0,1.0,1.0
44.84,139.4944,1.0,1.0,1.0
44.85,134.0,1.0,1.0,1.0
44.86,139.4944,1.0,1.0,1.0
44.87,129.9889,1.0,1.0,1.0
44.88,125.0,1.0,1.0,1.0
44.89,151.4944,1.0,1.0,1.0
44.9,132.0111,1.0,1.0,1.0
44.91,136.5056,1.0,1.0,1.0
44.92,149.5056,1.0,1.0,1.0
44.93,156.9889,1.0,1.0,1.0
44.94,126.5167,1.0,1.0,1.0
44.95,123.4944,1.0,1.0,1.0
44.96,135.5056,1.0,1.0,1.0
44.97,122.4944,1.0,1.0,1.0
44.98,126.5056,1.0,1.0,1.0
44.99,151.9778,1.0,1.0,1.0
45.0,122.0222,1.0,1.0,1.0
45.01,143.4944,1.0,1.0,1.0
45.02,127.0,1.0,1.0,1.0
45.03,152.4611,1.0,1.0,1.0
45.04,127.0444,1.0,1.0,1.0
45.05,121.9778,1.0,1.0,1.0
45.06,156.4944,1.0,1.0,1.0
45.07,136.0333,1.0,1.0,1.0
45.08,154.4833,1.0,1.0,1.0
45.09,123.4944,1.0,1.0,1.0
45.1,148.0222,1.0,1.0,1.0
45.11,140.9889,1.0,1.0,1.0
45.12,181.0,1.0,1.0,1.0
45.13,132.0,1.0,1.0,1.0
45.14,120.5056,1.0,1.0,1.0
45.15,132.0,1.0,1.0,1.0
45.16,171.9889,1.0,1.0,1.0
45.17,139.5056,1.0,1.0,1.0
45.18,136.9667,1.0,1.0,1.0
45.19,135.0333,1.0,1.0,1.0
45.2,150.9778,1.0,1.0,1.0
45.21,130.5278,1.0,1.0,1.0
45.22,184.4944,1.0,1.0,1.0
45.23,149.0,1.0,1.0,1.0
45.24,134.9889,1.0,1.0,1.0
45.25,156.0,1.0,1.0,1.0
45.26,167.5056,1.0,1.0,1.0
45.27,148.0,1.0,1.0,1.0
45.28,136.0111,1.0,1.0,1.0
45.29,161.4944,1.0,1.0,1.0
45.3,160.4944,1.0,1.0,1.0
45.31,129.5167,1.0,1.0,1.0
45.32,144.9889,1.0,1.0,1.0
45.33,139.5056,1.0,1.0,1.0
45.34,157.9778,1.0,1.0,1.0
45.35,177.5056,1.0,1.0,1.0
45.36,140.5056,1.0,1.0,1.0
45.37,154.0,1.0,1.0,1.0
45.38,138.5056,1.0,1.0,1.0
45.39,159.4944,1.0,1.0,1.0
45.4,153.4833,1.0,1.0,1.0
45.41,176.0111,1.0,1.0,1.0
45.42,178.5056,1.0,1.0,1.0
45.43,149.0,1.0,1.0,1.0
45.44,132.0111,1.0,1.0,1.0
45.45,130.0,1.0,1.0,1.0
45.46,142.9778,1.0,1.0,1.0
45.47,166.5167,1.0,1.0,1.0
45.48,148.4833,1.0,1.0,1.0
45.49,195.5056,1.0,1.0,1.0
45.5,163.4944,1.0,1.0,1.0
45.51,164.5167,1.0,1.0,1.0
45.52,172.4944,1.0,1.0,1.0
45.53,146.4944,1.0,1.0,1.0
45.54,172.9889,1.0,1.0,1.0
45.55,149.0111,1.0,1.0,1.0
45.56,153.0,1.0,1.0,1.0
45.57,147.0,1.0,1.0,1.0
45.58,185.4944,1.0,1.0,1.0
45.59,169.0111,1.0,1.0,1.0
45.6,186.4833,1.0,1.0,1.0
45.61,172.0111,1.0,1.0,1.0
45.62,153.0111,1.0,1.0,1.0
45.63,154.5056,1.0,1.0,1.0
45.64,167.4611,1.0,1.0,1.0
45.65,158.5167,1.0,1.0,1.0
45.66,165.5167,1.0,1.0,1.0
45.67,172.4944,1.0,1.0,1.0
45.68,187.4944,1.0,1.0,1.0
45.69,184.0111,1.0,1.0,1.0
45.7,163.9889,1.0,1.0,1.0
45.71,174.4944,1.0,1.0,1.0
45.72,179.5167,1.0,1.0,1.0
45.73,185.0111,1.0,1.0,1.0
45.74,158.9778,1.0,1.0,1.0
45.75,167.9889,1.0,1.0,1.0
45.76,165.0,1.0,1.0,1.0
45.77,230.0111,1.0,1.0,1.0
45.78,173.0111,1.0,1.0,1.0
45.79,174.4833,1.0,1.0,1.0
45.8,176.0,1.0,1.0,1.0
45.81,181.5056,1.0,1.0,1.0
45.82,176.5167,1.0,1.0,1.0
45.83,162.4833,1.0,1.0,1.0
45.84,197.5056,1.0,1.0,1.0
45.85,179.5056,1.0,1.0,1.0
45.86,190.4833,1.0,1.0,1.0
45.87,156.5056,1.0,1.0,1.0
45.88,178.0,1.0,1.0,1.0
45.89,137.0,1.0,1.0,1.0
45.9,170.0111,1.0,1.0,1.0
45.91,182.5056,1.0,1.0,1.0
45.92,197.9889,1.0,1.0,1.0
45.93,164.0111,1.0,1.0,1.0
45.94,164.9889,1.0,1.0,1.0
45.95,193.0111,1.0,1.0,1.0
45.96,181.0,1.0,1.0,1.0
45.97,158.4944,1.0,1.0,1.0
45.98,187.4944,1.0,1.0,1.0
45.99,159.4944,1.0,1.0,1.0
46.0,148.4944,1.0,1.0,1.0
46.01,172.0111,1.0,1.0,1.0
46.02,185.5056,1.0,1.0,1.0
46.03,183.0,1.0,1.0,1.0
46.04,149.5056,1.0,1.0,1.0
46.05,163.4722,1.0,1.0,1.0
46.06,169.0,1.0,1.0,1.0
46.07,166.0222,1.0,1.0,1.0
46.08,164.5056,1.0,1.0,1.0
46.09,153.9778,1.0,1.0,1.0
46.1,156.0222,1.0,1.0,1.0
46.11,160.4833,1.0,1.0,1.0
46.12,188.5056,1.0,1.0,1.0
46.13,168.4944,1.0,1.0,1.0
46.14,153.5056,1.0,1.0,1.0
46.15,130.4944,1.0,1.0,1.0
46.16,190.0111,1.0,1.0,1.0
46.17,147.9889,1.0,1.0,1.0
46.18,155.5056,1.0,1.0,1.0
46.19,166.9889,1.0,1.0,1.0
46.2,179.5167,1.0,1.0,1.0
46.21,160.9889,1.0,1.0,1.0
46.22,172.0111,1.0,1.0,1.0
46.23,181.9778,1.0,1.0,1.0
46.24,163.5278,1.0,1.0,1.0
46.25,189.4944,1.0,1.0,1.0
46.26,150.4944,1.0,1.0,1.0
46.27,168.4944,1.0,1.0,1.0
46.28,147.0222,1.0,1.0,1.0
46.29,154.4833,1.0,1.0,1.0
46.3,160.5056,1.0,1.0,1.0
46.31,163.4833,1.0,1.0,1.0
46.32,164.5167,1.0,1.0,1.0
46.33,171.0,1.0,1.0,1.0
46.34,180.4944,1.0,1.0,1.0
46.35,154.9889,1.0,1.0,1.0
46.36,164.0222,1.0,1.0,1.0
46.37,145.5056,1.0,1.0,1.0
46.38,147.4944,1.0,1.0,1.0
46.39,174.4833,1.0,1.0,1.0
46.4,161.4611,1.0,1.0,1.0
46.41,172.0222,1.0,1.0,1.0
46.42,179.5167,1.0,1.0,1.0
46.43,188.4944,1.0,1.0,1.0
46.44,135.5056,1.0,1.0,1.0
46.45,182.5167,1.0,1.0,1.0
46.46,162.4833,1.0,1.0,1.0
46.47,194.0111,1.0,1.0,1.0
46.48,188.4944,1.0,1.0,1.0
46.49,157.0,1.0,1.0,1.0
46.5,177.4833,1.0,1.0,1.0
46.51,164.5278,1.0,1.0,1.0
46.52,156.9889,1.0,1.0,1.0
46.53,169.9889,1.0,1.0,1.0
46.54,172.5056,1.0,1.0,1.0
46.55,176.5056,1.0,1.0,1.0
46.56,158.0,1.0,1.0,1.0
46.57,156.4944,1.0,1.0,1.0
46.58,191.4944,1.0,1.0,1.0
46.59,170.5167,1.0,1.0,1.0
46.6,143.0,1.0,1.0,1.0
46.61,147.9889,1.0,1.0,1.0
46.62,142.0,1.0,1.0,1.0
46.63,147.9889,1.0,1.0,1.0
46.64,156.0111,1.0,1.0,1.0
46.65,164.9889,1.0,1.0,1.0
46.66,171.0,1.0,1.0,1.0
46.67,202.5056,1.0,1.0,1.0
46.68,171.9889,1.0,1.0,1.0
46.69,155.5278,1.0,1.0,1.0
46.7,169.0111,1.0,1.0,1.0
46.71,143.4944,1.0,1.0,1.0
46.72,152.0,1.0,1.0,1.0
46.73,147.9889,1.0,1.0,1.0
46.74,141.0,1.0,1.0,1.0
46.75,144.4833,1.0,1.0,1.0
46.76,153.0111,1.0,1.0,1.0
46.77,170.5056,1.0,1.0,1.0
46.78,170.0,1.0,1.0,1.0
46.79,158.4944,1.0,1.0,1.0
46.8,162.0111,1.0,1.0,1.0
46.81,160.4833,1.0,1.0,1.0
46.82,127.4944,1.0,1.0,1.0
46.83,141.0222,1.0,1.0,1.0
46.84,169.4833,1.0,1.0,1.0
46.85,146.0222,1.0,1.0,1.0
46.86,152.4833,1.0,1.0,1.0
46.87,139.5056,1.0,1.0,1.0
46.88,150.9889,1.0,1.0,1.0
46.89,149.5056,1.0,1.0,1.0
46.9,183.0111,1.0,1.0,1.0
46.91,194.4833,1.0,1.0,1.0
46.92,173.0,1.0,1.0,1.0
46.93,170.0111,1.0,1.0,1.0
46.94,168.9889,1.0,1.0,1.0
46.95,180.5167,1.0,1.0,1.0
46.96,164.0,1.0,1.0,1.0
46.97,184.0,1.0,1.0,1.0
46.98,151.4944,1.0,1.0,1.0
46.99,151.5056,1.0,1.0,1.0
47.0,142.9889,1.0,1.0,1.0
47.01,160.0111,1.0,1.0,1.0
47.02,147.4833,1.0,1.0,1.0
47.03,175.4944,1.0,1.0,1.0
47.04,161.0,1.0,1.0,1.0
47.05,194.0333,1.0,1.0,1.0
47.06,190.4944,1.0,1.0,1.0
47.07,177.4944,1.0,1.0,1.0
47.08,169.4944,1.0,1.0,1.0
47.09,172.9889,1.0,1.0,1.0
47.1,164.0111,1.0,1.0,1.0
47.11,167.4944,1.0,1.0,1.0
47.12,197.4833,1.0,1.0,1.0
47.13,205.0222,1.0,1.0,1.0
47.14,172.0111,1.0,1.0,1.0
47.15,193.4722,1.0,1.0,1.0
47.16,168.0111,1.0,1.0,1.0
47.17,189.0,1.0,1.0,1.0
47.18,177.5167,1.0,1.0,1.0
47.19,193.4611,1.0,1.0,1.0
47.2,206.5278,1.0,1.0,1.0
47.21,202.4944,1.0,1.0,1.0
47.22,224.0,1.0,1.0,1.0
47.23,209.4944,1.0,1.0,1.0
47.24,212.5056,1.0,1.0,1.0
47.25,191.5056,1.0,1.0,1.0
47.26,183.0,1.0,1.0,1.0
47.27,211.0,1.0,1.0,1.0
47.28,221.9889,1.0,1.0,1.0
47.29,215.5056,1.0,1.0,1.0
47.3,215.5167,1.0,1.0,1.0
47.31,228.4722,1.0,1.0,1.0
47.32,258.0111,1.0,1.0,1.0
47.33,243.4833,1.0,1.0,1.0
47.34,240.0111,1.0,1.0,1.0
47.35,255.4944,1.0,1.0,1.0
47.36,244.5167,1.0,1.0,1.0
47.37,261.0111,1.0,1.0,1.0
47.38,260.9778,1.0,1.0,1.0
47.39,274.9889,1.0,1.0,1.0
47.4,265.0,1.0,1.0,1.0
47.41,269.4722,1.0,1.0,1.0
47.42,305.5389,1.0,1.0,1.0
47.43,278.4722,1.0,1.0,1.0
47.44,315.0222,1.0,1.0,1.0
47.45,306.5278,1.0,1.0,1.0
47.46,290.4833,1.0,1.0,1.0
47.47,312.9778,1.0,1.0,1.0
47.48,317.4944,1.0,1.0,1.0
47.49,295.5167,1.0,1.0,1.0
47.5,385.0222,1.0,1.0,1.0
47.51,347.4389,1.0,1.0,1.0
47.52,414.0222,1.0,1.0,1.0
47.53,375.5056,1.0,1.0,1.0
47.54,418.4944,1.0,1.0,1.0
47.55,409.5056,1.0,1.0,1.0
47.56,446.0,1.0,1.0,1.0
47.57,459.4833,1.0,1.0,1.0
47.58,437.5167,1.0,1.0,1.0
47.59,481.9889,1.0,1.0,1.0
47.6,508.5389,1.0,1.0,1.0
47.61,532.4722,1.0,1.0,1.0
47.62,534.4944,1.0,1.0,1.0
47.63,606.4833,1.0,1.0,1.0
47.64,603.5056,1.0,1.0,1.0
47.65,637.9889,1.0,1.0,1.0
47.66,690.0,1.0,1.0,1.0
47.67,710.0222,1.0,1.0,1.0
47.68,765.4722,1.0,1.0,1.0
47.69,836.9556,1.0,1.0,1.0
47.7,884.0111,1.0,1.0,1.0
47.71,968.4722,1.0,1.0,1.0
47.72,1010.51,1.0,1.0,1.0
47.73,1089.02,1.0,1.0,1.0
47.74,1159.94,1.0,1.0,1.0
47.75,1314.99,1.0,1.0,1.0
47.76,1745.48,1.0,1.0,1.0
47.77,2433.88,1.0,1.0,1.0
47.78,3789.07,1.0,1.0,1.0
47.79,5495.13,1.0,1.0,1.0
47.8,3589.17,1.0,1.0,1.0
47.81,3431.01,1.0,1.0,1.0
47.82,3821.01,1.0,1.0,1.0
47.83,3596.06,1.0,1.0,1.0
47.84,4067.811,1.0,1.0,1.0
47.85,4812.02,1.0,1.0,1.0
47.86,5693.86,1.0,1.0,1.0
47.87,6884.19,1.0,1.0,1.0
47.88,8617.33,1.0,1.0,1.0
47.89,11058.8,1.0,1.0,1.0
47.9,14277,1.0,1.0,1.0
47.91,19902.873,1.0,1.0,1.0
47.92,28106.8,1.0,1.0,1.0
47.93,43618.2,1.0,1.0,1.0
47.94,86827,1.0,1.0,1.0
47.95,387170,1.0,1.0,1.0
47.96,2110037.5,1.0,1.0,1.0
47.97,4124254.25,1.0,1.0,1.0
47.98,3412757.75,1.0,1.0,1.0
47.99,2449535.75,1.0,1.0,1.0
48.0,1940215.375,1.0,1.0,1.0
48.01,1847260.0,1.0,1.0,1.0
48.02,1480476.25,1.0,1.0,1.0
48.03,851370,1.0,1.0,1.0
48.04,423674,1.0,1.0,1.0
48.05,285228,1.0,1.0,1.0
48.06,164085,1.0,1.0,1.0
48.07,71491.4,1.0,1.0,1.0
48.08,25376.2,1.0,1.0,1.0
48.09,12273.6,1.0,1.0,1.0
48.1,8042.85,1.0,1.0,1.0
48.11,6100.772,1.0,1.0,1.0
48.12,4760.62,1.0,1.0,1.0
48.13,3816.04,1.0,1.0,1.0
48.14,3191.189,1.0,1.0,1.0
48.15,2614.03,1.0,1.0,1.0
48.16,2214.45,1.0,1.0,1.0
48.17,1984.61,1.0,1.0,1.0
48.18,1720.93,1.0,1.0,1.0
48.19,1425.1,1.0,1.0,1.0
48.2,1285.0,1.0,1.0,1.0
48.21,1167.52,1.0,1.0,1.0
48.22,1067.51,1.0,1.0,1.0
48.23,951.55,1.0,1.0,1.0
48.24,858.4833,1.0,1.0,1.0
48.25,795.9667,1.0,1.0,1.0
48.26,738.0333,1.0,1.0,1.0
48.27,637.5278,1.0,1.0,1.0
48.28,632.0,1.0,1.0,1.0
48.29,548.4944,1.0,1.0,1.0
48.3,536.5056,1.0,1.0,1.0
48.31,448.4944,1.0,1.0,1.0
48.32,436.9889,1.0,1.0,1.0
48.33,406.0333,1.0,1.0,1.0
48.34,389.0111,1.0,1.0,1.0
48.35,340.4722,1.0,1.0,1.0
48.36,325.0333,1.0,1.0,1.0
48.37,286.0,1.0,1.0,1.0
48.38,296.0,1.0,1.0,1.0
48.39,252.9778,1.0,1.0,1.0
48.4,285.0222,1.0,1.0,1.0
48.41,266.4944,1.0,1.0,1.0
48.42,229.4944,1.0,1.0,1.0
48.43,214.4944,1.0,1.0,1.0
48.44,226.0222,1.0,1.0,1.0
48.45,184.4944,1.0,1.0,1.0
48.46,172.0,1.0,1.0,1.0
48.47,149.0222,1.0,1.0,1.0
48.48,170.9778,1.0,1.0,1.0
48.49,125.5056,1.0,1.0,1.0
48.5,156.0,1.0,1.0,1.0
48.51,162.9889,1.0,1.0,1.0
48.52,150.0222,1.0,1.0,1.0
48.53,141.0,1.0,1.0,1.0
48.54,105.4944,1.0,1.0,1.0
48.55,120.0111,1.0,1.0,1.0
48.56,114.9889,1.0,1.0,1.0
48.57,107.5056,1.0,1.0,1.0
48.58,108.5056,1.0,1.0,1.0
48.59,92.4833,1.0,1.0,1.0
48.6,100.0,1.0,1.0,1.0
48.61,76.9889,1.0,1.0,1.0
48.62,74.5167,1.0,1.0,1.0
48.63,61.5056,1.0,1.0,1.0
48.64,70.4944,1.0,1.0,1.0
48.65,53.5056,1.0,1.0,1.0
48.66,76.5056,1.0,1.0,1.0
48.67,52.4944,1.0,1.0,1.0
48.68,66.0,1.0,1.0,1.0
48.69,50.4944,1.0,1.0,1.0
48.7,57.0,1.0,1.0,1.0
48.71,61.4944,1.0,1.0,1.0
48.72,61.5167,1.0,1.0,1.0
48.73,53.0,1.0,1.0,1.0
48.74,49.9778,1.0,1.0,1.0
48.75,45.5167,1.0,1.0,1.0
48.76,35.0,1.0,1.0,1.0
48.77,51.0,1.0,1.0,1.0
48.78,66.5056,1.0,1.0,1.0
48.79,49.4944,1.0,1.0,1.0
48.8,43.0,1.0,1.0,1.0
48.81,43.5056,1.0,1.0,1.0
48.82,40.9889,1.0,1.0,1.0
48.83,41.5056,1.0,1.0,1.0
48.84,57.0,1.0,1.0,1.0
48.85,30.4944,1.0,1.0,1.0
48.86,50.0111,1.0,1.0,1.0
48.87,37.9889,1.0,1.0,1.0
48.88,30.0111,1.0,1.0,1.0
48.89,31.4944,1.0,1.0,1.0
48.9,33.5056,1.0,1.0,1.0
48.91,19.9889,1.0,1.0,1.0
48.92,40.5056,1.0,1.0,1.0
48.93,42.5056,1.0,1.0,1.0
48.94,37.0,1.0,1.0,1.0
48.95,24.4944,1.0,1.0,1.0
48.96,28.5056,1.0,1.0,1.0
48.97,25.0,1.0,1.0,1.0
48.98,34.4944,1.0,1.0,1.0
48.99,16.0,1.0,1.0,1.0
49.0,14.5056,1.0,1.0,1.0
49.01,14.0,1.0,1.0,1.0
49.02,25.0,1.0,1.0,1.0
49.03,14.0,1.0,1.0,1.0
49.04,28.0,1.0,1.0,1.0
49.05,15.0,1.0,1.0,1.0
49.06,17.0,1.0,1.0,1.0
49.07,17.0,1.0,1.0,1.0
49.08,19.0,1.0,1.0,1.0
49.09,15.4944,1.0,1.0,1.0
49.1,16.0,1.0,1.0,1.0
49.11,23.5056,1.0,1.0,1.0
49.12,23.0,1.0,1.0,1.0
49.13,14.0,1.0,1.0,1.0
49.14,13.0,1.0,1.0,1.0
49.15,6.4944,1.0,1.0,1.0
49.16,18.5056,1.0,1.0,1.0
49.17,15.0,1.0,1.0,1.0
49.18,6.0,1.0,1.0,1.0
49.19,25.9889,1.0,1.0,1.0
49.2,21.0111,1.0,1.0,1.0
49.21,15.0,1.0,1.0,1.0
49.22,14.0,1.0,1.0,1.0
49.23,13.0,1.0,1.0,1.0
49.24,9.0,1.0,1.0,1.0
49.25,9.0,1.0,1.0,1.0
49.26,9.0,1.0,1.0,1.0
49.27,11.0,1.0,1.0,1.0
49.28,5.0,1.0,1.0,1.0
49.29,13.0,1.0,1.0,1.0
49.3,10.0,1.0,1.0,1.0
49.31,13.0,1.0,1.0,1.0
49.32,10.0,1.0,1.0,1.0
49.33,15.0,1.0,1.0,1.0
49.34,9.0,1.0,1.0,1.0
49.35,9.0,1.0,1.0,1.0
49.36,7.0,1.0,1.0,1.0
49.37,3.0,1.0,1.0,1.0
49.38,9.0,1.0,1.0,1.0
49.39,13.0,1.0,1.0,1.0
49.4,6.0,1.0,1.0,1.0
49.41,15.0,1.0,1.0,1.0
49.42,10.0,1.0,1.0,1.0
49.43,7.0,1.0,1.0,1.0
49.44,2.0,1.0,1.0,1.0
49.45,0.4944,1.0,1.0,1.0
49.46,10.5056,1.0,1.0,1.0
49.47,9.0,1.0,1.0,1.0
49.48,0.0,1.0,1.0,1.0
49.49,8.0,1.0,1.0,1.0
49.5,2.0,1.0,1.0,1.0
49.51,4.0,1.0,1.0,1.0
49.52,6.0,1.0,1.0,1.0
49.53,13.0,1.0,1.0,1.0
49.54,5.0,1.0,1.0,1.0
49.55,9.0,1.0,1.0,1.0
49.56,16.0,1.0,1.0,1.0
49.57,11.0,1.0,1.0,1.0
49.58,0.0,1.0,1.0,1.0
49.59,6.0,1.0,1.0,1.0
49.6,10.0,1.0,1.0,1.0
49.61,13.0,1.0,1.0,1.0
49.62,9.0,1.0,1.0,1.0
49.63,0.0,1.0,1.0,1.0
49.64,2.0,1.0,1.0,1.0
49.65,10.0,1.0,1.0,1.0
49.66,7.0,1.0,1.0,1.0
49.67,8.0,1.0,1.0,1.0
49.68,5.0,1.0,1.0,1.0
49.69,10.0,1.0,1.0,1.0
49.7,2.4944,1.0,1.0,1.0
49.71,6.5056,1.0,1.0,1.0
49.72,0.0,1.0,1.0,1.0
49.73,8.0,1.0,1.0,1.0
49.74,0.0,1.0,1.0,1.0
49.75,7.0,1.0,1.0,1.0
49.76,8.0,1.0,1.0,1.0
49.77,0.4944,1.0,1.0,1.0
49.78,7.5056,1.0,1.0,1.0
49.79,4.0,1.0,1.0,1.0
49.8,0.0,1.0,1.0,1.0
49.81,8.0,1.0,1.0,1.0
49.82,5.0,1.0,1.0,1.0
49.83,4.0,1.0,1.0,1.0
49.84,10.0,1.0,1.0,1.0
49.85,2.0,1.0,1.0,1.0
49.86,3.0,1.0,1.0,1.0
49.87,0.0,1.0,1.0,1.0
49.88,9.0,1.0,1.0,1.0
49.89,0.0,1.0,1.0,1.0
49.9,0.0,1.0,1.0,1.0
49.91,0.0,1.0,1.0,1.0
49.92,2.4944,1.0,1.0,1.0
49.93,8.5056,1.0,1.0,1.0
49.94,4.0,1.0,1.0,1.0
49.95,0.4944,1.0,1.0,1.0
49.96,10.5056,1.0,1.0,1.0
49.97,3.0,1.0,1.0,1.0
49.98,2.0,1.0,1.0,1.0
49.99,4.0,1.0,1.0,1.0
50.0,9.0,1.0,1.0,1.0
50.01,4.0,1.0,1.0,1.0
50.02,2.0,1.0,1.0,1.0
50.03,5.0,1.0,1.0,1.0
50.04,7.0,1.0,1.0,1.0
50.05,2.0,1.0,1.0,1.0
50.06,6.0,1.0,1.0,1.0
50.07,4.0,1.0,1.0,1.0
50.08,0.0,1.0,1.0,1.0
50.09,4.0,1.0,1.0,1.0
50.1,8.0,1.0,1.0,1.0
50.11,3.0,1.0,1.0,1.0
50.12,3.0,1.0,1.0,1.0
50.13,4.0,1.0,1.0,1.0
50.14,3.0,1.0,1.0,1.0
50.15,2.0,1.0,1.0,1.0
50.16,5.0,1.0,1.0,1.0
50.17,0.0,1.0,1.0,1.0
50.18,0.0,1.0,1.0,1.0
50.19,3.0,1.0,1.0,1.0
50.2,6.0,1.0,1.0,1.0
50.21,6.0,1.0,1.0,1.0
50.22,8.0,1.0,1.0,1.0
50.23,7.0,1.0,1.0,1.0
50.24,2.0,1.0,1.0,1.0
50.25,9.0,1.0,1.0,1.0
50.26,7.0,1.0,1.0,1.0
50.27,0.0,1.0,1.0,1.0
50.28,6.0,1.0,1.0,1.0
50.29,2.0,1.0,1.0,1.0
50.3,2.0,1.0,1.0,1.0
50.31,7.0,1.0,1.0,1.0
50.32,9.0,1.0,1.0,1.0
50.33,0.0,1.0,1.0,1.0
50.34,2.0,1.0,1.0,1.0
50.35,2.0,1.0,1.0,1.0
50.36,4.0,1.0,1.0,1.0
50.37,2.0,1.0,1.0,1.0
50.38,3.0,1.0,1.0,1.0
50.39,2.0,1.0,1.0,1.0
50.4,2.0,1.0,1.0,1.0
50.41,2.0,1.0,1.0,1.0
50.42,0.0,1.0,1.0,1.0
50.43,4.0,1.0,1.0,1.0
50.44,2.4944,1.0,1.0,1.0
50.45,3.5056,1.0,1.0,1.0
50.46,2.0,1.0,1.0,1.0
50.47,2.0,1.0,1.0,1.0
50.48,4.0,1.0,1.0,1.0
50.49,0.0,1.0,1.0,1.0
50.5,6.0,1.0,1.0,1.0
50.51,4.0,1.0,1.0,1.0
50.52,10.0,1.0,1.0,1.0
50.53,7.0,1.0,1.0,1.0
50.54,2.0,1.0,1.0,1.0
50.55,3.0,1.0,1.0,1.0
50.56,5.0,1.0,1.0,1.0
50.57,2.0,1.0,1.0,1.0
50.58,0.0,1.0,1.0,1.0
50.59,0.0,1.0,1.0,1.0
50.6,5.0,1.0,1.0,1.0
50.61,2.0,1.0,1.0,1.0
50.62,3.0,1.0,1.0,1.0
50.63,0.0,1.0,1.0,1.0
50.64,7.0,1.0,1.0,1.0
50.65,4.0,1.0,1.0,1.0
50.66,0.0,1.0,1.0,1.0
50.67,0.0,1.0,1.0,1.0
50.68,4.0,1.0,1.0,1.0
50.69,0.0,1.0,1.0,1.0
50.7,4.4944,1.0,1.0,1.0
50.71,0.5056,1.0,1.0,1.0
50.72,4.0,1.0,1.0,1.0
50.73,0.0,1.0,1.0,1.0
50.74,0.0,1.0,1.0,1.0
50.75,3.0,1.0,1.0,1.0
50.76,3.4944,1.0,1.0,1.0
50.77,5.5056,1.0,1.0,1.0
50.78,4.0,1.0,1.0,1.0
50.79,3.0,1.0,1.0,1.0
50.8,0.0,1.0,1.0,1.0
50.81,3.0,1.0,1.0,1.0
50.82,3.0,1.0,1.0,1.0
50.83,3.0,1.0,1.0,1.0
50.84,0.0,1.0,1.0,1.0
50.85,6.0,1.0,1.0,1.0
50.86,5.0,1.0,1.0,1.0
50.87,2.0,1.0,1.0,1.0
50.88,3.0,1.0,1.0,1.0
50.89,0.0,1.0,1.0,1.0
50.9,2.0,1.0,1.0,1.0
50.91,5.0,1.0,1.0,1.0
50.92,4.0,1.0,1.0,1.0
50.93,7.0,1.0,1.0,1.0
50.94,2.0,1.0,1.0,1.0
50.95,4.0,1.0,1.0,1.0
50.96,3.0,1.0,1.0,1.0
50.97,0.0,1.0,1.0,1.0
50.98,1.0,1.0,1.0,1.0
50.99,0.0,1.0,1.0,1.0
51.0,2.0,1.0,1.0,1.0
51.01,3.0,1.0,1.0,1.0
51.02,2.0,1.0,1.0,1.0
51.03,9.0,1.0,1.0,1.0
51.04,0.0,1.0,1.0,1.0
51.05,7.0,1.0,1.0,1.0
51.06,2.0,1.0,1.0,1.0
51.07,2.0,1.0,1.0,1.0
51.08,5.0,1.0,1.0,1.0
51.09,3.0,1.0,1.0,1.0
51.1,0.0,1.0,1.0,1.0
51.11,8.0,1.0,1.0,1.0
51.12,0.0,1.0,1.0,1.0
51.13,0.0,1.0,1.0,1.0
51.14,4.0,1.0,1.0,1.0
51.15,2.0,1.0,1.0,1.0
51.16,0.0,1.0,1.0,1.0
51.17,4.0,1.0,1.0,1.0
51.18,2.0,1.0,1.0,1.0
51.19,3.0,1.0,1.0,1.0
51.2,2.0,1.0,1.0,1.0
51.21,3.0,1.0,1.0,1.0
51.22,4.0,1.0,1.0,1.0
51.23,0.0,1.0,1.0,1.0
51.24,0.0,1.0,1.0,1.0
51.25,6.0,1.0,1.0,1.0
51.26,3.0,1.0,1.0,1.0
51.27,3.0,1.0,1.0,1.0
51.28,4.0,1.0,1.0,1.0
51.29,2.0,1.0,1.0,1.0
51.3,2.0,1.0,1.0,1.0
51.31,0.0,1.0,1.0,1.0
51.32,3.0,1.0,1.0,1.0
51.33,5.0,1.0,1.0,1.0
51.34,3.0,1.0,1.0,1.0
51.35,0.0,1.0,1.0,1.0
51.36,0.0,1.0,1.0,1.0
51.37,0.0,1.0,1.0,1.0
51.38,2.0,1.0,1.0,1.0
51.39,4.0,1.0,1.0,1.0
51.4,4.0,1.0,1.0,1.0
51.41,0.0,1.0,1.0,1.0
51.42,0.0,1.0,1.0,1.0
51.43,0.0,1.0,1.0,1.0
51.44,2.0,1.0,1.0,1.0
51.45,2.0,1.0,1.0,1.0
51.46,3.0,1.0,1.0,1.0
51.47,0.0,1.0,1.0,1.0
51.48,5.0,1.0,1.0,1.0
51.49,0.0,1.0,1.0,1.0
51.5,7.0,1.0,1.0,1.0
51.51,0.0,1.0,1.0,1.0
51.52,2.0,1.0,1.0,1.0
51.53,0.0,1.0,1.0,1.0
51.54,0.4944,1.0,1.0,1.0
51.55,1.5056,1.0,1.0,1.0
51.56,3.0,1.0,1.0,1.0
51.57,0.0,1.0,1.0,1.0
51.58,0.0,1.0,1.0,1.0
51.59,0.0,1.0,1.0,1.0
51.6,5.0,1.0,1.0,1.0
51.61,4.0,1.0,1.0,1.0
51.62,0.0,1.0,1.0,1.0
51.63,0.0,1.0,1.0,1.0
51.64,0.0,1.0,1.0,1.0
51.65,0.0,1.0,1.0,1.0
51.66,2.0,1.0,1.0,1.0
51.67,5.0,1.0,1.0,1.0
51.68,3.0,1.0,1.0,1.0
51.69,2.0,1.0,1.0,1.0
51.7,2.0,1.0,1.0,1.0
51.71,3.0,1.0,1.0,1.0
51.72,5.0,1.0,1.0,1.0
51.73,6.4944,1.0,1.0,1.0
51.74,4.5056,1.0,1.0,1.0
51.75,2.0,1.0,1.0,1.0
51.76,0.0,1.0,1.0,1.0
51.77,2.0,1.0,1.0,1.0
51.78,6.4944,1.0,1.0,1.0
51.79,0.5056,1.0,1.0,1.0
51.8,5.0,1.0,1.0,1.0
51.81,2.0,1.0,1.0,1.0
51.82,0.0,1.0,1.0,1.0
51.83,4.0,1.0,1.0,1.0
51.84,2.0,1.0,1.0,1.0
51.85,0.0,1.0,1.0,1.0
51.86,0.0,1.0,1.0,1.0
51.87,2.0,1.0,1.0,1.0
51.88,3.0,1.0,1.0,1.0
51.89,0.0,1.0,1.0,1.0
51.9,2.0,1.0,1.0,1.0
51.91,2.0,1.0,1.0,1.0
51.92,2.4944,1.0,1.0,1.0
51.93,2.5056,1.0,1.0,1.0
51.94,0.4944,1.0,1.0,1.0
51.95,0.5056,1.0,1.0,1.0
51.96,0.0,1.0,1.0,1.0
51.97,0.0,1.0,1.0,1.0
51.98,6.0,1.0,1.0,1.0
51.99,6.0,1.0,1.0,1.0
52.0,6.4944,1.0,1.0,1.0