File: XRD:XRR/CSV/D_22128_LCOL_XRD_200.csv
#twotheta, yobs, ycal, bkg, diff
42.0,6.5056,1.0,1.0,1.0
42.01,10.4944,1.0,1.0,1.0
42.02,5.5056,1.0,1.0,1.0
42.03,9.0,1.0,1.0,1.0
42.04,1.4944,1.0,1.0,1.0
42.05,15.5056,1.0,1.0,1.0
42.06,11.0,1.0,1.0,1.0
42.07,13.0,1.0,1.0,1.0
42.08,14.0,1.0,1.0,1.0
42.09,13.0,1.0,1.0,1.0
42.1,27.0,1.0,1.0,1.0
42.11,7.0,1.0,1.0,1.0
42.12,5.0,1.0,1.0,1.0
42.13,16.0,1.0,1.0,1.0
42.14,11.0,1.0,1.0,1.0
42.15,6.0,1.0,1.0,1.0
42.16,15.0,1.0,1.0,1.0
42.17,7.0,1.0,1.0,1.0
42.18,11.0,1.0,1.0,1.0
42.19,19.0,1.0,1.0,1.0
42.2,14.0,1.0,1.0,1.0
42.21,13.0,1.0,1.0,1.0
42.22,15.0,1.0,1.0,1.0
42.23,9.0,1.0,1.0,1.0
42.24,9.0,1.0,1.0,1.0
42.25,6.0,1.0,1.0,1.0
42.26,30.0,1.0,1.0,1.0
42.27,15.0,1.0,1.0,1.0
42.28,7.0,1.0,1.0,1.0
42.29,4.0,1.0,1.0,1.0
42.3,14.0,1.0,1.0,1.0
42.31,8.4833,1.0,1.0,1.0
42.32,17.5167,1.0,1.0,1.0
42.33,13.0,1.0,1.0,1.0
42.34,14.0,1.0,1.0,1.0
42.35,12.0,1.0,1.0,1.0
42.36,9.4944,1.0,1.0,1.0
42.37,15.5056,1.0,1.0,1.0
42.38,8.0,1.0,1.0,1.0
42.39,7.0,1.0,1.0,1.0
42.4,27.4944,1.0,1.0,1.0
42.41,8.5056,1.0,1.0,1.0
42.42,8.0,1.0,1.0,1.0
42.43,0.0,1.0,1.0,1.0
42.44,9.0,1.0,1.0,1.0
42.45,8.0,1.0,1.0,1.0
42.46,10.0,1.0,1.0,1.0
42.47,19.0,1.0,1.0,1.0
42.48,13.0,1.0,1.0,1.0
42.49,2.0,1.0,1.0,1.0
42.5,6.0,1.0,1.0,1.0
42.51,2.4944,1.0,1.0,1.0
42.52,13.5056,1.0,1.0,1.0
42.53,4.0,1.0,1.0,1.0
42.54,4.0,1.0,1.0,1.0
42.55,8.0,1.0,1.0,1.0
42.56,5.0,1.0,1.0,1.0
42.57,8.0,1.0,1.0,1.0
42.58,0.0,1.0,1.0,1.0
42.59,5.4944,1.0,1.0,1.0
42.6,3.5056,1.0,1.0,1.0
42.61,12.0,1.0,1.0,1.0
42.62,11.4944,1.0,1.0,1.0
42.63,63.0,1.0,1.0,1.0
42.64,12.5056,1.0,1.0,1.0
42.65,3.0,1.0,1.0,1.0
42.66,11.0,1.0,1.0,1.0
42.67,17.4944,1.0,1.0,1.0
42.68,10.5056,1.0,1.0,1.0
42.69,7.0,1.0,1.0,1.0
42.7,8.4944,1.0,1.0,1.0
42.71,15.0,1.0,1.0,1.0
42.72,15.5056,1.0,1.0,1.0
42.73,11.4944,1.0,1.0,1.0
42.74,8.5056,1.0,1.0,1.0
42.75,20.0,1.0,1.0,1.0
42.76,13.0,1.0,1.0,1.0
42.77,20.4944,1.0,1.0,1.0
42.78,23.0,1.0,1.0,1.0
42.79,19.5056,1.0,1.0,1.0
42.8,14.9889,1.0,1.0,1.0
42.81,20.0111,1.0,1.0,1.0
42.82,9.0,1.0,1.0,1.0
42.83,17.0,1.0,1.0,1.0
42.84,2.0,1.0,1.0,1.0
42.85,16.4944,1.0,1.0,1.0
42.86,11.5056,1.0,1.0,1.0
42.87,11.0,1.0,1.0,1.0
42.88,7.0,1.0,1.0,1.0
42.89,15.0,1.0,1.0,1.0
42.9,13.0,1.0,1.0,1.0
42.91,17.0,1.0,1.0,1.0
42.92,12.0,1.0,1.0,1.0
42.93,14.0,1.0,1.0,1.0
42.94,9.0,1.0,1.0,1.0
42.95,23.0,1.0,1.0,1.0
42.96,11.0,1.0,1.0,1.0
42.97,9.4944,1.0,1.0,1.0
42.98,21.5056,1.0,1.0,1.0
42.99,9.0,1.0,1.0,1.0
43.0,14.4944,1.0,1.0,1.0
43.01,13.0,1.0,1.0,1.0
43.02,19.5056,1.0,1.0,1.0
43.03,0.0,1.0,1.0,1.0
43.04,3.0,1.0,1.0,1.0
43.05,13.4944,1.0,1.0,1.0
43.06,21.5056,1.0,1.0,1.0
43.07,8.0,1.0,1.0,1.0
43.08,2.4944,1.0,1.0,1.0
43.09,14.5056,1.0,1.0,1.0
43.1,16.0,1.0,1.0,1.0
43.11,16.0,1.0,1.0,1.0
43.12,14.0,1.0,1.0,1.0
43.13,11.9889,1.0,1.0,1.0
43.14,19.0111,1.0,1.0,1.0
43.15,12.0,1.0,1.0,1.0
43.16,8.0,1.0,1.0,1.0
43.17,11.0,1.0,1.0,1.0
43.18,7.0,1.0,1.0,1.0
43.19,6.0,1.0,1.0,1.0
43.2,8.4944,1.0,1.0,1.0
43.21,17.5056,1.0,1.0,1.0
43.22,8.4944,1.0,1.0,1.0
43.23,18.5056,1.0,1.0,1.0
43.24,11.0,1.0,1.0,1.0
43.25,8.0,1.0,1.0,1.0
43.26,7.4944,1.0,1.0,1.0
43.27,7.5056,1.0,1.0,1.0
43.28,11.0,1.0,1.0,1.0
43.29,3.0,1.0,1.0,1.0
43.3,19.0,1.0,1.0,1.0
43.31,12.0,1.0,1.0,1.0
43.32,7.4944,1.0,1.0,1.0
43.33,6.5056,1.0,1.0,1.0
43.34,13.0,1.0,1.0,1.0
43.35,12.0,1.0,1.0,1.0
43.36,11.0,1.0,1.0,1.0
43.37,10.0,1.0,1.0,1.0
43.38,10.0,1.0,1.0,1.0
43.39,7.0,1.0,1.0,1.0
43.4,19.9889,1.0,1.0,1.0
43.41,27.0111,1.0,1.0,1.0
43.42,23.0,1.0,1.0,1.0
43.43,24.0,1.0,1.0,1.0
43.44,10.4944,1.0,1.0,1.0
43.45,13.0,1.0,1.0,1.0
43.46,21.5056,1.0,1.0,1.0
43.47,6.9889,1.0,1.0,1.0
43.48,32.0111,1.0,1.0,1.0
43.49,22.0,1.0,1.0,1.0
43.5,27.4944,1.0,1.0,1.0
43.51,26.5056,1.0,1.0,1.0
43.52,17.4944,1.0,1.0,1.0
43.53,31.5056,1.0,1.0,1.0
43.54,18.0,1.0,1.0,1.0
43.55,21.4944,1.0,1.0,1.0
43.56,37.4944,1.0,1.0,1.0
43.57,14.5056,1.0,1.0,1.0
43.58,11.0,1.0,1.0,1.0
43.59,23.5056,1.0,1.0,1.0
43.6,42.0,1.0,1.0,1.0
43.61,25.0,1.0,1.0,1.0
43.62,30.0,1.0,1.0,1.0
43.63,21.0,1.0,1.0,1.0
43.64,20.0,1.0,1.0,1.0
43.65,27.9889,1.0,1.0,1.0
43.66,16.5056,1.0,1.0,1.0
43.67,26.0,1.0,1.0,1.0
43.68,15.5056,1.0,1.0,1.0
43.69,8.0,1.0,1.0,1.0
43.7,34.0,1.0,1.0,1.0
43.71,19.0,1.0,1.0,1.0
43.72,16.0,1.0,1.0,1.0
43.73,10.0,1.0,1.0,1.0
43.74,11.4944,1.0,1.0,1.0
43.75,17.0,1.0,1.0,1.0
43.76,20.0,1.0,1.0,1.0
43.77,8.5056,1.0,1.0,1.0
43.78,7.0,1.0,1.0,1.0
43.79,7.0,1.0,1.0,1.0
43.8,13.4944,1.0,1.0,1.0
43.81,9.0,1.0,1.0,1.0
43.82,16.5056,1.0,1.0,1.0
43.83,4.0,1.0,1.0,1.0
43.84,14.0,1.0,1.0,1.0
43.85,9.0,1.0,1.0,1.0
43.86,15.0,1.0,1.0,1.0
43.87,14.0,1.0,1.0,1.0
43.88,10.4944,1.0,1.0,1.0
43.89,11.5056,1.0,1.0,1.0
43.9,7.0,1.0,1.0,1.0
43.91,5.0,1.0,1.0,1.0
43.92,5.0,1.0,1.0,1.0
43.93,8.4944,1.0,1.0,1.0
43.94,10.0,1.0,1.0,1.0
43.95,17.5056,1.0,1.0,1.0
43.96,5.0,1.0,1.0,1.0
43.97,23.0,1.0,1.0,1.0
43.98,23.4833,1.0,1.0,1.0
43.99,13.5167,1.0,1.0,1.0
44.0,13.0,1.0,1.0,1.0
44.01,6.0,1.0,1.0,1.0
44.02,23.4944,1.0,1.0,1.0
44.03,15.5056,1.0,1.0,1.0
44.04,27.0,1.0,1.0,1.0
44.05,25.0,1.0,1.0,1.0
44.06,20.4944,1.0,1.0,1.0
44.07,29.0,1.0,1.0,1.0
44.08,30.5056,1.0,1.0,1.0
44.09,19.0,1.0,1.0,1.0
44.1,45.0,1.0,1.0,1.0
44.11,32.0,1.0,1.0,1.0
44.12,33.0,1.0,1.0,1.0
44.13,33.4944,1.0,1.0,1.0
44.14,30.5056,1.0,1.0,1.0
44.15,38.4833,1.0,1.0,1.0
44.16,29.5056,1.0,1.0,1.0
44.17,47.0,1.0,1.0,1.0
44.18,32.0111,1.0,1.0,1.0
44.19,26.9889,1.0,1.0,1.0
44.2,56.0111,1.0,1.0,1.0
44.21,59.0,1.0,1.0,1.0
44.22,59.4944,1.0,1.0,1.0
44.23,60.4944,1.0,1.0,1.0
44.24,71.0111,1.0,1.0,1.0
44.25,36.0,1.0,1.0,1.0
44.26,53.4944,1.0,1.0,1.0
44.27,71.0,1.0,1.0,1.0
44.28,49.5056,1.0,1.0,1.0
44.29,51.9889,1.0,1.0,1.0
44.3,60.0111,1.0,1.0,1.0
44.31,38.9889,1.0,1.0,1.0
44.32,67.0111,1.0,1.0,1.0
44.33,51.0,1.0,1.0,1.0
44.34,40.4944,1.0,1.0,1.0
44.35,36.0,1.0,1.0,1.0
44.36,40.5056,1.0,1.0,1.0
44.37,37.9889,1.0,1.0,1.0
44.38,47.5056,1.0,1.0,1.0
44.39,41.4944,1.0,1.0,1.0
44.4,36.5056,1.0,1.0,1.0
44.41,29.5056,1.0,1.0,1.0
44.42,24.0,1.0,1.0,1.0
44.43,27.0,1.0,1.0,1.0
44.44,23.0,1.0,1.0,1.0
44.45,34.4944,1.0,1.0,1.0
44.46,17.5056,1.0,1.0,1.0
44.47,19.0,1.0,1.0,1.0
44.48,29.0,1.0,1.0,1.0
44.49,29.9889,1.0,1.0,1.0
44.5,20.0111,1.0,1.0,1.0
44.51,19.0,1.0,1.0,1.0
44.52,20.0,1.0,1.0,1.0
44.53,11.4944,1.0,1.0,1.0
44.54,18.0,1.0,1.0,1.0
44.55,24.5056,1.0,1.0,1.0
44.56,4.4944,1.0,1.0,1.0
44.57,24.4944,1.0,1.0,1.0
44.58,15.5056,1.0,1.0,1.0
44.59,16.5056,1.0,1.0,1.0
44.6,11.0,1.0,1.0,1.0
44.61,26.4944,1.0,1.0,1.0
44.62,27.0,1.0,1.0,1.0
44.63,21.5056,1.0,1.0,1.0
44.64,17.9889,1.0,1.0,1.0
44.65,33.0111,1.0,1.0,1.0
44.66,31.0,1.0,1.0,1.0
44.67,20.0,1.0,1.0,1.0
44.68,22.9889,1.0,1.0,1.0
44.69,42.0,1.0,1.0,1.0
44.7,41.4944,1.0,1.0,1.0
44.71,63.5056,1.0,1.0,1.0
44.72,76.0111,1.0,1.0,1.0
44.73,70.4944,1.0,1.0,1.0
44.74,61.0,1.0,1.0,1.0
44.75,72.5056,1.0,1.0,1.0
44.76,58.9889,1.0,1.0,1.0
44.77,78.0,1.0,1.0,1.0
44.78,84.5056,1.0,1.0,1.0
44.79,111.4944,1.0,1.0,1.0
44.8,102.5056,1.0,1.0,1.0
44.81,109.9889,1.0,1.0,1.0
44.82,125.5056,1.0,1.0,1.0
44.83,148.4944,1.0,1.0,1.0
44.84,124.0111,1.0,1.0,1.0
44.85,140.0,1.0,1.0,1.0
44.86,128.0,1.0,1.0,1.0
44.87,149.4833,1.0,1.0,1.0
44.88,151.4944,1.0,1.0,1.0
44.89,155.0,1.0,1.0,1.0
44.9,165.5056,1.0,1.0,1.0
44.91,146.4944,1.0,1.0,1.0
44.92,185.4944,1.0,1.0,1.0
44.93,176.0222,1.0,1.0,1.0
44.94,174.4833,1.0,1.0,1.0
44.95,187.0111,1.0,1.0,1.0
44.96,138.4944,1.0,1.0,1.0
44.97,150.0111,1.0,1.0,1.0
44.98,186.4833,1.0,1.0,1.0
44.99,188.5056,1.0,1.0,1.0
45.0,165.0111,1.0,1.0,1.0
45.01,175.9778,1.0,1.0,1.0
45.02,128.5056,1.0,1.0,1.0
45.03,167.5278,1.0,1.0,1.0
45.04,151.0,1.0,1.0,1.0
45.05,111.9889,1.0,1.0,1.0
45.06,123.4833,1.0,1.0,1.0
45.07,129.0222,1.0,1.0,1.0
45.08,106.9889,1.0,1.0,1.0
45.09,129.0,1.0,1.0,1.0
45.1,120.0111,1.0,1.0,1.0
45.11,111.5056,1.0,1.0,1.0
45.12,89.9889,1.0,1.0,1.0
45.13,70.0111,1.0,1.0,1.0
45.14,86.0,1.0,1.0,1.0
45.15,79.4944,1.0,1.0,1.0
45.16,59.5056,1.0,1.0,1.0
45.17,60.4944,1.0,1.0,1.0
45.18,79.0,1.0,1.0,1.0
45.19,43.5056,1.0,1.0,1.0
45.2,76.0,1.0,1.0,1.0
45.21,40.0,1.0,1.0,1.0
45.22,39.0,1.0,1.0,1.0
45.23,53.0,1.0,1.0,1.0
45.24,41.0,1.0,1.0,1.0
45.25,33.4944,1.0,1.0,1.0
45.26,36.0,1.0,1.0,1.0
45.27,56.5056,1.0,1.0,1.0
45.28,64.9889,1.0,1.0,1.0
45.29,53.4944,1.0,1.0,1.0
45.3,76.5056,1.0,1.0,1.0
45.31,83.0,1.0,1.0,1.0
45.32,99.4833,1.0,1.0,1.0
45.33,130.0111,1.0,1.0,1.0
45.34,161.0,1.0,1.0,1.0
45.35,162.0,1.0,1.0,1.0
45.36,219.9889,1.0,1.0,1.0
45.37,243.4944,1.0,1.0,1.0
45.38,272.9778,1.0,1.0,1.0
45.39,332.0222,1.0,1.0,1.0
45.4,390.0,1.0,1.0,1.0
45.41,415.4833,1.0,1.0,1.0
45.42,459.0111,1.0,1.0,1.0
45.43,476.9778,1.0,1.0,1.0
45.44,544.9778,1.0,1.0,1.0
45.45,655.0111,1.0,1.0,1.0
45.46,705.5167,1.0,1.0,1.0
45.47,743.4611,1.0,1.0,1.0
45.48,877.0,1.0,1.0,1.0
45.49,935.9778,1.0,1.0,1.0
45.5,1010.04,1.0,1.0,1.0
45.51,1117.44,1.0,1.0,1.0
45.52,1248.0,1.0,1.0,1.0
45.53,1220.51,1.0,1.0,1.0
45.54,1293.46,1.0,1.0,1.0
45.55,1501.53,1.0,1.0,1.0
45.56,1549.96,1.0,1.0,1.0
45.57,1649.47,1.0,1.0,1.0
45.58,1745.52,1.0,1.0,1.0
45.59,2003.46,1.0,1.0,1.0
45.6,2013.51,1.0,1.0,1.0
45.61,2158.93,1.0,1.0,1.0
45.62,2333.01,1.0,1.0,1.0
45.63,2386.47,1.0,1.0,1.0
45.64,2532.08,1.0,1.0,1.0
45.65,2584.91,1.0,1.0,1.0
45.66,2751.53,1.0,1.0,1.0
45.67,2893.49,1.0,1.0,1.0
45.68,2963.99,1.0,1.0,1.0
45.69,3107.51,1.0,1.0,1.0
45.7,3283.96,1.0,1.0,1.0
45.71,3281.0,1.0,1.0,1.0
45.72,3480.46,1.0,1.0,1.0
45.73,3615.94,1.0,1.0,1.0
45.74,3803.54,1.0,1.0,1.0
45.75,3813.01,1.0,1.0,1.0
45.76,4006.41,1.0,1.0,1.0
45.77,4045.09,1.0,1.0,1.0
45.78,4145.41,1.0,1.0,1.0
45.79,4314.54,1.0,1.0,1.0
45.8,4365.98,1.0,1.0,1.0
45.81,4537.48,1.0,1.0,1.0
45.82,4598.96,1.0,1.0,1.0
45.83,4607.54,1.0,1.0,1.0
45.84,4676.98,1.0,1.0,1.0
45.85,4905.47,1.0,1.0,1.0
45.86,4921.99,1.0,1.0,1.0
45.87,4946.48,1.0,1.0,1.0
45.88,5122.89,1.0,1.0,1.0
45.89,5134.76,1.0,1.0,1.0
45.9,5118.36,1.0,1.0,1.0
45.91,5211.53,1.0,1.0,1.0
45.92,5198.36,1.0,1.0,1.0
45.93,5199.63,1.0,1.0,1.0
45.94,5348.0,1.0,1.0,1.0
45.95,5379.79,1.0,1.0,1.0
45.96,5395.189,1.0,1.0,1.0
45.97,5388.55,1.0,1.0,1.0
45.98,5238.561,1.0,1.0,1.0
45.99,5313.88,1.0,1.0,1.0
46.0,5395.49,1.0,1.0,1.0
46.01,5301.92,1.0,1.0,1.0
46.02,5295.57,1.0,1.0,1.0
46.03,5196.03,1.0,1.0,1.0
46.04,5104.93,1.0,1.0,1.0
46.05,4941.49,1.0,1.0,1.0
46.06,5141.09,1.0,1.0,1.0
46.07,5048.02,1.0,1.0,1.0
46.08,4974.93,1.0,1.0,1.0
46.09,4954.59,1.0,1.0,1.0
46.1,4884.51,1.0,1.0,1.0
46.11,4572.01,1.0,1.0,1.0
46.12,4671.09,1.0,1.0,1.0
46.13,4409.94,1.0,1.0,1.0
46.14,4369.42,1.0,1.0,1.0
46.15,4417.61,1.0,1.0,1.0
46.16,4284.38,1.0,1.0,1.0
46.17,4175.06,1.0,1.0,1.0
46.18,3986.03,1.0,1.0,1.0
46.19,3877.96,1.0,1.0,1.0
46.2,3801.62,1.0,1.0,1.0
46.21,3622.96,1.0,1.0,1.0
46.22,3446.54,1.0,1.0,1.0
46.23,3412.96,1.0,1.0,1.0
46.24,3218.59,1.0,1.0,1.0
46.25,3135.48,1.0,1.0,1.0
46.26,2989.52,1.0,1.0,1.0
46.27,2784.58,1.0,1.0,1.0
46.28,2761.0,1.0,1.0,1.0
46.29,2634.93,1.0,1.0,1.0
46.3,2476.48,1.0,1.0,1.0
46.31,2311.62,1.0,1.0,1.0
46.32,2244.42,1.0,1.0,1.0
46.33,2128.62,1.0,1.0,1.0
46.34,2019.47,1.0,1.0,1.0
46.35,1859.99,1.0,1.0,1.0
46.36,1794.06,1.0,1.0,1.0
46.37,1587.44,1.0,1.0,1.0
46.38,1517.56,1.0,1.0,1.0
46.39,1473.46,1.0,1.0,1.0
46.4,1373.11,1.0,1.0,1.0
46.41,1231.9,1.0,1.0,1.0
46.42,1101.49,1.0,1.0,1.0
46.43,1060.06,1.0,1.0,1.0
46.44,944.5167,1.0,1.0,1.0
46.45,852.0667,1.0,1.0,1.0
46.46,797.4722,1.0,1.0,1.0
46.47,727.5278,1.0,1.0,1.0
46.48,636.4944,1.0,1.0,1.0
46.49,571.4833,1.0,1.0,1.0
46.5,547.0333,1.0,1.0,1.0
46.51,478.0111,1.0,1.0,1.0
46.52,454.4722,1.0,1.0,1.0
46.53,340.5167,1.0,1.0,1.0
46.54,374.0111,1.0,1.0,1.0
46.55,311.0333,1.0,1.0,1.0
46.56,242.4944,1.0,1.0,1.0
46.57,231.4833,1.0,1.0,1.0
46.58,230.9889,1.0,1.0,1.0
46.59,206.0111,1.0,1.0,1.0
46.6,193.9778,1.0,1.0,1.0
46.61,190.5167,1.0,1.0,1.0
46.62,157.5167,1.0,1.0,1.0
46.63,189.9889,1.0,1.0,1.0
46.64,165.0111,1.0,1.0,1.0
46.65,165.4944,1.0,1.0,1.0
46.66,155.5167,1.0,1.0,1.0
46.67,178.9889,1.0,1.0,1.0
46.68,210.0,1.0,1.0,1.0
46.69,196.4833,1.0,1.0,1.0
46.7,243.4944,1.0,1.0,1.0
46.71,198.9889,1.0,1.0,1.0
46.72,254.0333,1.0,1.0,1.0
46.73,258.4944,1.0,1.0,1.0
46.74,264.9889,1.0,1.0,1.0
46.75,291.4833,1.0,1.0,1.0
46.76,268.4944,1.0,1.0,1.0
46.77,310.5278,1.0,1.0,1.0
46.78,322.5056,1.0,1.0,1.0
46.79,369.0111,1.0,1.0,1.0
46.8,354.4833,1.0,1.0,1.0
46.81,401.4833,1.0,1.0,1.0
46.82,431.9889,1.0,1.0,1.0
46.83,405.0222,1.0,1.0,1.0
46.84,456.5056,1.0,1.0,1.0
46.85,454.9445,1.0,1.0,1.0
46.86,464.5167,1.0,1.0,1.0
46.87,447.0,1.0,1.0,1.0
46.88,485.5056,1.0,1.0,1.0
46.89,459.0222,1.0,1.0,1.0
46.9,501.5056,1.0,1.0,1.0
46.91,509.4833,1.0,1.0,1.0
46.92,518.4833,1.0,1.0,1.0
46.93,524.5056,1.0,1.0,1.0
46.94,538.5056,1.0,1.0,1.0
46.95,530.0333,1.0,1.0,1.0
46.96,556.9778,1.0,1.0,1.0
46.97,540.9889,1.0,1.0,1.0
46.98,509.4944,1.0,1.0,1.0
46.99,553.0222,1.0,1.0,1.0
47.0,518.9667,1.0,1.0,1.0
47.01,486.0222,1.0,1.0,1.0
47.02,513.0,1.0,1.0,1.0
47.03,503.0222,1.0,1.0,1.0
47.04,485.4833,1.0,1.0,1.0
47.05,449.45,1.0,1.0,1.0
47.06,471.0667,1.0,1.0,1.0
47.07,486.4722,1.0,1.0,1.0
47.08,429.5167,1.0,1.0,1.0
47.09,440.9778,1.0,1.0,1.0
47.1,387.0333,1.0,1.0,1.0
47.11,402.4833,1.0,1.0,1.0
47.12,405.5056,1.0,1.0,1.0
47.13,373.5056,1.0,1.0,1.0
47.14,384.9778,1.0,1.0,1.0
47.15,336.5278,1.0,1.0,1.0
47.16,335.5056,1.0,1.0,1.0
47.17,317.9889,1.0,1.0,1.0
47.18,325.0111,1.0,1.0,1.0
47.19,323.0,1.0,1.0,1.0
47.2,311.5167,1.0,1.0,1.0
47.21,269.9778,1.0,1.0,1.0
47.22,286.4944,1.0,1.0,1.0
47.23,239.4944,1.0,1.0,1.0
47.24,274.5167,1.0,1.0,1.0
47.25,261.0111,1.0,1.0,1.0
47.26,237.9889,1.0,1.0,1.0
47.27,241.0,1.0,1.0,1.0
47.28,267.4944,1.0,1.0,1.0
47.29,266.9889,1.0,1.0,1.0
47.3,264.0111,1.0,1.0,1.0
47.31,242.0,1.0,1.0,1.0
47.32,248.4833,1.0,1.0,1.0
47.33,293.0111,1.0,1.0,1.0
47.34,287.5056,1.0,1.0,1.0
47.35,295.4833,1.0,1.0,1.0
47.36,318.5278,1.0,1.0,1.0
47.37,302.4722,1.0,1.0,1.0
47.38,327.5056,1.0,1.0,1.0
47.39,361.0222,1.0,1.0,1.0
47.4,325.9889,1.0,1.0,1.0
47.41,380.4833,1.0,1.0,1.0
47.42,378.5056,1.0,1.0,1.0
47.43,389.4944,1.0,1.0,1.0
47.44,456.9778,1.0,1.0,1.0
47.45,503.5056,1.0,1.0,1.0
47.46,500.0111,1.0,1.0,1.0
47.47,501.4722,1.0,1.0,1.0
47.48,581.5389,1.0,1.0,1.0
47.49,574.4722,1.0,1.0,1.0
47.5,714.0222,1.0,1.0,1.0
47.51,653.4944,1.0,1.0,1.0
47.52,649.9778,1.0,1.0,1.0
47.53,713.9778,1.0,1.0,1.0
47.54,730.0111,1.0,1.0,1.0
47.55,795.0444,1.0,1.0,1.0
47.56,832.9333,1.0,1.0,1.0
47.57,842.4833,1.0,1.0,1.0
47.58,909.0222,1.0,1.0,1.0
47.59,982.4722,1.0,1.0,1.0
47.6,1006.54,1.0,1.0,1.0
47.61,995.4611,1.0,1.0,1.0
47.62,1026.47,1.0,1.0,1.0
47.63,1146.52,1.0,1.0,1.0
47.64,1157.54,1.0,1.0,1.0
47.65,1214.45,1.0,1.0,1.0
47.66,1253.53,1.0,1.0,1.0
47.67,1359.49,1.0,1.0,1.0
47.68,1420.97,1.0,1.0,1.0
47.69,1468.55,1.0,1.0,1.0
47.7,1603.39,1.0,1.0,1.0
47.71,1652.04,1.0,1.0,1.0
47.72,1712.07,1.0,1.0,1.0
47.73,1899.91,1.0,1.0,1.0
47.74,1928.47,1.0,1.0,1.0
47.75,2143.92,1.0,1.0,1.0
47.76,2301.53,1.0,1.0,1.0
47.77,2569.55,1.0,1.0,1.0
47.78,2512.38,1.0,1.0,1.0
47.79,2987.02,1.0,1.0,1.0
47.8,3095.38,1.0,1.0,1.0
47.81,3444.07,1.0,1.0,1.0
47.82,4053.86,1.0,1.0,1.0
47.83,4421.43,1.0,1.0,1.0
47.84,5276.46,1.0,1.0,1.0
47.85,6296.88,1.0,1.0,1.0
47.86,7341.9,1.0,1.0,1.0
47.87,9061.66,1.0,1.0,1.0
47.88,11950.7,1.0,1.0,1.0
47.89,16948.1,1.0,1.0,1.0
47.9,29188.4,1.0,1.0,1.0
47.91,72401.4,1.0,1.0,1.0
47.92,272337,1.0,1.0,1.0
47.93,836618,1.0,1.0,1.0
47.94,1346224.75,1.0,1.0,1.0
47.95,1204957.0,1.0,1.0,1.0
47.96,1397264.25,1.0,1.0,1.0
47.97,2371513.75,1.0,1.0,1.0
47.98,6146567.0,1.0,1.0,1.0
47.99,8574780.0,1.0,1.0,1.0
48.0,1952360.25,1.0,1.0,1.0
48.01,318585,1.0,1.0,1.0
48.02,132982,1.0,1.0,1.0
48.03,79132.8,1.0,1.0,1.0
48.04,53500,1.0,1.0,1.0
48.05,36405.5,1.0,1.0,1.0
48.06,25121.4,1.0,1.0,1.0
48.07,17539.916,1.0,1.0,1.0
48.08,12736.6,1.0,1.0,1.0
48.09,9959.63,1.0,1.0,1.0
48.1,7743.66,1.0,1.0,1.0
48.11,6088.68,1.0,1.0,1.0
48.12,4797.22,1.0,1.0,1.0
48.13,3865.02,1.0,1.0,1.0
48.14,3322.04,1.0,1.0,1.0
48.15,2734.58,1.0,1.0,1.0
48.16,2362.03,1.0,1.0,1.0
48.17,2124.55,1.0,1.0,1.0
48.18,1849.52,1.0,1.0,1.0
48.19,1672.45,1.0,1.0,1.0
48.2,1422.57,1.0,1.0,1.0
48.21,1335.07,1.0,1.0,1.0
48.22,1121.46,1.0,1.0,1.0
48.23,1058.02,1.0,1.0,1.0
48.24,947.0333,1.0,1.0,1.0
48.25,845.4944,1.0,1.0,1.0
48.26,762.5056,1.0,1.0,1.0
48.27,730.5278,1.0,1.0,1.0
48.28,599.5056,1.0,1.0,1.0
48.29,588.9556,1.0,1.0,1.0
48.3,556.0444,1.0,1.0,1.0
48.31,496.5056,1.0,1.0,1.0
48.32,441.5167,1.0,1.0,1.0
48.33,402.5056,1.0,1.0,1.0
48.34,338.9889,1.0,1.0,1.0
48.35,365.4944,1.0,1.0,1.0
48.36,319.4722,1.0,1.0,1.0
48.37,346.0222,1.0,1.0,1.0
48.38,260.5389,1.0,1.0,1.0
48.39,263.9889,1.0,1.0,1.0
48.4,266.4944,1.0,1.0,1.0
48.41,250.5056,1.0,1.0,1.0
48.42,261.4833,1.0,1.0,1.0
48.43,230.5167,1.0,1.0,1.0
48.44,218.0111,1.0,1.0,1.0
48.45,209.9889,1.0,1.0,1.0
48.46,191.0,1.0,1.0,1.0
48.47,189.4944,1.0,1.0,1.0
48.48,198.0222,1.0,1.0,1.0
48.49,197.9889,1.0,1.0,1.0
48.5,185.4833,1.0,1.0,1.0
48.51,184.5056,1.0,1.0,1.0
48.52,168.0111,1.0,1.0,1.0
48.53,161.0,1.0,1.0,1.0
48.54,149.5056,1.0,1.0,1.0
48.55,159.9889,1.0,1.0,1.0
48.56,170.5167,1.0,1.0,1.0
48.57,140.4833,1.0,1.0,1.0
48.58,140.0,1.0,1.0,1.0
48.59,153.4944,1.0,1.0,1.0
48.6,129.0,1.0,1.0,1.0
48.61,139.5056,1.0,1.0,1.0
48.62,158.0111,1.0,1.0,1.0
48.63,123.4833,1.0,1.0,1.0
48.64,119.5056,1.0,1.0,1.0
48.65,130.5056,1.0,1.0,1.0
48.66,116.0111,1.0,1.0,1.0
48.67,116.9889,1.0,1.0,1.0
48.68,124.5056,1.0,1.0,1.0
48.69,105.0,1.0,1.0,1.0
48.7,136.4833,1.0,1.0,1.0
48.71,112.5056,1.0,1.0,1.0
48.72,111.5167,1.0,1.0,1.0
48.73,101.9778,1.0,1.0,1.0
48.74,105.0,1.0,1.0,1.0
48.75,85.5167,1.0,1.0,1.0
48.76,92.9778,1.0,1.0,1.0
48.77,103.5056,1.0,1.0,1.0
48.78,78.5167,1.0,1.0,1.0
48.79,59.5056,1.0,1.0,1.0
48.8,78.0,1.0,1.0,1.0
48.81,51.9889,1.0,1.0,1.0
48.82,64.0,1.0,1.0,1.0
48.83,69.5056,1.0,1.0,1.0
48.84,67.5056,1.0,1.0,1.0
48.85,49.4944,1.0,1.0,1.0
48.86,61.0,1.0,1.0,1.0
48.87,39.9778,1.0,1.0,1.0
48.88,51.5167,1.0,1.0,1.0
48.89,44.0111,1.0,1.0,1.0
48.9,48.9889,1.0,1.0,1.0
48.91,44.5056,1.0,1.0,1.0
48.92,54.5056,1.0,1.0,1.0
48.93,45.4944,1.0,1.0,1.0
48.94,47.0,1.0,1.0,1.0
48.95,23.0,1.0,1.0,1.0
48.96,34.5056,1.0,1.0,1.0
48.97,30.0,1.0,1.0,1.0
48.98,14.0,1.0,1.0,1.0
48.99,23.0,1.0,1.0,1.0
49.0,44.4944,1.0,1.0,1.0
49.01,24.0,1.0,1.0,1.0
49.02,31.0,1.0,1.0,1.0
49.03,30.4944,1.0,1.0,1.0
49.04,25.0111,1.0,1.0,1.0
49.05,27.0,1.0,1.0,1.0
49.06,19.0,1.0,1.0,1.0
49.07,30.4944,1.0,1.0,1.0
49.08,32.5056,1.0,1.0,1.0
49.09,31.4944,1.0,1.0,1.0
49.1,62.0,1.0,1.0,1.0
49.11,22.5056,1.0,1.0,1.0
49.12,19.0,1.0,1.0,1.0
49.13,22.4944,1.0,1.0,1.0
49.14,18.5056,1.0,1.0,1.0
49.15,24.4944,1.0,1.0,1.0
49.16,23.0,1.0,1.0,1.0
49.17,22.5056,1.0,1.0,1.0
49.18,16.0,1.0,1.0,1.0
49.19,34.0,1.0,1.0,1.0
49.2,22.0,1.0,1.0,1.0
49.21,14.0,1.0,1.0,1.0
49.22,29.4944,1.0,1.0,1.0
49.23,19.5056,1.0,1.0,1.0
49.24,11.0,1.0,1.0,1.0
49.25,27.0,1.0,1.0,1.0
49.26,25.4944,1.0,1.0,1.0
49.27,30.5056,1.0,1.0,1.0
49.28,20.4944,1.0,1.0,1.0
49.29,23.5056,1.0,1.0,1.0
49.3,31.4944,1.0,1.0,1.0
49.31,21.5056,1.0,1.0,1.0
49.32,33.4944,1.0,1.0,1.0
49.33,22.5056,1.0,1.0,1.0
49.34,16.0,1.0,1.0,1.0
49.35,41.4944,1.0,1.0,1.0
49.36,29.5056,1.0,1.0,1.0
49.37,19.4944,1.0,1.0,1.0
49.38,31.0,1.0,1.0,1.0
49.39,25.5056,1.0,1.0,1.0
49.4,20.0,1.0,1.0,1.0
49.41,34.0,1.0,1.0,1.0
49.42,31.0,1.0,1.0,1.0
49.43,40.0,1.0,1.0,1.0
49.44,11.0,1.0,1.0,1.0
49.45,17.4944,1.0,1.0,1.0
49.46,9.0,1.0,1.0,1.0
49.47,12.5056,1.0,1.0,1.0
49.48,22.0,1.0,1.0,1.0
49.49,9.0,1.0,1.0,1.0
49.5,18.4944,1.0,1.0,1.0
49.51,29.0,1.0,1.0,1.0
49.52,14.5056,1.0,1.0,1.0
49.53,21.0,1.0,1.0,1.0
49.54,15.0,1.0,1.0,1.0
49.55,19.0,1.0,1.0,1.0
49.56,12.0,1.0,1.0,1.0
49.57,15.0,1.0,1.0,1.0
49.58,20.0,1.0,1.0,1.0
49.59,12.4944,1.0,1.0,1.0
49.6,19.0,1.0,1.0,1.0
49.61,15.5056,1.0,1.0,1.0
49.62,16.0,1.0,1.0,1.0
49.63,15.0,1.0,1.0,1.0
49.64,25.0,1.0,1.0,1.0
49.65,10.0,1.0,1.0,1.0
49.66,14.0,1.0,1.0,1.0
49.67,3.0,1.0,1.0,1.0
49.68,11.0,1.0,1.0,1.0
49.69,12.0,1.0,1.0,1.0
49.7,8.9889,1.0,1.0,1.0
49.71,10.0111,1.0,1.0,1.0
49.72,15.0,1.0,1.0,1.0
49.73,8.4944,1.0,1.0,1.0
49.74,13.5056,1.0,1.0,1.0
49.75,9.0,1.0,1.0,1.0
49.76,3.4944,1.0,1.0,1.0
49.77,6.5056,1.0,1.0,1.0
49.78,6.0,1.0,1.0,1.0
49.79,19.0,1.0,1.0,1.0
49.8,7.0,1.0,1.0,1.0
49.81,7.0,1.0,1.0,1.0
49.82,14.0,1.0,1.0,1.0
49.83,12.0,1.0,1.0,1.0
49.84,7.0,1.0,1.0,1.0
49.85,9.0,1.0,1.0,1.0
49.86,12.0,1.0,1.0,1.0
49.87,3.0,1.0,1.0,1.0
49.88,24.0,1.0,1.0,1.0
49.89,16.0,1.0,1.0,1.0
49.9,13.0,1.0,1.0,1.0
49.91,19.0,1.0,1.0,1.0
49.92,2.0,1.0,1.0,1.0
49.93,4.0,1.0,1.0,1.0
49.94,12.0,1.0,1.0,1.0
49.95,13.4944,1.0,1.0,1.0
49.96,17.5056,1.0,1.0,1.0
49.97,17.0,1.0,1.0,1.0
49.98,14.4944,1.0,1.0,1.0
49.99,15.5056,1.0,1.0,1.0
50.0,4.0,1.0,1.0,1.0
50.01,17.0,1.0,1.0,1.0
50.02,17.0,1.0,1.0,1.0
50.03,7.0,1.0,1.0,1.0
50.04,13.0,1.0,1.0,1.0
50.05,10.0,1.0,1.0,1.0
50.06,14.0,1.0,1.0,1.0
50.07,18.0,1.0,1.0,1.0
50.08,16.0,1.0,1.0,1.0
50.09,20.0,1.0,1.0,1.0
50.1,7.4944,1.0,1.0,1.0
50.11,12.0,1.0,1.0,1.0
50.12,3.5056,1.0,1.0,1.0
50.13,14.0,1.0,1.0,1.0
50.14,12.0,1.0,1.0,1.0
50.15,2.0,1.0,1.0,1.0
50.16,2.4944,1.0,1.0,1.0
50.17,10.0,1.0,1.0,1.0
50.18,12.5056,1.0,1.0,1.0
50.19,4.0,1.0,1.0,1.0
50.2,19.0,1.0,1.0,1.0
50.21,8.0,1.0,1.0,1.0
50.22,8.0,1.0,1.0,1.0
50.23,14.0,1.0,1.0,1.0
50.24,5.0,1.0,1.0,1.0
50.25,6.0,1.0,1.0,1.0
50.26,9.0,1.0,1.0,1.0
50.27,2.0,1.0,1.0,1.0
50.28,9.0,1.0,1.0,1.0
50.29,4.0,1.0,1.0,1.0
50.3,2.4944,1.0,1.0,1.0
50.31,9.0,1.0,1.0,1.0
50.32,9.0,1.0,1.0,1.0
50.33,4.5056,1.0,1.0,1.0
50.34,5.0,1.0,1.0,1.0
50.35,12.0,1.0,1.0,1.0
50.36,8.0,1.0,1.0,1.0
50.37,9.0,1.0,1.0,1.0
50.38,2.0,1.0,1.0,1.0
50.39,3.0,1.0,1.0,1.0
50.4,2.0,1.0,1.0,1.0
50.41,10.0,1.0,1.0,1.0
50.42,5.0,1.0,1.0,1.0
50.43,4.0,1.0,1.0,1.0
50.44,12.0,1.0,1.0,1.0
50.45,0.0,1.0,1.0,1.0
50.46,3.0,1.0,1.0,1.0
50.47,7.0,1.0,1.0,1.0
50.48,4.0,1.0,1.0,1.0
50.49,8.0,1.0,1.0,1.0
50.5,6.0,1.0,1.0,1.0
50.51,4.0,1.0,1.0,1.0
50.52,12.0,1.0,1.0,1.0
50.53,14.0,1.0,1.0,1.0
50.54,3.0,1.0,1.0,1.0
50.55,5.0,1.0,1.0,1.0
50.56,9.0,1.0,1.0,1.0
50.57,5.0,1.0,1.0,1.0
50.58,7.0,1.0,1.0,1.0
50.59,10.0,1.0,1.0,1.0
50.6,12.0,1.0,1.0,1.0
50.61,13.0,1.0,1.0,1.0
50.62,4.0,1.0,1.0,1.0
50.63,12.0,1.0,1.0,1.0
50.64,3.0,1.0,1.0,1.0
50.65,5.0,1.0,1.0,1.0
50.66,10.0,1.0,1.0,1.0
50.67,5.0,1.0,1.0,1.0
50.68,4.0,1.0,1.0,1.0
50.69,4.0,1.0,1.0,1.0
50.7,4.0,1.0,1.0,1.0
50.71,7.0,1.0,1.0,1.0
50.72,15.0,1.0,1.0,1.0
50.73,0.0,1.0,1.0,1.0
50.74,2.0,1.0,1.0,1.0
50.75,2.0,1.0,1.0,1.0
50.76,7.0,1.0,1.0,1.0
50.77,15.0,1.0,1.0,1.0
50.78,18.0,1.0,1.0,1.0
50.79,7.0,1.0,1.0,1.0
50.8,5.0,1.0,1.0,1.0
50.81,16.0,1.0,1.0,1.0
50.82,13.9889,1.0,1.0,1.0
50.83,13.5056,1.0,1.0,1.0
50.84,7.5056,1.0,1.0,1.0
50.85,11.0,1.0,1.0,1.0
50.86,3.0,1.0,1.0,1.0
50.87,14.0,1.0,1.0,1.0
50.88,10.0,1.0,1.0,1.0
50.89,10.4944,1.0,1.0,1.0
50.9,12.5056,1.0,1.0,1.0
50.91,4.0,1.0,1.0,1.0
50.92,4.0,1.0,1.0,1.0
50.93,12.0,1.0,1.0,1.0
50.94,20.0,1.0,1.0,1.0
50.95,8.0,1.0,1.0,1.0
50.96,3.0,1.0,1.0,1.0
50.97,4.0,1.0,1.0,1.0
50.98,2.0,1.0,1.0,1.0
50.99,7.4944,1.0,1.0,1.0
51.0,2.5056,1.0,1.0,1.0
51.01,8.0,1.0,1.0,1.0
51.02,4.4944,1.0,1.0,1.0
51.03,5.5056,1.0,1.0,1.0
51.04,10.0,1.0,1.0,1.0
51.05,0.0,1.0,1.0,1.0
51.06,3.0,1.0,1.0,1.0
51.07,8.4944,1.0,1.0,1.0
51.08,3.5056,1.0,1.0,1.0
51.09,28.0,1.0,1.0,1.0
51.1,3.4944,1.0,1.0,1.0
51.11,8.5056,1.0,1.0,1.0
51.12,5.0,1.0,1.0,1.0
51.13,9.0,1.0,1.0,1.0
51.14,2.0,1.0,1.0,1.0
51.15,14.9889,1.0,1.0,1.0
51.16,8.0,1.0,1.0,1.0
51.17,8.0111,1.0,1.0,1.0
51.18,11.0,1.0,1.0,1.0
51.19,11.0,1.0,1.0,1.0
51.2,11.0,1.0,1.0,1.0
51.21,9.4944,1.0,1.0,1.0
51.22,11.5056,1.0,1.0,1.0
51.23,11.0,1.0,1.0,1.0
51.24,8.0,1.0,1.0,1.0
51.25,7.0,1.0,1.0,1.0
51.26,7.0,1.0,1.0,1.0
51.27,9.0,1.0,1.0,1.0
51.28,3.0,1.0,1.0,1.0
51.29,5.0,1.0,1.0,1.0
51.3,11.0,1.0,1.0,1.0
51.31,11.0,1.0,1.0,1.0
51.32,4.4944,1.0,1.0,1.0
51.33,14.5056,1.0,1.0,1.0
51.34,11.0,1.0,1.0,1.0
51.35,8.0,1.0,1.0,1.0
51.36,7.9889,1.0,1.0,1.0
51.37,8.5056,1.0,1.0,1.0
51.38,0.5056,1.0,1.0,1.0
51.39,2.0,1.0,1.0,1.0
51.4,10.4944,1.0,1.0,1.0
51.41,4.5056,1.0,1.0,1.0
51.42,11.0,1.0,1.0,1.0
51.43,9.0,1.0,1.0,1.0
51.44,7.0,1.0,1.0,1.0
51.45,7.0,1.0,1.0,1.0
51.46,6.0,1.0,1.0,1.0
51.47,3.4944,1.0,1.0,1.0
51.48,8.5056,1.0,1.0,1.0
51.49,4.0,1.0,1.0,1.0
51.5,8.0,1.0,1.0,1.0
51.51,0.0,1.0,1.0,1.0
51.52,6.0,1.0,1.0,1.0
51.53,8.0,1.0,1.0,1.0
51.54,8.0,1.0,1.0,1.0
51.55,0.0,1.0,1.0,1.0
51.56,5.0,1.0,1.0,1.0
51.57,12.0,1.0,1.0,1.0
51.58,2.0,1.0,1.0,1.0
51.59,1.4944,1.0,1.0,1.0
51.6,7.5056,1.0,1.0,1.0
51.61,7.0,1.0,1.0,1.0
51.62,2.0,1.0,1.0,1.0
51.63,7.0,1.0,1.0,1.0
51.64,6.0,1.0,1.0,1.0
51.65,0.0,1.0,1.0,1.0
51.66,3.0,1.0,1.0,1.0
51.67,5.0,1.0,1.0,1.0
51.68,4.0,1.0,1.0,1.0
51.69,3.0,1.0,1.0,1.0
51.7,0.0,1.0,1.0,1.0
51.71,7.0,1.0,1.0,1.0
51.72,7.0,1.0,1.0,1.0
51.73,5.0,1.0,1.0,1.0
51.74,2.4944,1.0,1.0,1.0
51.75,8.5056,1.0,1.0,1.0
51.76,8.0,1.0,1.0,1.0
51.77,8.4944,1.0,1.0,1.0
51.78,11.5056,1.0,1.0,1.0
51.79,13.0,1.0,1.0,1.0
51.8,6.0,1.0,1.0,1.0
51.81,12.0,1.0,1.0,1.0
51.82,8.0,1.0,1.0,1.0
51.83,7.0,1.0,1.0,1.0
51.84,9.0,1.0,1.0,1.0
51.85,6.0,1.0,1.0,1.0
51.86,0.0,1.0,1.0,1.0
51.87,6.0,1.0,1.0,1.0
51.88,5.0,1.0,1.0,1.0
51.89,2.0,1.0,1.0,1.0
51.9,3.0,1.0,1.0,1.0
51.91,4.4944,1.0,1.0,1.0
51.92,3.5056,1.0,1.0,1.0
51.93,2.0,1.0,1.0,1.0
51.94,6.0,1.0,1.0,1.0
51.95,7.0,1.0,1.0,1.0
51.96,4.0,1.0,1.0,1.0
51.97,5.4944,1.0,1.0,1.0
51.98,11.4944,1.0,1.0,1.0
51.99,7.0111,1.0,1.0,1.0
52.0,2.0,1.0,1.0,1.0