File: XRD:XRR/SCO/22167_SL(CO)L/22167_SL(CO)L_001_XRD.csv
#twotheta, yobs, ycal, bkg, diff
17.0,39.0,1.0,1.0,1.0
17.01,28.0,1.0,1.0,1.0
17.02,29.496,1.0,1.0,1.0
17.03,19.0,1.0,1.0,1.0
17.04,49.008,1.0,1.0,1.0
17.05,21.992,1.0,1.0,1.0
17.06,29.0,1.0,1.0,1.0
17.07,33.0,1.0,1.0,1.0
17.08,35.0,1.0,1.0,1.0
17.09,32.0,1.0,1.0,1.0
17.1,28.504,1.0,1.0,1.0
17.11,29.496,1.0,1.0,1.0
17.12,44.0,1.0,1.0,1.0
17.13,35.0,1.0,1.0,1.0
17.14,27.008,1.0,1.0,1.0
17.15,36.992,1.0,1.0,1.0
17.16,30.0,1.0,1.0,1.0
17.17,29.008,1.0,1.0,1.0
17.18,43.496,1.0,1.0,1.0
17.19,26.0,1.0,1.0,1.0
17.2,46.496,1.0,1.0,1.0
17.21,46.0,1.0,1.0,1.0
17.22,26.504,1.0,1.0,1.0
17.23,34.0,1.0,1.0,1.0
17.24,33.0,1.0,1.0,1.0
17.25,39.504,1.0,1.0,1.0
17.26,23.992,1.0,1.0,1.0
17.27,44.504,1.0,1.0,1.0
17.28,34.496,1.0,1.0,1.0
17.29,42.504,1.0,1.0,1.0
17.3,42.008,1.0,1.0,1.0
17.31,28.992,1.0,1.0,1.0
17.32,40.496,1.0,1.0,1.0
17.33,18.0,1.0,1.0,1.0
17.34,39.0,1.0,1.0,1.0
17.35,26.0,1.0,1.0,1.0
17.36,22.504,1.0,1.0,1.0
17.37,26.496,1.0,1.0,1.0
17.38,47.0,1.0,1.0,1.0
17.39,29.0,1.0,1.0,1.0
17.4,23.0,1.0,1.0,1.0
17.41,38.0,1.0,1.0,1.0
17.42,26.0,1.0,1.0,1.0
17.43,35.0,1.0,1.0,1.0
17.44,47.0,1.0,1.0,1.0
17.45,34.0,1.0,1.0,1.0
17.46,25.0,1.0,1.0,1.0
17.47,50.0,1.0,1.0,1.0
17.48,43.504,1.0,1.0,1.0
17.49,40.0,1.0,1.0,1.0
17.5,47.504,1.0,1.0,1.0
17.51,48.0,1.0,1.0,1.0
17.52,26.992,1.0,1.0,1.0
17.53,21.0,1.0,1.0,1.0
17.54,25.0,1.0,1.0,1.0
17.55,36.504,1.0,1.0,1.0
17.56,41.496,1.0,1.0,1.0
17.57,46.0,1.0,1.0,1.0
17.58,36.0,1.0,1.0,1.0
17.59,29.0,1.0,1.0,1.0
17.6,36.504,1.0,1.0,1.0
17.61,47.496,1.0,1.0,1.0
17.62,44.0,1.0,1.0,1.0
17.63,50.0,1.0,1.0,1.0
17.64,33.0,1.0,1.0,1.0
17.65,23.504,1.0,1.0,1.0
17.66,48.496,1.0,1.0,1.0
17.67,49.504,1.0,1.0,1.0
17.68,41.008,1.0,1.0,1.0
17.69,46.4881,1.0,1.0,1.0
17.7,30.008,1.0,1.0,1.0
17.71,51.992,1.0,1.0,1.0
17.72,39.5119,1.0,1.0,1.0
17.73,46.992,1.0,1.0,1.0
17.74,31.0,1.0,1.0,1.0
17.75,36.496,1.0,1.0,1.0
17.76,57.504,1.0,1.0,1.0
17.77,48.496,1.0,1.0,1.0
17.78,37.008,1.0,1.0,1.0
17.79,38.0,1.0,1.0,1.0
17.8,33.992,1.0,1.0,1.0
17.81,44.504,1.0,1.0,1.0
17.82,43.496,1.0,1.0,1.0
17.83,40.5119,1.0,1.0,1.0
17.84,43.992,1.0,1.0,1.0
17.85,38.0,1.0,1.0,1.0
17.86,47.496,1.0,1.0,1.0
17.87,42.504,1.0,1.0,1.0
17.88,37.496,1.0,1.0,1.0
17.89,58.0,1.0,1.0,1.0
17.9,42.0,1.0,1.0,1.0
17.91,30.0,1.0,1.0,1.0
17.92,38.0,1.0,1.0,1.0
17.93,44.0,1.0,1.0,1.0
17.94,54.008,1.0,1.0,1.0
17.95,52.008,1.0,1.0,1.0
17.96,48.9841,1.0,1.0,1.0
17.97,30.0,1.0,1.0,1.0
17.98,39.504,1.0,1.0,1.0
17.99,44.496,1.0,1.0,1.0
18.0,44.0,1.0,1.0,1.0
18.01,39.008,1.0,1.0,1.0
18.02,39.992,1.0,1.0,1.0
18.03,39.504,1.0,1.0,1.0
18.04,47.496,1.0,1.0,1.0
18.05,46.0,1.0,1.0,1.0
18.06,40.0,1.0,1.0,1.0
18.07,48.504,1.0,1.0,1.0
18.08,48.0,1.0,1.0,1.0
18.09,47.0,1.0,1.0,1.0
18.1,55.504,1.0,1.0,1.0
18.11,44.496,1.0,1.0,1.0
18.12,31.0,1.0,1.0,1.0
18.13,43.496,1.0,1.0,1.0
18.14,33.0,1.0,1.0,1.0
18.15,39.008,1.0,1.0,1.0
18.16,46.992,1.0,1.0,1.0
18.17,31.0,1.0,1.0,1.0
18.18,43.504,1.0,1.0,1.0
18.19,42.0,1.0,1.0,1.0
18.2,32.496,1.0,1.0,1.0
18.21,47.504,1.0,1.0,1.0
18.22,32.496,1.0,1.0,1.0
18.23,34.5119,1.0,1.0,1.0
18.24,30.4881,1.0,1.0,1.0
18.25,39.008,1.0,1.0,1.0
18.26,46.992,1.0,1.0,1.0
18.27,39.0,1.0,1.0,1.0
18.28,46.0,1.0,1.0,1.0
18.29,41.0,1.0,1.0,1.0
18.3,34.0,1.0,1.0,1.0
18.31,16.504,1.0,1.0,1.0
18.32,29.0,1.0,1.0,1.0
18.33,29.0,1.0,1.0,1.0
18.34,35.496,1.0,1.0,1.0
18.35,43.0,1.0,1.0,1.0
18.36,31.0,1.0,1.0,1.0
18.37,32.0,1.0,1.0,1.0
18.38,45.504,1.0,1.0,1.0
18.39,39.496,1.0,1.0,1.0
18.4,35.008,1.0,1.0,1.0
18.41,45.992,1.0,1.0,1.0
18.42,43.504,1.0,1.0,1.0
18.43,45.496,1.0,1.0,1.0
18.44,42.0,1.0,1.0,1.0
18.45,40.0159,1.0,1.0,1.0
18.46,40.9841,1.0,1.0,1.0
18.47,39.0,1.0,1.0,1.0
18.48,32.504,1.0,1.0,1.0
18.49,34.504,1.0,1.0,1.0
18.5,15.992,1.0,1.0,1.0
18.51,36.0,1.0,1.0,1.0
18.52,37.5119,1.0,1.0,1.0
18.53,63.992,1.0,1.0,1.0
18.54,28.496,1.0,1.0,1.0
18.55,26.0,1.0,1.0,1.0
18.56,23.0,1.0,1.0,1.0
18.57,29.0,1.0,1.0,1.0
18.58,37.504,1.0,1.0,1.0
18.59,45.0,1.0,1.0,1.0
18.6,39.496,1.0,1.0,1.0
18.61,41.0,1.0,1.0,1.0
18.62,44.0,1.0,1.0,1.0
18.63,32.0,1.0,1.0,1.0
18.64,37.504,1.0,1.0,1.0
18.65,28.496,1.0,1.0,1.0
18.66,34.504,1.0,1.0,1.0
18.67,45.496,1.0,1.0,1.0
18.68,31.504,1.0,1.0,1.0
18.69,32.0,1.0,1.0,1.0
18.7,30.496,1.0,1.0,1.0
18.71,43.0,1.0,1.0,1.0
18.72,37.0,1.0,1.0,1.0
18.73,44.0,1.0,1.0,1.0
18.74,20.0,1.0,1.0,1.0
18.75,46.504,1.0,1.0,1.0
18.76,34.008,1.0,1.0,1.0
18.77,34.992,1.0,1.0,1.0
18.78,45.0,1.0,1.0,1.0
18.79,57.0,1.0,1.0,1.0
18.8,48.0,1.0,1.0,1.0
18.81,30.496,1.0,1.0,1.0
18.82,29.0,1.0,1.0,1.0
18.83,42.0,1.0,1.0,1.0
18.84,41.0,1.0,1.0,1.0
18.85,22.504,1.0,1.0,1.0
18.86,41.0,1.0,1.0,1.0
18.87,23.496,1.0,1.0,1.0
18.88,55.504,1.0,1.0,1.0
18.89,40.504,1.0,1.0,1.0
18.9,25.496,1.0,1.0,1.0
18.91,32.0,1.0,1.0,1.0
18.92,35.496,1.0,1.0,1.0
18.93,37.0,1.0,1.0,1.0
18.94,25.5119,1.0,1.0,1.0
18.95,42.992,1.0,1.0,1.0
18.96,39.0,1.0,1.0,1.0
18.97,39.0,1.0,1.0,1.0
18.98,40.496,1.0,1.0,1.0
18.99,31.504,1.0,1.0,1.0
19.0,45.504,1.0,1.0,1.0
19.01,36.496,1.0,1.0,1.0
19.02,31.504,1.0,1.0,1.0
19.03,49.992,1.0,1.0,1.0
19.04,40.008,1.0,1.0,1.0
19.05,50.0,1.0,1.0,1.0
19.06,57.992,1.0,1.0,1.0
19.07,42.008,1.0,1.0,1.0
19.08,24.0,1.0,1.0,1.0
19.09,15.992,1.0,1.0,1.0
19.1,45.5119,1.0,1.0,1.0
19.11,37.992,1.0,1.0,1.0
19.12,31.496,1.0,1.0,1.0
19.13,34.0,1.0,1.0,1.0
19.14,49.0,1.0,1.0,1.0
19.15,48.0,1.0,1.0,1.0
19.16,38.0,1.0,1.0,1.0
19.17,27.504,1.0,1.0,1.0
19.18,41.496,1.0,1.0,1.0
19.19,52.0,1.0,1.0,1.0
19.2,53.5119,1.0,1.0,1.0
19.21,37.992,1.0,1.0,1.0
19.22,39.496,1.0,1.0,1.0
19.23,51.008,1.0,1.0,1.0
19.24,37.0,1.0,1.0,1.0
19.25,49.0,1.0,1.0,1.0
19.26,32.992,1.0,1.0,1.0
19.27,35.504,1.0,1.0,1.0
19.28,57.008,1.0,1.0,1.0
19.29,35.4881,1.0,1.0,1.0
19.3,47.504,1.0,1.0,1.0
19.31,38.504,1.0,1.0,1.0
19.32,27.0,1.0,1.0,1.0
19.33,31.992,1.0,1.0,1.0
19.34,27.0,1.0,1.0,1.0
19.35,39.0,1.0,1.0,1.0
19.36,34.504,1.0,1.0,1.0
19.37,44.496,1.0,1.0,1.0
19.38,43.504,1.0,1.0,1.0
19.39,47.496,1.0,1.0,1.0
19.4,38.504,1.0,1.0,1.0
19.41,36.504,1.0,1.0,1.0
19.42,42.496,1.0,1.0,1.0
19.43,41.0,1.0,1.0,1.0
19.44,41.504,1.0,1.0,1.0
19.45,43.992,1.0,1.0,1.0
19.46,51.0,1.0,1.0,1.0
19.47,45.0,1.0,1.0,1.0
19.48,48.0,1.0,1.0,1.0
19.49,53.0,1.0,1.0,1.0
19.5,42.504,1.0,1.0,1.0
19.51,54.0,1.0,1.0,1.0
19.52,40.496,1.0,1.0,1.0
19.53,38.0,1.0,1.0,1.0
19.54,44.0,1.0,1.0,1.0
19.55,36.008,1.0,1.0,1.0
19.56,47.0,1.0,1.0,1.0
19.57,54.496,1.0,1.0,1.0
19.58,37.496,1.0,1.0,1.0
19.59,37.008,1.0,1.0,1.0
19.6,64.0,1.0,1.0,1.0
19.61,53.496,1.0,1.0,1.0
19.62,67.504,1.0,1.0,1.0
19.63,42.992,1.0,1.0,1.0
19.64,60.504,1.0,1.0,1.0
19.65,51.496,1.0,1.0,1.0
19.66,59.008,1.0,1.0,1.0
19.67,59.504,1.0,1.0,1.0
19.68,85.496,1.0,1.0,1.0
19.69,82.0,1.0,1.0,1.0
19.7,68.992,1.0,1.0,1.0
19.71,53.008,1.0,1.0,1.0
19.72,48.496,1.0,1.0,1.0
19.73,67.496,1.0,1.0,1.0
19.74,56.504,1.0,1.0,1.0
19.75,64.5119,1.0,1.0,1.0
19.76,91.4881,1.0,1.0,1.0
19.77,88.496,1.0,1.0,1.0
19.78,115.0,1.0,1.0,1.0
19.79,105.5119,1.0,1.0,1.0
19.8,73.0,1.0,1.0,1.0
19.81,92.992,1.0,1.0,1.0
19.82,101.504,1.0,1.0,1.0
19.83,93.992,1.0,1.0,1.0
19.84,108.5119,1.0,1.0,1.0
19.85,101.4881,1.0,1.0,1.0
19.86,110.0159,1.0,1.0,1.0
19.87,116.9841,1.0,1.0,1.0
19.88,102.5119,1.0,1.0,1.0
19.89,104.992,1.0,1.0,1.0
19.9,112.504,1.0,1.0,1.0
19.91,120.992,1.0,1.0,1.0
19.92,95.008,1.0,1.0,1.0
19.93,100.496,1.0,1.0,1.0
19.94,92.496,1.0,1.0,1.0
19.95,97.504,1.0,1.0,1.0
19.96,75.0,1.0,1.0,1.0
19.97,89.0,1.0,1.0,1.0
19.98,69.504,1.0,1.0,1.0
19.99,75.496,1.0,1.0,1.0
20.0,71.504,1.0,1.0,1.0
20.01,60.504,1.0,1.0,1.0
20.02,60.504,1.0,1.0,1.0
20.03,59.496,1.0,1.0,1.0
20.04,45.0,1.0,1.0,1.0
20.05,62.992,1.0,1.0,1.0
20.06,63.496,1.0,1.0,1.0
20.07,52.008,1.0,1.0,1.0
20.08,77.496,1.0,1.0,1.0
20.09,54.504,1.0,1.0,1.0
20.1,53.992,1.0,1.0,1.0
20.11,52.008,1.0,1.0,1.0
20.12,40.992,1.0,1.0,1.0
20.13,44.008,1.0,1.0,1.0
20.14,41.992,1.0,1.0,1.0
20.15,38.504,1.0,1.0,1.0
20.16,53.0,1.0,1.0,1.0
20.17,44.496,1.0,1.0,1.0
20.18,44.0,1.0,1.0,1.0
20.19,32.504,1.0,1.0,1.0
20.2,48.496,1.0,1.0,1.0
20.21,39.5119,1.0,1.0,1.0
20.22,43.4881,1.0,1.0,1.0
20.23,46.504,1.0,1.0,1.0
20.24,35.496,1.0,1.0,1.0
20.25,62.0159,1.0,1.0,1.0
20.26,42.4881,1.0,1.0,1.0
20.27,31.496,1.0,1.0,1.0
20.28,44.504,1.0,1.0,1.0
20.29,50.496,1.0,1.0,1.0
20.3,38.0,1.0,1.0,1.0
20.31,37.0,1.0,1.0,1.0
20.32,28.008,1.0,1.0,1.0
20.33,40.0,1.0,1.0,1.0
20.34,24.992,1.0,1.0,1.0
20.35,41.0,1.0,1.0,1.0
20.36,40.0,1.0,1.0,1.0
20.37,24.504,1.0,1.0,1.0
20.38,37.496,1.0,1.0,1.0
20.39,37.0,1.0,1.0,1.0
20.4,36.0,1.0,1.0,1.0
20.41,27.0,1.0,1.0,1.0
20.42,23.008,1.0,1.0,1.0
20.43,43.496,1.0,1.0,1.0
20.44,32.496,1.0,1.0,1.0
20.45,35.008,1.0,1.0,1.0
20.46,35.496,1.0,1.0,1.0
20.47,34.0,1.0,1.0,1.0
20.48,42.5119,1.0,1.0,1.0
20.49,30.4881,1.0,1.0,1.0
20.5,23.496,1.0,1.0,1.0
20.51,43.0,1.0,1.0,1.0
20.52,59.0,1.0,1.0,1.0
20.53,39.0,1.0,1.0,1.0
20.54,51.504,1.0,1.0,1.0
20.55,37.496,1.0,1.0,1.0
20.56,28.0,1.0,1.0,1.0
20.57,39.504,1.0,1.0,1.0
20.58,39.504,1.0,1.0,1.0
20.59,50.992,1.0,1.0,1.0
20.6,40.008,1.0,1.0,1.0
20.61,32.992,1.0,1.0,1.0
20.62,37.504,1.0,1.0,1.0
20.63,36.504,1.0,1.0,1.0
20.64,48.496,1.0,1.0,1.0
20.65,54.504,1.0,1.0,1.0
20.66,45.496,1.0,1.0,1.0
20.67,56.008,1.0,1.0,1.0
20.68,55.992,1.0,1.0,1.0
20.69,60.0,1.0,1.0,1.0
20.7,58.496,1.0,1.0,1.0
20.71,61.0,1.0,1.0,1.0
20.72,52.504,1.0,1.0,1.0
20.73,55.0,1.0,1.0,1.0
20.74,56.0,1.0,1.0,1.0
20.75,68.0,1.0,1.0,1.0
20.76,65.0,1.0,1.0,1.0
20.77,47.496,1.0,1.0,1.0
20.78,57.008,1.0,1.0,1.0
20.79,43.008,1.0,1.0,1.0
20.8,67.992,1.0,1.0,1.0
20.81,49.992,1.0,1.0,1.0
20.82,48.504,1.0,1.0,1.0
20.83,48.0,1.0,1.0,1.0
20.84,64.504,1.0,1.0,1.0
20.85,47.496,1.0,1.0,1.0
20.86,54.0,1.0,1.0,1.0
20.87,42.008,1.0,1.0,1.0
20.88,45.4881,1.0,1.0,1.0
20.89,29.0,1.0,1.0,1.0
20.9,55.008,1.0,1.0,1.0
20.91,51.992,1.0,1.0,1.0
20.92,25.504,1.0,1.0,1.0
20.93,33.496,1.0,1.0,1.0
20.94,53.0,1.0,1.0,1.0
20.95,39.504,1.0,1.0,1.0
20.96,33.496,1.0,1.0,1.0
20.97,48.0,1.0,1.0,1.0
20.98,47.0,1.0,1.0,1.0
20.99,37.0159,1.0,1.0,1.0
21.0,46.992,1.0,1.0,1.0
21.01,60.496,1.0,1.0,1.0
21.02,55.496,1.0,1.0,1.0
21.03,61.0,1.0,1.0,1.0
21.04,44.0,1.0,1.0,1.0
21.05,56.0,1.0,1.0,1.0
21.06,39.0,1.0,1.0,1.0
21.07,43.504,1.0,1.0,1.0
21.08,49.496,1.0,1.0,1.0
21.09,23.0,1.0,1.0,1.0
21.1,54.008,1.0,1.0,1.0
21.11,52.992,1.0,1.0,1.0
21.12,44.504,1.0,1.0,1.0
21.13,49.504,1.0,1.0,1.0
21.14,46.496,1.0,1.0,1.0
21.15,38.496,1.0,1.0,1.0
21.16,54.504,1.0,1.0,1.0
21.17,57.496,1.0,1.0,1.0
21.18,50.0,1.0,1.0,1.0
21.19,57.504,1.0,1.0,1.0
21.2,52.496,1.0,1.0,1.0
21.21,61.0,1.0,1.0,1.0
21.22,69.008,1.0,1.0,1.0
21.23,74.992,1.0,1.0,1.0
21.24,58.0,1.0,1.0,1.0
21.25,60.008,1.0,1.0,1.0
21.26,76.504,1.0,1.0,1.0
21.27,77.496,1.0,1.0,1.0
21.28,74.496,1.0,1.0,1.0
21.29,64.504,1.0,1.0,1.0
21.3,96.504,1.0,1.0,1.0
21.31,52.4881,1.0,1.0,1.0
21.32,69.008,1.0,1.0,1.0
21.33,73.0,1.0,1.0,1.0
21.34,82.496,1.0,1.0,1.0
21.35,101.008,1.0,1.0,1.0
21.36,120.992,1.0,1.0,1.0
21.37,120.0159,1.0,1.0,1.0
21.38,151.496,1.0,1.0,1.0
21.39,158.496,1.0,1.0,1.0
21.4,177.504,1.0,1.0,1.0
21.41,173.0,1.0,1.0,1.0
21.42,194.504,1.0,1.0,1.0
21.43,191.0159,1.0,1.0,1.0
21.44,234.504,1.0,1.0,1.0
21.45,210.4801,1.0,1.0,1.0
21.46,204.496,1.0,1.0,1.0
21.47,205.0159,1.0,1.0,1.0
21.48,230.4801,1.0,1.0,1.0
21.49,247.008,1.0,1.0,1.0
21.5,242.008,1.0,1.0,1.0
21.51,305.504,1.0,1.0,1.0
21.52,314.992,1.0,1.0,1.0
21.53,349.0319,1.0,1.0,1.0
21.54,367.992,1.0,1.0,1.0
21.55,393.4881,1.0,1.0,1.0
21.56,490.992,1.0,1.0,1.0
21.57,489.0,1.0,1.0,1.0
21.58,535.0079,1.0,1.0,1.0
21.59,594.5199,1.0,1.0,1.0
21.6,657.496,1.0,1.0,1.0
21.61,580.0079,1.0,1.0,1.0
21.62,703.0159,1.0,1.0,1.0
21.63,711.4801,1.0,1.0,1.0
21.64,749.496,1.0,1.0,1.0
21.65,715.0159,1.0,1.0,1.0
21.66,835.504,1.0,1.0,1.0
21.67,833.9921,1.0,1.0,1.0
21.68,918.5199,1.0,1.0,1.0
21.69,927.488,1.0,1.0,1.0
21.7,1054.02,1.0,1.0,1.0
21.71,1091.47,1.0,1.0,1.0
21.72,1214.02,1.0,1.0,1.0
21.73,1265.56,1.0,1.0,1.0
21.74,1463.45,1.0,1.0,1.0
21.75,1621.53,1.0,1.0,1.0
21.76,1770.05,1.0,1.0,1.0
21.77,1905.48,1.0,1.0,1.0
21.78,1945.02,1.0,1.0,1.0
21.79,2169.488,1.0,1.0,1.0
21.8,2196.02,1.0,1.0,1.0
21.81,2334.01,1.0,1.0,1.0
21.82,2486.0,1.0,1.0,1.0
21.83,2475.98,1.0,1.0,1.0
21.84,2487.99,1.0,1.0,1.0
21.85,2467.55,1.0,1.0,1.0
21.86,2354.45,1.0,1.0,1.0
21.87,2345.5,1.0,1.0,1.0
21.88,2245.512,1.0,1.0,1.0
21.89,2085.98,1.0,1.0,1.0
21.9,1854.99,1.0,1.0,1.0
21.91,1742.53,1.0,1.0,1.0
21.92,1593.95,1.0,1.0,1.0
21.93,1377.46,1.0,1.0,1.0
21.94,1210.01,1.0,1.0,1.0
21.95,1144.97,1.0,1.0,1.0
21.96,958.9921,1.0,1.0,1.0
21.97,783.4721,1.0,1.0,1.0
21.98,770.5518,1.0,1.0,1.0
21.99,713.9681,1.0,1.0,1.0
22.0,665.488,1.0,1.0,1.0
22.01,565.0079,1.0,1.0,1.0
22.02,539.4721,1.0,1.0,1.0
22.03,590.504,1.0,1.0,1.0
22.04,522.0079,1.0,1.0,1.0
22.05,561.512,1.0,1.0,1.0
22.06,562.9841,1.0,1.0,1.0
22.07,595.0159,1.0,1.0,1.0
22.08,507.4801,1.0,1.0,1.0
22.09,474.008,1.0,1.0,1.0
22.1,430.9841,1.0,1.0,1.0
22.11,383.5119,1.0,1.0,1.0
22.12,340.9841,1.0,1.0,1.0
22.13,299.0,1.0,1.0,1.0
22.14,294.008,1.0,1.0,1.0
22.15,275.4881,1.0,1.0,1.0
22.16,254.992,1.0,1.0,1.0
22.17,191.0,1.0,1.0,1.0
22.18,159.0,1.0,1.0,1.0
22.19,152.0,1.0,1.0,1.0
22.2,179.5119,1.0,1.0,1.0
22.21,184.0,1.0,1.0,1.0
22.22,169.4881,1.0,1.0,1.0
22.23,194.5199,1.0,1.0,1.0
22.24,221.496,1.0,1.0,1.0
22.25,228.0,1.0,1.0,1.0
22.26,222.992,1.0,1.0,1.0
22.27,208.008,1.0,1.0,1.0
22.28,183.496,1.0,1.0,1.0
22.29,187.992,1.0,1.0,1.0
22.3,183.5119,1.0,1.0,1.0
22.31,209.4881,1.0,1.0,1.0
22.32,195.0,1.0,1.0,1.0
22.33,219.496,1.0,1.0,1.0
22.34,175.5199,1.0,1.0,1.0
22.35,204.4801,1.0,1.0,1.0
22.36,204.0159,1.0,1.0,1.0
22.37,249.5119,1.0,1.0,1.0
22.38,291.992,1.0,1.0,1.0
22.39,295.504,1.0,1.0,1.0
22.4,343.504,1.0,1.0,1.0
22.41,409.0,1.0,1.0,1.0
22.42,441.5279,1.0,1.0,1.0
22.43,491.9761,1.0,1.0,1.0
22.44,526.0239,1.0,1.0,1.0
22.45,580.9921,1.0,1.0,1.0
22.46,570.504,1.0,1.0,1.0
22.47,613.488,1.0,1.0,1.0
22.48,652.488,1.0,1.0,1.0
22.49,753.5199,1.0,1.0,1.0
22.5,740.0079,1.0,1.0,1.0
22.51,800.0239,1.0,1.0,1.0
22.52,908.9921,1.0,1.0,1.0
22.53,997.496,1.0,1.0,1.0
22.54,1064.504,1.0,1.0,1.0
22.55,1214.02,1.0,1.0,1.0
22.56,1340.54,1.0,1.0,1.0
22.57,1577.46,1.0,1.0,1.0
22.58,1673.54,1.0,1.0,1.0
22.59,1931.512,1.0,1.0,1.0
22.6,2050.54,1.0,1.0,1.0
22.61,2237.44,1.0,1.0,1.0
22.62,2403.57,1.0,1.0,1.0
22.63,2699.52,1.0,1.0,1.0
22.64,2724.04,1.0,1.0,1.0
22.65,2927.48,1.0,1.0,1.0
22.66,3201.5,1.0,1.0,1.0
22.67,3423.06,1.0,1.0,1.0
22.68,3545.02,1.0,1.0,1.0
22.69,3884.96,1.0,1.0,1.0
22.7,4121.07,1.0,1.0,1.0
22.71,4327.05,1.0,1.0,1.0
22.72,4904.5,1.0,1.0,1.0
22.73,5257.04,1.0,1.0,1.0
22.74,5775.58,1.0,1.0,1.0
22.75,6520.54,1.0,1.0,1.0
22.76,7037.04,1.0,1.0,1.0
22.77,7515.94,1.0,1.0,1.0
22.78,8181.16,1.0,1.0,1.0
22.79,8744.99,1.0,1.0,1.0
22.8,9403.55,1.0,1.0,1.0
22.81,9734.06,1.0,1.0,1.0
22.82,10273.5,1.0,1.0,1.0
22.83,10631.5,1.0,1.0,1.0
22.84,10654.6,1.0,1.0,1.0
22.85,10516.9,1.0,1.0,1.0
22.86,10538.7,1.0,1.0,1.0
22.87,10170.9,1.0,1.0,1.0
22.88,9590.377,1.0,1.0,1.0
22.89,9064.38,1.0,1.0,1.0
22.9,8298.02,1.0,1.0,1.0
22.91,7487.94,1.0,1.0,1.0
22.92,6789.5,1.0,1.0,1.0
22.93,6084.81,1.0,1.0,1.0
22.94,5156.01,1.0,1.0,1.0
22.95,4675.47,1.0,1.0,1.0
22.96,4062.98,1.0,1.0,1.0
22.97,3543.88,1.0,1.0,1.0
22.98,3174.47,1.0,1.0,1.0
22.99,3022.512,1.0,1.0,1.0
23.0,2881.55,1.0,1.0,1.0
23.01,2908.41,1.0,1.0,1.0
23.02,2945.05,1.0,1.0,1.0
23.03,3037.5,1.0,1.0,1.0
23.04,3204.03,1.0,1.0,1.0
23.05,3487.488,1.0,1.0,1.0
23.06,3610.52,1.0,1.0,1.0
23.07,3731.03,1.0,1.0,1.0
23.08,3714.02,1.0,1.0,1.0
23.09,3685.488,1.0,1.0,1.0
23.1,3658.99,1.0,1.0,1.0
23.11,3546.94,1.0,1.0,1.0
23.12,3436.02,1.0,1.0,1.0
23.13,3392.98,1.0,1.0,1.0
23.14,3234.99,1.0,1.0,1.0
23.15,3158.0,1.0,1.0,1.0
23.16,3245.488,1.0,1.0,1.0
23.17,3168.54,1.0,1.0,1.0
23.18,3391.5,1.0,1.0,1.0
23.19,3430.99,1.0,1.0,1.0
23.2,3682.06,1.0,1.0,1.0
23.21,3908.44,1.0,1.0,1.0
23.22,4223.57,1.0,1.0,1.0
23.23,4535.99,1.0,1.0,1.0
23.24,4886.95,1.0,1.0,1.0
23.25,5239.08,1.0,1.0,1.0
23.26,5829.59,1.0,1.0,1.0
23.27,6298.1,1.0,1.0,1.0
23.28,6797.97,1.0,1.0,1.0
23.29,7489.66,1.0,1.0,1.0
23.3,7869.05,1.0,1.0,1.0
23.31,8770.9,1.0,1.0,1.0
23.32,9797.66,1.0,1.0,1.0
23.33,11078.6,1.0,1.0,1.0
23.34,12905.7,1.0,1.0,1.0
23.35,15418.2,1.0,1.0,1.0
23.36,18534.3,1.0,1.0,1.0
23.37,23251.8,1.0,1.0,1.0
23.38,30781.3,1.0,1.0,1.0
23.39,41773.1,1.0,1.0,1.0
23.4,56957.4,1.0,1.0,1.0
23.41,81798,1.0,1.0,1.0
23.42,131123,1.0,1.0,1.0
23.43,238355,1.0,1.0,1.0
23.44,543317.625,1.0,1.0,1.0
23.45,1765208.875,1.0,1.0,1.0
23.46,7286642.5,1.0,1.0,1.0
23.47,16777524.0,1.0,1.0,1.0
23.48,11329776.0,1.0,1.0,1.0
23.49,2245075.75,1.0,1.0,1.0
23.5,569213.875,1.0,1.0,1.0
23.51,296097,1.0,1.0,1.0
23.52,184666,1.0,1.0,1.0
23.53,118695,1.0,1.0,1.0
23.54,74969,1.0,1.0,1.0
23.55,47554.9,1.0,1.0,1.0
23.56,30834.9,1.0,1.0,1.0
23.57,21431.498,1.0,1.0,1.0
23.58,15916.6,1.0,1.0,1.0
23.59,11604.7,1.0,1.0,1.0
23.6,8898.39,1.0,1.0,1.0
23.61,7022.81,1.0,1.0,1.0
23.62,5746.92,1.0,1.0,1.0
23.63,4861.97,1.0,1.0,1.0
23.64,4050.41,1.0,1.0,1.0
23.65,3544.46,1.0,1.0,1.0
23.66,3016.93,1.0,1.0,1.0
23.67,2554.52,1.0,1.0,1.0
23.68,2332.95,1.0,1.0,1.0
23.69,2080.512,1.0,1.0,1.0
23.7,1845.52,1.0,1.0,1.0
23.71,1692.41,1.0,1.0,1.0
23.72,1523.97,1.0,1.0,1.0
23.73,1294.01,1.0,1.0,1.0
23.74,1258.496,1.0,1.0,1.0
23.75,1193.01,1.0,1.0,1.0
23.76,1044.46,1.0,1.0,1.0
23.77,1020.55,1.0,1.0,1.0
23.78,1000.504,1.0,1.0,1.0
23.79,983.0,1.0,1.0,1.0
23.8,985.4642,1.0,1.0,1.0
23.81,987.5438,1.0,1.0,1.0
23.82,1017.97,1.0,1.0,1.0
23.83,993.5518,1.0,1.0,1.0
23.84,1052.96,1.0,1.0,1.0
23.85,1069.52,1.0,1.0,1.0
23.86,1111.488,1.0,1.0,1.0
23.87,1042.02,1.0,1.0,1.0
23.88,998.4642,1.0,1.0,1.0
23.89,1020.496,1.0,1.0,1.0
23.9,1037.53,1.0,1.0,1.0
23.91,1062.99,1.0,1.0,1.0
23.92,940.496,1.0,1.0,1.0
23.93,946.4562,1.0,1.0,1.0
23.94,833.512,1.0,1.0,1.0
23.95,755.512,1.0,1.0,1.0
23.96,783.9921,1.0,1.0,1.0
23.97,711.4801,1.0,1.0,1.0
23.98,670.0159,1.0,1.0,1.0
23.99,599.9921,1.0,1.0,1.0
24.0,583.488,1.0,1.0,1.0
24.01,568.5358,1.0,1.0,1.0
24.02,521.9602,1.0,1.0,1.0
24.03,497.008,1.0,1.0,1.0
24.04,433.9841,1.0,1.0,1.0
24.05,414.504,1.0,1.0,1.0
24.06,405.496,1.0,1.0,1.0
24.07,423.5119,1.0,1.0,1.0
24.08,348.992,1.0,1.0,1.0
24.09,332.4881,1.0,1.0,1.0
24.1,286.008,1.0,1.0,1.0
24.11,312.504,1.0,1.0,1.0
24.12,316.496,1.0,1.0,1.0
24.13,255.992,1.0,1.0,1.0
24.14,297.504,1.0,1.0,1.0
24.15,276.496,1.0,1.0,1.0
24.16,278.5119,1.0,1.0,1.0
24.17,275.496,1.0,1.0,1.0
24.18,289.0,1.0,1.0,1.0
24.19,249.992,1.0,1.0,1.0
24.2,195.4881,1.0,1.0,1.0
24.21,209.0159,1.0,1.0,1.0
24.22,233.992,1.0,1.0,1.0
24.23,219.0,1.0,1.0,1.0
24.24,168.496,1.0,1.0,1.0
24.25,203.0,1.0,1.0,1.0
24.26,188.5119,1.0,1.0,1.0
24.27,192.992,1.0,1.0,1.0
24.28,158.0,1.0,1.0,1.0
24.29,178.5199,1.0,1.0,1.0
24.3,176.4721,1.0,1.0,1.0
24.31,150.008,1.0,1.0,1.0
24.32,154.008,1.0,1.0,1.0
24.33,153.4801,1.0,1.0,1.0
24.34,147.0159,1.0,1.0,1.0
24.35,147.992,1.0,1.0,1.0
24.36,155.008,1.0,1.0,1.0
24.37,141.992,1.0,1.0,1.0
24.38,161.0,1.0,1.0,1.0
24.39,145.0,1.0,1.0,1.0
24.4,134.504,1.0,1.0,1.0
24.41,137.0,1.0,1.0,1.0
24.42,133.504,1.0,1.0,1.0
24.43,158.4881,1.0,1.0,1.0
24.44,135.504,1.0,1.0,1.0
24.45,161.0,1.0,1.0,1.0
24.46,133.504,1.0,1.0,1.0
24.47,134.504,1.0,1.0,1.0
24.48,160.4881,1.0,1.0,1.0
24.49,123.5119,1.0,1.0,1.0
24.5,133.4881,1.0,1.0,1.0
24.51,119.0,1.0,1.0,1.0
24.52,133.008,1.0,1.0,1.0
24.53,122.504,1.0,1.0,1.0
24.54,157.496,1.0,1.0,1.0
24.55,148.504,1.0,1.0,1.0
24.56,133.504,1.0,1.0,1.0
24.57,129.9841,1.0,1.0,1.0
24.58,121.504,1.0,1.0,1.0
24.59,131.504,1.0,1.0,1.0
24.6,105.0,1.0,1.0,1.0
24.61,126.496,1.0,1.0,1.0
24.62,138.5119,1.0,1.0,1.0
24.63,136.4881,1.0,1.0,1.0
24.64,132.008,1.0,1.0,1.0
24.65,150.496,1.0,1.0,1.0
24.66,124.496,1.0,1.0,1.0
24.67,94.992,1.0,1.0,1.0
24.68,133.5119,1.0,1.0,1.0
24.69,136.5119,1.0,1.0,1.0
24.7,140.4801,1.0,1.0,1.0
24.71,100.008,1.0,1.0,1.0
24.72,118.496,1.0,1.0,1.0
24.73,103.504,1.0,1.0,1.0
24.74,103.0,1.0,1.0,1.0
24.75,112.0,1.0,1.0,1.0
24.76,120.0,1.0,1.0,1.0
24.77,95.008,1.0,1.0,1.0
24.78,75.9841,1.0,1.0,1.0
24.79,74.0,1.0,1.0,1.0
24.8,81.0,1.0,1.0,1.0
24.81,67.008,1.0,1.0,1.0
24.82,51.0,1.0,1.0,1.0
24.83,63.4881,1.0,1.0,1.0
24.84,40.504,1.0,1.0,1.0
24.85,38.504,1.0,1.0,1.0
24.86,40.992,1.0,1.0,1.0
24.87,45.0,1.0,1.0,1.0
24.88,29.008,1.0,1.0,1.0
24.89,45.0,1.0,1.0,1.0
24.9,31.496,1.0,1.0,1.0
24.91,40.496,1.0,1.0,1.0
24.92,42.504,1.0,1.0,1.0
24.93,25.496,1.0,1.0,1.0
24.94,33.0,1.0,1.0,1.0
24.95,43.0,1.0,1.0,1.0
24.96,43.0,1.0,1.0,1.0
24.97,37.0,1.0,1.0,1.0
24.98,33.0,1.0,1.0,1.0
24.99,45.0,1.0,1.0,1.0
25.0,38.0,1.0,1.0,1.0
25.01,45.0,1.0,1.0,1.0
25.02,53.008,1.0,1.0,1.0
25.03,35.496,1.0,1.0,1.0
25.04,41.504,1.0,1.0,1.0
25.05,27.992,1.0,1.0,1.0
25.06,38.504,1.0,1.0,1.0
25.07,39.496,1.0,1.0,1.0
25.08,34.008,1.0,1.0,1.0
25.09,51.992,1.0,1.0,1.0
25.1,36.0,1.0,1.0,1.0
25.11,45.008,1.0,1.0,1.0
25.12,45.496,1.0,1.0,1.0
25.13,46.0,1.0,1.0,1.0
25.14,29.0,1.0,1.0,1.0
25.15,45.504,1.0,1.0,1.0
25.16,48.992,1.0,1.0,1.0
25.17,44.0,1.0,1.0,1.0
25.18,41.0,1.0,1.0,1.0
25.19,23.504,1.0,1.0,1.0
25.2,50.504,1.0,1.0,1.0
25.21,31.496,1.0,1.0,1.0
25.22,34.008,1.0,1.0,1.0
25.23,39.496,1.0,1.0,1.0
25.24,39.0,1.0,1.0,1.0
25.25,29.992,1.0,1.0,1.0
25.26,38.0,1.0,1.0,1.0
25.27,44.504,1.0,1.0,1.0
25.28,43.496,1.0,1.0,1.0
25.29,27.0,1.0,1.0,1.0
25.3,48.0,1.0,1.0,1.0
25.31,44.0,1.0,1.0,1.0
25.32,33.0,1.0,1.0,1.0
25.33,15.0,1.0,1.0,1.0
25.34,33.0,1.0,1.0,1.0
25.35,41.0,1.0,1.0,1.0
25.36,24.008,1.0,1.0,1.0
25.37,37.0,1.0,1.0,1.0
25.38,28.992,1.0,1.0,1.0
25.39,22.504,1.0,1.0,1.0
25.4,39.0,1.0,1.0,1.0
25.41,42.0,1.0,1.0,1.0
25.42,27.496,1.0,1.0,1.0
25.43,29.0,1.0,1.0,1.0
25.44,40.504,1.0,1.0,1.0
25.45,19.0,1.0,1.0,1.0
25.46,23.496,1.0,1.0,1.0
25.47,30.0,1.0,1.0,1.0
25.48,40.0,1.0,1.0,1.0
25.49,22.0,1.0,1.0,1.0
25.5,32.0,1.0,1.0,1.0
25.51,26.504,1.0,1.0,1.0
25.52,25.496,1.0,1.0,1.0
25.53,30.0,1.0,1.0,1.0
25.54,12.0,1.0,1.0,1.0
25.55,36.504,1.0,1.0,1.0
25.56,30.496,1.0,1.0,1.0
25.57,29.0,1.0,1.0,1.0
25.58,22.0,1.0,1.0,1.0
25.59,20.504,1.0,1.0,1.0
25.6,23.496,1.0,1.0,1.0
25.61,25.504,1.0,1.0,1.0
25.62,14.0,1.0,1.0,1.0
25.63,26.0,1.0,1.0,1.0
25.64,23.496,1.0,1.0,1.0
25.65,21.0,1.0,1.0,1.0
25.66,16.0,1.0,1.0,1.0
25.67,12.0,1.0,1.0,1.0
25.68,12.0,1.0,1.0,1.0
25.69,24.504,1.0,1.0,1.0
25.7,12.496,1.0,1.0,1.0
25.71,16.504,1.0,1.0,1.0
25.72,18.504,1.0,1.0,1.0
25.73,13.992,1.0,1.0,1.0
25.74,21.008,1.0,1.0,1.0
25.75,14.992,1.0,1.0,1.0
25.76,30.0,1.0,1.0,1.0
25.77,22.0,1.0,1.0,1.0
25.78,36.0,1.0,1.0,1.0
25.79,25.0,1.0,1.0,1.0
25.8,23.504,1.0,1.0,1.0
25.81,21.496,1.0,1.0,1.0
25.82,29.0,1.0,1.0,1.0
25.83,35.504,1.0,1.0,1.0
25.84,31.496,1.0,1.0,1.0
25.85,30.504,1.0,1.0,1.0
25.86,43.504,1.0,1.0,1.0
25.87,36.992,1.0,1.0,1.0
25.88,35.0,1.0,1.0,1.0
25.89,20.0,1.0,1.0,1.0
25.9,18.0,1.0,1.0,1.0
25.91,45.008,1.0,1.0,1.0
25.92,34.496,1.0,1.0,1.0
25.93,49.496,1.0,1.0,1.0
25.94,25.0,1.0,1.0,1.0
25.95,43.504,1.0,1.0,1.0
25.96,43.496,1.0,1.0,1.0
25.97,24.008,1.0,1.0,1.0
25.98,44.496,1.0,1.0,1.0
25.99,29.0,1.0,1.0,1.0
26.0,17.496,1.0,1.0,1.0
26.01,16.0,1.0,1.0,1.0
26.02,28.0,1.0,1.0,1.0
26.03,23.0,1.0,1.0,1.0
26.04,26.504,1.0,1.0,1.0
26.05,17.504,1.0,1.0,1.0
26.06,45.992,1.0,1.0,1.0
26.07,36.504,1.0,1.0,1.0
26.08,13.0,1.0,1.0,1.0
26.09,25.0,1.0,1.0,1.0
26.1,19.496,1.0,1.0,1.0
26.11,30.0,1.0,1.0,1.0
26.12,17.0,1.0,1.0,1.0
26.13,24.0,1.0,1.0,1.0
26.14,28.0,1.0,1.0,1.0
26.15,9.504,1.0,1.0,1.0
26.16,13.496,1.0,1.0,1.0
26.17,18.0,1.0,1.0,1.0
26.18,36.0,1.0,1.0,1.0
26.19,23.008,1.0,1.0,1.0
26.2,25.992,1.0,1.0,1.0
26.21,11.0,1.0,1.0,1.0
26.22,25.0,1.0,1.0,1.0
26.23,29.008,1.0,1.0,1.0
26.24,30.992,1.0,1.0,1.0
26.25,23.0,1.0,1.0,1.0
26.26,12.504,1.0,1.0,1.0
26.27,20.496,1.0,1.0,1.0
26.28,33.504,1.0,1.0,1.0
26.29,17.496,1.0,1.0,1.0
26.3,20.008,1.0,1.0,1.0
26.31,17.992,1.0,1.0,1.0
26.32,13.0,1.0,1.0,1.0
26.33,17.0,1.0,1.0,1.0
26.34,10.0,1.0,1.0,1.0
26.35,34.0,1.0,1.0,1.0
26.36,25.0,1.0,1.0,1.0
26.37,14.0,1.0,1.0,1.0
26.38,30.504,1.0,1.0,1.0
26.39,26.0,1.0,1.0,1.0
26.4,23.496,1.0,1.0,1.0
26.41,18.0,1.0,1.0,1.0
26.42,34.0,1.0,1.0,1.0
26.43,16.0,1.0,1.0,1.0
26.44,17.504,1.0,1.0,1.0
26.45,16.0,1.0,1.0,1.0
26.46,14.496,1.0,1.0,1.0
26.47,33.504,1.0,1.0,1.0
26.48,39.496,1.0,1.0,1.0
26.49,18.0,1.0,1.0,1.0
26.5,26.0,1.0,1.0,1.0
26.51,21.504,1.0,1.0,1.0
26.52,40.504,1.0,1.0,1.0
26.53,19.992,1.0,1.0,1.0
26.54,8.0,1.0,1.0,1.0
26.55,32.504,1.0,1.0,1.0
26.56,18.496,1.0,1.0,1.0
26.57,33.0,1.0,1.0,1.0
26.58,21.504,1.0,1.0,1.0
26.59,24.496,1.0,1.0,1.0
26.6,22.0,1.0,1.0,1.0
26.61,19.008,1.0,1.0,1.0
26.62,33.992,1.0,1.0,1.0
26.63,25.0,1.0,1.0,1.0
26.64,27.0,1.0,1.0,1.0
26.65,25.504,1.0,1.0,1.0
26.66,31.496,1.0,1.0,1.0
26.67,30.0,1.0,1.0,1.0
26.68,17.504,1.0,1.0,1.0
26.69,24.0,1.0,1.0,1.0
26.7,16.0,1.0,1.0,1.0
26.71,25.496,1.0,1.0,1.0
26.72,10.0,1.0,1.0,1.0
26.73,19.0,1.0,1.0,1.0
26.74,14.0,1.0,1.0,1.0
26.75,31.0,1.0,1.0,1.0
26.76,30.0,1.0,1.0,1.0
26.77,21.504,1.0,1.0,1.0
26.78,23.496,1.0,1.0,1.0
26.79,17.0,1.0,1.0,1.0
26.8,11.0,1.0,1.0,1.0
26.81,22.008,1.0,1.0,1.0
26.82,29.992,1.0,1.0,1.0
26.83,9.5119,1.0,1.0,1.0
26.84,25.992,1.0,1.0,1.0
26.85,13.496,1.0,1.0,1.0
26.86,21.0,1.0,1.0,1.0
26.87,23.0,1.0,1.0,1.0
26.88,26.504,1.0,1.0,1.0
26.89,13.496,1.0,1.0,1.0
26.9,10.0,1.0,1.0,1.0
26.91,18.0,1.0,1.0,1.0
26.92,25.0,1.0,1.0,1.0
26.93,20.0,1.0,1.0,1.0
26.94,9.0,1.0,1.0,1.0
26.95,17.0,1.0,1.0,1.0
26.96,11.0,1.0,1.0,1.0
26.97,23.0,1.0,1.0,1.0
26.98,10.504,1.0,1.0,1.0
26.99,18.496,1.0,1.0,1.0
27.0,24.0,1.0,1.0,1.0
27.01,13.0,1.0,1.0,1.0
27.02,12.0,1.0,1.0,1.0
27.03,22.504,1.0,1.0,1.0
27.04,12.496,1.0,1.0,1.0
27.05,28.504,1.0,1.0,1.0
27.06,9.496,1.0,1.0,1.0
27.07,14.0,1.0,1.0,1.0
27.08,15.504,1.0,1.0,1.0
27.09,17.496,1.0,1.0,1.0
27.1,12.0,1.0,1.0,1.0
27.11,15.0,1.0,1.0,1.0
27.12,28.0,1.0,1.0,1.0
27.13,21.0,1.0,1.0,1.0
27.14,21.0,1.0,1.0,1.0
27.15,21.0,1.0,1.0,1.0
27.16,16.504,1.0,1.0,1.0
27.17,17.504,1.0,1.0,1.0
27.18,27.496,1.0,1.0,1.0
27.19,11.496,1.0,1.0,1.0
27.2,23.0,1.0,1.0,1.0
27.21,20.0,1.0,1.0,1.0
27.22,20.0,1.0,1.0,1.0
27.23,18.504,1.0,1.0,1.0
27.24,22.496,1.0,1.0,1.0
27.25,21.008,1.0,1.0,1.0
27.26,21.992,1.0,1.0,1.0
27.27,19.0,1.0,1.0,1.0
27.28,14.0,1.0,1.0,1.0
27.29,20.0,1.0,1.0,1.0
27.3,11.0,1.0,1.0,1.0
27.31,25.504,1.0,1.0,1.0
27.32,13.496,1.0,1.0,1.0
27.33,13.0,1.0,1.0,1.0
27.34,12.0,1.0,1.0,1.0
27.35,20.0,1.0,1.0,1.0
27.36,17.0,1.0,1.0,1.0
27.37,16.504,1.0,1.0,1.0
27.38,20.496,1.0,1.0,1.0
27.39,8.504,1.0,1.0,1.0
27.4,20.496,1.0,1.0,1.0
27.41,9.0,1.0,1.0,1.0
27.42,11.0,1.0,1.0,1.0
27.43,7.0,1.0,1.0,1.0
27.44,23.0,1.0,1.0,1.0
27.45,21.504,1.0,1.0,1.0
27.46,17.496,1.0,1.0,1.0
27.47,22.0,1.0,1.0,1.0
27.48,10.0,1.0,1.0,1.0
27.49,13.0,1.0,1.0,1.0
27.5,9.504,1.0,1.0,1.0
27.51,16.0,1.0,1.0,1.0
27.52,13.0,1.0,1.0,1.0
27.53,19.0,1.0,1.0,1.0
27.54,13.504,1.0,1.0,1.0
27.55,22.496,1.0,1.0,1.0
27.56,6.496,1.0,1.0,1.0
27.57,20.0,1.0,1.0,1.0
27.58,10.0,1.0,1.0,1.0
27.59,21.0,1.0,1.0,1.0
27.6,13.0,1.0,1.0,1.0
27.61,6.0,1.0,1.0,1.0
27.62,15.008,1.0,1.0,1.0
27.63,19.992,1.0,1.0,1.0
27.64,9.0,1.0,1.0,1.0
27.65,15.0,1.0,1.0,1.0
27.66,25.504,1.0,1.0,1.0
27.67,17.496,1.0,1.0,1.0
27.68,10.504,1.0,1.0,1.0
27.69,19.496,1.0,1.0,1.0
27.7,11.0,1.0,1.0,1.0
27.71,7.0,1.0,1.0,1.0
27.72,20.0,1.0,1.0,1.0
27.73,26.504,1.0,1.0,1.0
27.74,16.496,1.0,1.0,1.0
27.75,17.0,1.0,1.0,1.0
27.76,22.0,1.0,1.0,1.0
27.77,12.0,1.0,1.0,1.0
27.78,13.0,1.0,1.0,1.0
27.79,18.0,1.0,1.0,1.0
27.8,7.0,1.0,1.0,1.0
27.81,13.0,1.0,1.0,1.0
27.82,15.0,1.0,1.0,1.0
27.83,15.0,1.0,1.0,1.0
27.84,20.0,1.0,1.0,1.0
27.85,19.008,1.0,1.0,1.0
27.86,7.992,1.0,1.0,1.0
27.87,7.0,1.0,1.0,1.0
27.88,7.0,1.0,1.0,1.0
27.89,15.0,1.0,1.0,1.0
27.9,19.008,1.0,1.0,1.0
27.91,10.992,1.0,1.0,1.0
27.92,20.0,1.0,1.0,1.0
27.93,7.0,1.0,1.0,1.0
27.94,17.0,1.0,1.0,1.0
27.95,20.0,1.0,1.0,1.0
27.96,12.504,1.0,1.0,1.0
27.97,9.496,1.0,1.0,1.0
27.98,16.0,1.0,1.0,1.0
27.99,9.008,1.0,1.0,1.0
28.0,22.504,1.0,1.0,1.0
28.01,12.4881,1.0,1.0,1.0
28.02,11.0,1.0,1.0,1.0
28.03,15.008,1.0,1.0,1.0
28.04,57.992,1.0,1.0,1.0
28.05,26.0,1.0,1.0,1.0
28.06,25.0,1.0,1.0,1.0
28.07,10.0,1.0,1.0,1.0
28.08,15.504,1.0,1.0,1.0
28.09,23.496,1.0,1.0,1.0
28.1,9.0,1.0,1.0,1.0
28.11,10.504,1.0,1.0,1.0
28.12,13.496,1.0,1.0,1.0
28.13,15.0,1.0,1.0,1.0
28.14,8.0,1.0,1.0,1.0
28.15,12.0,1.0,1.0,1.0
28.16,14.0,1.0,1.0,1.0
28.17,9.0,1.0,1.0,1.0
28.18,13.504,1.0,1.0,1.0
28.19,13.504,1.0,1.0,1.0
28.2,15.992,1.0,1.0,1.0
28.21,20.0,1.0,1.0,1.0
28.22,14.0,1.0,1.0,1.0
28.23,13.0,1.0,1.0,1.0
28.24,14.0,1.0,1.0,1.0
28.25,11.0,1.0,1.0,1.0
28.26,6.0,1.0,1.0,1.0
28.27,10.0,1.0,1.0,1.0
28.28,4.0,1.0,1.0,1.0
28.29,12.0,1.0,1.0,1.0
28.3,4.008,1.0,1.0,1.0
28.31,13.992,1.0,1.0,1.0
28.32,11.0,1.0,1.0,1.0
28.33,17.0,1.0,1.0,1.0
28.34,17.504,1.0,1.0,1.0
28.35,20.496,1.0,1.0,1.0
28.36,21.0,1.0,1.0,1.0
28.37,7.504,1.0,1.0,1.0
28.38,14.496,1.0,1.0,1.0
28.39,13.0,1.0,1.0,1.0
28.4,34.0,1.0,1.0,1.0
28.41,19.5119,1.0,1.0,1.0
28.42,21.496,1.0,1.0,1.0
28.43,28.992,1.0,1.0,1.0
28.44,10.0,1.0,1.0,1.0
28.45,12.0,1.0,1.0,1.0
28.46,18.0,1.0,1.0,1.0
28.47,17.504,1.0,1.0,1.0
28.48,19.496,1.0,1.0,1.0
28.49,18.0,1.0,1.0,1.0
28.5,23.0,1.0,1.0,1.0
28.51,5.504,1.0,1.0,1.0
28.52,14.496,1.0,1.0,1.0
28.53,17.008,1.0,1.0,1.0
28.54,4.992,1.0,1.0,1.0
28.55,8.0,1.0,1.0,1.0
28.56,12.0,1.0,1.0,1.0
28.57,31.504,1.0,1.0,1.0
28.58,17.496,1.0,1.0,1.0
28.59,10.0,1.0,1.0,1.0
28.6,14.504,1.0,1.0,1.0
28.61,17.496,1.0,1.0,1.0
28.62,15.0,1.0,1.0,1.0
28.63,14.008,1.0,1.0,1.0
28.64,9.992,1.0,1.0,1.0
28.65,9.0,1.0,1.0,1.0
28.66,8.0,1.0,1.0,1.0
28.67,10.0,1.0,1.0,1.0
28.68,12.0,1.0,1.0,1.0
28.69,9.504,1.0,1.0,1.0
28.7,8.496,1.0,1.0,1.0
28.71,10.0,1.0,1.0,1.0
28.72,0.0,1.0,1.0,1.0
28.73,8.0,1.0,1.0,1.0
28.74,14.0,1.0,1.0,1.0
28.75,14.0,1.0,1.0,1.0
28.76,16.0,1.0,1.0,1.0
28.77,19.0,1.0,1.0,1.0
28.78,17.5119,1.0,1.0,1.0
28.79,14.992,1.0,1.0,1.0
28.8,20.496,1.0,1.0,1.0
28.81,15.0,1.0,1.0,1.0
28.82,13.0,1.0,1.0,1.0
28.83,6.0,1.0,1.0,1.0
28.84,12.0,1.0,1.0,1.0
28.85,5.0,1.0,1.0,1.0
28.86,7.0,1.0,1.0,1.0
28.87,7.0,1.0,1.0,1.0
28.88,8.0,1.0,1.0,1.0
28.89,19.504,1.0,1.0,1.0
28.9,13.496,1.0,1.0,1.0
28.91,9.0,1.0,1.0,1.0
28.92,12.0,1.0,1.0,1.0
28.93,13.504,1.0,1.0,1.0
28.94,10.504,1.0,1.0,1.0
28.95,19.992,1.0,1.0,1.0
28.96,26.0,1.0,1.0,1.0
28.97,11.0,1.0,1.0,1.0
28.98,11.0,1.0,1.0,1.0
28.99,2.0,1.0,1.0,1.0
29.0,11.0,1.0,1.0,1.0