File: XRD:XRR/SCO/22167_SL(CO)L/22167_SL(CO)L_002_XRD.csv
#twotheta, yobs, ycal, bkg, diff
40.0,51.0111,1.0,1.0,1.0
40.01,74.0,1.0,1.0,1.0
40.02,46.4944,1.0,1.0,1.0
40.03,47.4944,1.0,1.0,1.0
40.04,53.0,1.0,1.0,1.0
40.05,51.0,1.0,1.0,1.0
40.06,44.9889,1.0,1.0,1.0
40.07,52.0222,1.0,1.0,1.0
40.08,48.9889,1.0,1.0,1.0
40.09,65.0111,1.0,1.0,1.0
40.1,56.9889,1.0,1.0,1.0
40.11,49.0111,1.0,1.0,1.0
40.12,50.4833,1.0,1.0,1.0
40.13,63.0111,1.0,1.0,1.0
40.14,45.4944,1.0,1.0,1.0
40.15,42.4944,1.0,1.0,1.0
40.16,53.0111,1.0,1.0,1.0
40.17,57.9889,1.0,1.0,1.0
40.18,59.5167,1.0,1.0,1.0
40.19,61.4944,1.0,1.0,1.0
40.2,58.5056,1.0,1.0,1.0
40.21,51.9889,1.0,1.0,1.0
40.22,38.0111,1.0,1.0,1.0
40.23,58.0,1.0,1.0,1.0
40.24,50.4944,1.0,1.0,1.0
40.25,51.0,1.0,1.0,1.0
40.26,50.0,1.0,1.0,1.0
40.27,45.5056,1.0,1.0,1.0
40.28,40.0,1.0,1.0,1.0
40.29,57.4944,1.0,1.0,1.0
40.3,50.0,1.0,1.0,1.0
40.31,49.5056,1.0,1.0,1.0
40.32,74.9778,1.0,1.0,1.0
40.33,49.0222,1.0,1.0,1.0
40.34,54.0,1.0,1.0,1.0
40.35,61.9889,1.0,1.0,1.0
40.36,69.0111,1.0,1.0,1.0
40.37,49.9889,1.0,1.0,1.0
40.38,62.5056,1.0,1.0,1.0
40.39,51.5056,1.0,1.0,1.0
40.4,61.4944,1.0,1.0,1.0
40.41,51.4944,1.0,1.0,1.0
40.42,53.0,1.0,1.0,1.0
40.43,66.5056,1.0,1.0,1.0
40.44,69.0,1.0,1.0,1.0
40.45,65.5056,1.0,1.0,1.0
40.46,49.9889,1.0,1.0,1.0
40.47,48.0111,1.0,1.0,1.0
40.48,49.0,1.0,1.0,1.0
40.49,47.4944,1.0,1.0,1.0
40.5,65.5056,1.0,1.0,1.0
40.51,68.4944,1.0,1.0,1.0
40.52,35.5056,1.0,1.0,1.0
40.53,23.4944,1.0,1.0,1.0
40.54,33.5056,1.0,1.0,1.0
40.55,49.9778,1.0,1.0,1.0
40.56,56.0111,1.0,1.0,1.0
40.57,49.0111,1.0,1.0,1.0
40.58,48.4944,1.0,1.0,1.0
40.59,53.4944,1.0,1.0,1.0
40.6,69.0,1.0,1.0,1.0
40.61,66.5056,1.0,1.0,1.0
40.62,54.0,1.0,1.0,1.0
40.63,74.9889,1.0,1.0,1.0
40.64,59.5056,1.0,1.0,1.0
40.65,71.0,1.0,1.0,1.0
40.66,51.0,1.0,1.0,1.0
40.67,62.0111,1.0,1.0,1.0
40.68,56.4833,1.0,1.0,1.0
40.69,58.5056,1.0,1.0,1.0
40.7,64.5056,1.0,1.0,1.0
40.71,52.0,1.0,1.0,1.0
40.72,38.5056,1.0,1.0,1.0
40.73,53.0,1.0,1.0,1.0
40.74,68.4944,1.0,1.0,1.0
40.75,66.5056,1.0,1.0,1.0
40.76,61.4944,1.0,1.0,1.0
40.77,55.5056,1.0,1.0,1.0
40.78,50.9889,1.0,1.0,1.0
40.79,72.0111,1.0,1.0,1.0
40.8,44.9889,1.0,1.0,1.0
40.81,56.4944,1.0,1.0,1.0
40.82,52.5167,1.0,1.0,1.0
40.83,57.9889,1.0,1.0,1.0
40.84,45.0111,1.0,1.0,1.0
40.85,39.0,1.0,1.0,1.0
40.86,76.9889,1.0,1.0,1.0
40.87,51.0111,1.0,1.0,1.0
40.88,62.4944,1.0,1.0,1.0
40.89,56.5056,1.0,1.0,1.0
40.9,44.4944,1.0,1.0,1.0
40.91,85.4944,1.0,1.0,1.0
40.92,56.0111,1.0,1.0,1.0
40.93,64.4944,1.0,1.0,1.0
40.94,55.4944,1.0,1.0,1.0
40.95,57.0,1.0,1.0,1.0
40.96,54.4944,1.0,1.0,1.0
40.97,61.5167,1.0,1.0,1.0
40.98,56.0,1.0,1.0,1.0
40.99,54.9889,1.0,1.0,1.0
41.0,60.0111,1.0,1.0,1.0
41.01,64.0,1.0,1.0,1.0
41.02,50.0,1.0,1.0,1.0
41.03,60.4944,1.0,1.0,1.0
41.04,63.0,1.0,1.0,1.0
41.05,36.5056,1.0,1.0,1.0
41.06,38.0,1.0,1.0,1.0
41.07,58.4833,1.0,1.0,1.0
41.08,57.5167,1.0,1.0,1.0
41.09,54.4944,1.0,1.0,1.0
41.1,67.5056,1.0,1.0,1.0
41.11,37.4944,1.0,1.0,1.0
41.12,60.9889,1.0,1.0,1.0
41.13,56.5167,1.0,1.0,1.0
41.14,71.4944,1.0,1.0,1.0
41.15,51.4944,1.0,1.0,1.0
41.16,70.0111,1.0,1.0,1.0
41.17,54.4944,1.0,1.0,1.0
41.18,73.4944,1.0,1.0,1.0
41.19,55.0111,1.0,1.0,1.0
41.2,65.0,1.0,1.0,1.0
41.21,66.0,1.0,1.0,1.0
41.22,38.9889,1.0,1.0,1.0
41.23,74.0,1.0,1.0,1.0
41.24,60.0111,1.0,1.0,1.0
41.25,56.4833,1.0,1.0,1.0
41.26,68.0,1.0,1.0,1.0
41.27,53.0111,1.0,1.0,1.0
41.28,53.0,1.0,1.0,1.0
41.29,37.4944,1.0,1.0,1.0
41.3,70.5056,1.0,1.0,1.0
41.31,46.9889,1.0,1.0,1.0
41.32,51.5167,1.0,1.0,1.0
41.33,40.4944,1.0,1.0,1.0
41.34,52.4944,1.0,1.0,1.0
41.35,57.0111,1.0,1.0,1.0
41.36,39.9889,1.0,1.0,1.0
41.37,67.5056,1.0,1.0,1.0
41.38,53.0,1.0,1.0,1.0
41.39,54.5056,1.0,1.0,1.0
41.4,58.0,1.0,1.0,1.0
41.41,63.4944,1.0,1.0,1.0
41.42,48.0,1.0,1.0,1.0
41.43,56.5056,1.0,1.0,1.0
41.44,65.0,1.0,1.0,1.0
41.45,57.4944,1.0,1.0,1.0
41.46,34.5056,1.0,1.0,1.0
41.47,50.4833,1.0,1.0,1.0
41.48,77.0111,1.0,1.0,1.0
41.49,57.4833,1.0,1.0,1.0
41.5,65.5167,1.0,1.0,1.0
41.51,58.4944,1.0,1.0,1.0
41.52,51.4944,1.0,1.0,1.0
41.53,51.0111,1.0,1.0,1.0
41.54,48.4944,1.0,1.0,1.0
41.55,55.0111,1.0,1.0,1.0
41.56,67.4944,1.0,1.0,1.0
41.57,57.5056,1.0,1.0,1.0
41.58,41.9889,1.0,1.0,1.0
41.59,53.0,1.0,1.0,1.0
41.6,65.0111,1.0,1.0,1.0
41.61,66.0,1.0,1.0,1.0
41.62,68.0,1.0,1.0,1.0
41.63,68.0,1.0,1.0,1.0
41.64,55.4944,1.0,1.0,1.0
41.65,60.5056,1.0,1.0,1.0
41.66,42.4944,1.0,1.0,1.0
41.67,46.5056,1.0,1.0,1.0
41.68,62.9889,1.0,1.0,1.0
41.69,56.5056,1.0,1.0,1.0
41.7,55.9889,1.0,1.0,1.0
41.71,51.0111,1.0,1.0,1.0
41.72,51.9889,1.0,1.0,1.0
41.73,56.0,1.0,1.0,1.0
41.74,72.5167,1.0,1.0,1.0
41.75,67.4944,1.0,1.0,1.0
41.76,41.0,1.0,1.0,1.0
41.77,68.5056,1.0,1.0,1.0
41.78,64.9889,1.0,1.0,1.0
41.79,67.0,1.0,1.0,1.0
41.8,77.0111,1.0,1.0,1.0
41.81,62.9889,1.0,1.0,1.0
41.82,70.0111,1.0,1.0,1.0
41.83,37.4944,1.0,1.0,1.0
41.84,54.0,1.0,1.0,1.0
41.85,39.0,1.0,1.0,1.0
41.86,51.5056,1.0,1.0,1.0
41.87,38.9889,1.0,1.0,1.0
41.88,53.5056,1.0,1.0,1.0
41.89,67.0,1.0,1.0,1.0
41.9,63.4944,1.0,1.0,1.0
41.91,40.4944,1.0,1.0,1.0
41.92,59.5167,1.0,1.0,1.0
41.93,55.4944,1.0,1.0,1.0
41.94,56.0,1.0,1.0,1.0
41.95,48.0,1.0,1.0,1.0
41.96,55.4833,1.0,1.0,1.0
41.97,61.5167,1.0,1.0,1.0
41.98,65.4944,1.0,1.0,1.0
41.99,77.0,1.0,1.0,1.0
42.0,68.0,1.0,1.0,1.0
42.01,37.0,1.0,1.0,1.0
42.02,67.0111,1.0,1.0,1.0
42.03,50.0,1.0,1.0,1.0
42.04,68.0,1.0,1.0,1.0
42.05,49.9889,1.0,1.0,1.0
42.06,63.0,1.0,1.0,1.0
42.07,66.5056,1.0,1.0,1.0
42.08,71.9889,1.0,1.0,1.0
42.09,46.5167,1.0,1.0,1.0
42.1,52.4944,1.0,1.0,1.0
42.11,64.5056,1.0,1.0,1.0
42.12,36.0,1.0,1.0,1.0
42.13,55.4944,1.0,1.0,1.0
42.14,68.0,1.0,1.0,1.0
42.15,71.4944,1.0,1.0,1.0
42.16,42.0111,1.0,1.0,1.0
42.17,59.9889,1.0,1.0,1.0
42.18,73.0111,1.0,1.0,1.0
42.19,48.0,1.0,1.0,1.0
42.2,68.9889,1.0,1.0,1.0
42.21,66.5056,1.0,1.0,1.0
42.22,67.5056,1.0,1.0,1.0
42.23,66.0,1.0,1.0,1.0
42.24,56.4944,1.0,1.0,1.0
42.25,55.4944,1.0,1.0,1.0
42.26,68.5056,1.0,1.0,1.0
42.27,60.0,1.0,1.0,1.0
42.28,60.0,1.0,1.0,1.0
42.29,69.0,1.0,1.0,1.0
42.3,73.4944,1.0,1.0,1.0
42.31,39.5056,1.0,1.0,1.0
42.32,56.0,1.0,1.0,1.0
42.33,39.4944,1.0,1.0,1.0
42.34,63.5056,1.0,1.0,1.0
42.35,72.0,1.0,1.0,1.0
42.36,62.4944,1.0,1.0,1.0
42.37,54.0111,1.0,1.0,1.0
42.38,44.9889,1.0,1.0,1.0
42.39,78.5056,1.0,1.0,1.0
42.4,60.5056,1.0,1.0,1.0
42.41,63.0,1.0,1.0,1.0
42.42,66.0,1.0,1.0,1.0
42.43,38.4944,1.0,1.0,1.0
42.44,61.0,1.0,1.0,1.0
42.45,59.4944,1.0,1.0,1.0
42.46,56.5056,1.0,1.0,1.0
42.47,60.0,1.0,1.0,1.0
42.48,70.9889,1.0,1.0,1.0
42.49,55.4944,1.0,1.0,1.0
42.5,67.5056,1.0,1.0,1.0
42.51,52.5167,1.0,1.0,1.0
42.52,68.4944,1.0,1.0,1.0
42.53,70.0,1.0,1.0,1.0
42.54,63.0,1.0,1.0,1.0
42.55,56.4833,1.0,1.0,1.0
42.56,57.5167,1.0,1.0,1.0
42.57,53.5056,1.0,1.0,1.0
42.58,57.0,1.0,1.0,1.0
42.59,65.4944,1.0,1.0,1.0
42.6,52.4944,1.0,1.0,1.0
42.61,52.5056,1.0,1.0,1.0
42.62,59.5056,1.0,1.0,1.0
42.63,65.9778,1.0,1.0,1.0
42.64,48.0222,1.0,1.0,1.0
42.65,67.0,1.0,1.0,1.0
42.66,79.9889,1.0,1.0,1.0
42.67,68.0,1.0,1.0,1.0
42.68,67.0,1.0,1.0,1.0
42.69,53.0111,1.0,1.0,1.0
42.7,56.4944,1.0,1.0,1.0
42.71,75.5056,1.0,1.0,1.0
42.72,63.4944,1.0,1.0,1.0
42.73,72.0,1.0,1.0,1.0
42.74,69.4944,1.0,1.0,1.0
42.75,60.0111,1.0,1.0,1.0
42.76,66.0,1.0,1.0,1.0
42.77,70.0,1.0,1.0,1.0
42.78,60.4944,1.0,1.0,1.0
42.79,66.9889,1.0,1.0,1.0
42.8,74.5167,1.0,1.0,1.0
42.81,78.4944,1.0,1.0,1.0
42.82,91.0,1.0,1.0,1.0
42.83,98.9889,1.0,1.0,1.0
42.84,50.0111,1.0,1.0,1.0
42.85,66.4833,1.0,1.0,1.0
42.86,85.5167,1.0,1.0,1.0
42.87,77.5056,1.0,1.0,1.0
42.88,78.0,1.0,1.0,1.0
42.89,80.0,1.0,1.0,1.0
42.9,57.4944,1.0,1.0,1.0
42.91,95.5056,1.0,1.0,1.0
42.92,81.9889,1.0,1.0,1.0
42.93,76.9889,1.0,1.0,1.0
42.94,109.0111,1.0,1.0,1.0
42.95,93.0,1.0,1.0,1.0
42.96,93.9889,1.0,1.0,1.0
42.97,94.5056,1.0,1.0,1.0
42.98,103.0,1.0,1.0,1.0
42.99,94.5056,1.0,1.0,1.0
43.0,101.0,1.0,1.0,1.0
43.01,91.0111,1.0,1.0,1.0
43.02,86.9778,1.0,1.0,1.0
43.03,119.0222,1.0,1.0,1.0
43.04,104.4833,1.0,1.0,1.0
43.05,118.0,1.0,1.0,1.0
43.06,109.0,1.0,1.0,1.0
43.07,113.4944,1.0,1.0,1.0
43.08,126.0222,1.0,1.0,1.0
43.09,113.4944,1.0,1.0,1.0
43.1,93.9889,1.0,1.0,1.0
43.11,114.5056,1.0,1.0,1.0
43.12,113.0,1.0,1.0,1.0
43.13,98.0,1.0,1.0,1.0
43.14,130.4944,1.0,1.0,1.0
43.15,123.0,1.0,1.0,1.0
43.16,131.5056,1.0,1.0,1.0
43.17,105.5056,1.0,1.0,1.0
43.18,139.0,1.0,1.0,1.0
43.19,107.5056,1.0,1.0,1.0
43.2,133.0,1.0,1.0,1.0
43.21,139.9778,1.0,1.0,1.0
43.22,112.0222,1.0,1.0,1.0
43.23,120.4944,1.0,1.0,1.0
43.24,129.4833,1.0,1.0,1.0
43.25,133.5056,1.0,1.0,1.0
43.26,125.0111,1.0,1.0,1.0
43.27,89.9778,1.0,1.0,1.0
43.28,110.0222,1.0,1.0,1.0
43.29,121.4944,1.0,1.0,1.0
43.3,99.4833,1.0,1.0,1.0
43.31,132.0222,1.0,1.0,1.0
43.32,93.4944,1.0,1.0,1.0
43.33,88.0,1.0,1.0,1.0
43.34,108.4944,1.0,1.0,1.0
43.35,91.0111,1.0,1.0,1.0
43.36,91.4944,1.0,1.0,1.0
43.37,99.5056,1.0,1.0,1.0
43.38,107.4833,1.0,1.0,1.0
43.39,104.0,1.0,1.0,1.0
43.4,94.0222,1.0,1.0,1.0
43.41,92.9778,1.0,1.0,1.0
43.42,111.4944,1.0,1.0,1.0
43.43,80.5167,1.0,1.0,1.0
43.44,93.0,1.0,1.0,1.0
43.45,89.0,1.0,1.0,1.0
43.46,92.0,1.0,1.0,1.0
43.47,91.4944,1.0,1.0,1.0
43.48,110.0111,1.0,1.0,1.0
43.49,108.4944,1.0,1.0,1.0
43.5,88.0111,1.0,1.0,1.0
43.51,101.4833,1.0,1.0,1.0
43.52,88.5056,1.0,1.0,1.0
43.53,102.4833,1.0,1.0,1.0
43.54,108.5278,1.0,1.0,1.0
43.55,102.0,1.0,1.0,1.0
43.56,89.0,1.0,1.0,1.0
43.57,86.9889,1.0,1.0,1.0
43.58,101.0111,1.0,1.0,1.0
43.59,96.4944,1.0,1.0,1.0
43.6,102.0,1.0,1.0,1.0
43.61,90.5056,1.0,1.0,1.0
43.62,82.4833,1.0,1.0,1.0
43.63,98.0,1.0,1.0,1.0
43.64,113.4944,1.0,1.0,1.0
43.65,86.0,1.0,1.0,1.0
43.66,68.0,1.0,1.0,1.0
43.67,97.0222,1.0,1.0,1.0
43.68,87.4944,1.0,1.0,1.0
43.69,71.5056,1.0,1.0,1.0
43.7,77.4833,1.0,1.0,1.0
43.71,66.4833,1.0,1.0,1.0
43.72,84.0222,1.0,1.0,1.0
43.73,78.4944,1.0,1.0,1.0
43.74,73.0111,1.0,1.0,1.0
43.75,72.5056,1.0,1.0,1.0
43.76,90.4833,1.0,1.0,1.0
43.77,77.0111,1.0,1.0,1.0
43.78,64.0,1.0,1.0,1.0
43.79,79.0,1.0,1.0,1.0
43.8,86.0,1.0,1.0,1.0
43.81,77.5056,1.0,1.0,1.0
43.82,77.0,1.0,1.0,1.0
43.83,65.0,1.0,1.0,1.0
43.84,57.9889,1.0,1.0,1.0
43.85,68.0111,1.0,1.0,1.0
43.86,60.9889,1.0,1.0,1.0
43.87,73.4944,1.0,1.0,1.0
43.88,63.5056,1.0,1.0,1.0
43.89,65.0111,1.0,1.0,1.0
43.9,72.4833,1.0,1.0,1.0
43.91,90.5056,1.0,1.0,1.0
43.92,81.0,1.0,1.0,1.0
43.93,69.4944,1.0,1.0,1.0
43.94,77.0111,1.0,1.0,1.0
43.95,77.4944,1.0,1.0,1.0
43.96,45.4944,1.0,1.0,1.0
43.97,81.0111,1.0,1.0,1.0
43.98,59.5056,1.0,1.0,1.0
43.99,101.9889,1.0,1.0,1.0
44.0,82.5056,1.0,1.0,1.0
44.01,69.5056,1.0,1.0,1.0
44.02,77.9889,1.0,1.0,1.0
44.03,93.0,1.0,1.0,1.0
44.04,88.5056,1.0,1.0,1.0
44.05,73.5056,1.0,1.0,1.0
44.06,87.0,1.0,1.0,1.0
44.07,84.9889,1.0,1.0,1.0
44.08,90.0,1.0,1.0,1.0
44.09,94.5056,1.0,1.0,1.0
44.1,111.5056,1.0,1.0,1.0
44.11,79.4833,1.0,1.0,1.0
44.12,154.0111,1.0,1.0,1.0
44.13,93.4944,1.0,1.0,1.0
44.14,129.0111,1.0,1.0,1.0
44.15,113.4833,1.0,1.0,1.0
44.16,142.0,1.0,1.0,1.0
44.17,144.0,1.0,1.0,1.0
44.18,156.5056,1.0,1.0,1.0
44.19,194.4944,1.0,1.0,1.0
44.2,161.5056,1.0,1.0,1.0
44.21,172.0,1.0,1.0,1.0
44.22,183.0,1.0,1.0,1.0
44.23,174.4944,1.0,1.0,1.0
44.24,187.4944,1.0,1.0,1.0
44.25,193.5056,1.0,1.0,1.0
44.26,207.9889,1.0,1.0,1.0
44.27,224.5278,1.0,1.0,1.0
44.28,195.4833,1.0,1.0,1.0
44.29,198.5056,1.0,1.0,1.0
44.3,250.9778,1.0,1.0,1.0
44.31,215.0,1.0,1.0,1.0
44.32,226.5167,1.0,1.0,1.0
44.33,219.4833,1.0,1.0,1.0
44.34,213.5167,1.0,1.0,1.0
44.35,245.5056,1.0,1.0,1.0
44.36,271.4722,1.0,1.0,1.0
44.37,273.9889,1.0,1.0,1.0
44.38,231.0222,1.0,1.0,1.0
44.39,241.5056,1.0,1.0,1.0
44.4,259.0111,1.0,1.0,1.0
44.41,250.9667,1.0,1.0,1.0
44.42,231.5389,1.0,1.0,1.0
44.43,252.0,1.0,1.0,1.0
44.44,225.4833,1.0,1.0,1.0
44.45,235.9778,1.0,1.0,1.0
44.46,236.0333,1.0,1.0,1.0
44.47,214.9889,1.0,1.0,1.0
44.48,235.9556,1.0,1.0,1.0
44.49,198.5389,1.0,1.0,1.0
44.5,200.0222,1.0,1.0,1.0
44.51,209.4722,1.0,1.0,1.0
44.52,200.0222,1.0,1.0,1.0
44.53,187.9667,1.0,1.0,1.0
44.54,210.0222,1.0,1.0,1.0
44.55,182.0111,1.0,1.0,1.0
44.56,165.4611,1.0,1.0,1.0
44.57,202.5167,1.0,1.0,1.0
44.58,187.0111,1.0,1.0,1.0
44.59,210.4944,1.0,1.0,1.0
44.6,222.5167,1.0,1.0,1.0
44.61,219.9778,1.0,1.0,1.0
44.62,246.5167,1.0,1.0,1.0
44.63,244.9778,1.0,1.0,1.0
44.64,232.4944,1.0,1.0,1.0
44.65,281.5167,1.0,1.0,1.0
44.66,293.4944,1.0,1.0,1.0
44.67,272.4944,1.0,1.0,1.0
44.68,298.9889,1.0,1.0,1.0
44.69,241.0222,1.0,1.0,1.0
44.7,294.4833,1.0,1.0,1.0
44.71,276.5278,1.0,1.0,1.0
44.72,273.9889,1.0,1.0,1.0
44.73,294.9778,1.0,1.0,1.0
44.74,340.4944,1.0,1.0,1.0
44.75,334.0,1.0,1.0,1.0
44.76,360.9889,1.0,1.0,1.0
44.77,320.0222,1.0,1.0,1.0
44.78,304.0111,1.0,1.0,1.0
44.79,329.0,1.0,1.0,1.0
44.8,308.0111,1.0,1.0,1.0
44.81,334.5056,1.0,1.0,1.0
44.82,305.9889,1.0,1.0,1.0
44.83,338.4833,1.0,1.0,1.0
44.84,345.0111,1.0,1.0,1.0
44.85,340.5056,1.0,1.0,1.0
44.86,414.0,1.0,1.0,1.0
44.87,373.0,1.0,1.0,1.0
44.88,476.4611,1.0,1.0,1.0
44.89,446.9667,1.0,1.0,1.0
44.9,478.0667,1.0,1.0,1.0
44.91,477.4722,1.0,1.0,1.0
44.92,508.5056,1.0,1.0,1.0
44.93,534.9778,1.0,1.0,1.0
44.94,568.0111,1.0,1.0,1.0
44.95,616.0111,1.0,1.0,1.0
44.96,612.4833,1.0,1.0,1.0
44.97,685.5056,1.0,1.0,1.0
44.98,717.0,1.0,1.0,1.0
44.99,718.0,1.0,1.0,1.0
45.0,846.9556,1.0,1.0,1.0
45.01,895.4722,1.0,1.0,1.0
45.02,950.5278,1.0,1.0,1.0
45.03,1008.0,1.0,1.0,1.0
45.04,1061.99,1.0,1.0,1.0
45.05,1157.01,1.0,1.0,1.0
45.06,1311.44,1.0,1.0,1.0
45.07,1325.52,1.0,1.0,1.0
45.08,1439.99,1.0,1.0,1.0
45.09,1544.02,1.0,1.0,1.0
45.1,1701.9,1.0,1.0,1.0
45.11,1848.53,1.0,1.0,1.0
45.12,1831.48,1.0,1.0,1.0
45.13,1988.52,1.0,1.0,1.0
45.14,2029.98,1.0,1.0,1.0
45.15,2269.99,1.0,1.0,1.0
45.16,2382.01,1.0,1.0,1.0
45.17,2585.02,1.0,1.0,1.0
45.18,2626.43,1.0,1.0,1.0
45.19,2885.93,1.0,1.0,1.0
45.2,2848.48,1.0,1.0,1.0
45.21,3074.02,1.0,1.0,1.0
45.22,3209.87,1.0,1.0,1.0
45.23,3330.07,1.0,1.0,1.0
45.24,3554.97,1.0,1.0,1.0
45.25,3735.97,1.0,1.0,1.0
45.26,3876.63,1.0,1.0,1.0
45.27,3978.91,1.0,1.0,1.0
45.28,4087.42,1.0,1.0,1.0
45.29,4249.57,1.0,1.0,1.0
45.3,4304.55,1.0,1.0,1.0
45.31,4556.79,1.0,1.0,1.0
45.32,4722.61,1.0,1.0,1.0
45.33,4749.53,1.0,1.0,1.0
45.34,4679.45,1.0,1.0,1.0
45.35,4854.39,1.0,1.0,1.0
45.36,4965.17,1.0,1.0,1.0
45.37,4863.02,1.0,1.0,1.0
45.38,5091.79,1.0,1.0,1.0
45.39,4938.51,1.0,1.0,1.0
45.4,4987.16,1.0,1.0,1.0
45.41,4831.48,1.0,1.0,1.0
45.42,4888.92,1.0,1.0,1.0
45.43,4874.09,1.0,1.0,1.0
45.44,4845.55,1.0,1.0,1.0
45.45,4852.46,1.0,1.0,1.0
45.46,4541.04,1.0,1.0,1.0
45.47,4629.38,1.0,1.0,1.0
45.48,4395.11,1.0,1.0,1.0
45.49,4323.51,1.0,1.0,1.0
45.5,4260.54,1.0,1.0,1.0
45.51,4073.59,1.0,1.0,1.0
45.52,3878.9,1.0,1.0,1.0
45.53,3825.98,1.0,1.0,1.0
45.54,3671.0,1.0,1.0,1.0
45.55,3647.07,1.0,1.0,1.0
45.56,3377.0,1.0,1.0,1.0
45.57,3273.91,1.0,1.0,1.0
45.58,3244.17,1.0,1.0,1.0
45.59,3148.42,1.0,1.0,1.0
45.6,3225.55,1.0,1.0,1.0
45.61,3109.02,1.0,1.0,1.0
45.62,3079.53,1.0,1.0,1.0
45.63,3124.87,1.0,1.0,1.0
45.64,3225.0,1.0,1.0,1.0
45.65,3122.07,1.0,1.0,1.0
45.66,3259.52,1.0,1.0,1.0
45.67,3247.98,1.0,1.0,1.0
45.68,3328.98,1.0,1.0,1.0
45.69,3288.99,1.0,1.0,1.0
45.7,3381.02,1.0,1.0,1.0
45.71,3496.92,1.0,1.0,1.0
45.72,3415.59,1.0,1.0,1.0
45.73,3297.439,1.0,1.0,1.0
45.74,3519.55,1.0,1.0,1.0
45.75,3369.01,1.0,1.0,1.0
45.76,3388.34,1.0,1.0,1.0
45.77,3319.17,1.0,1.0,1.0
45.78,3377.0,1.0,1.0,1.0
45.79,3210.43,1.0,1.0,1.0
45.8,3078.09,1.0,1.0,1.0
45.81,2994.01,1.0,1.0,1.0
45.82,2863.99,1.0,1.0,1.0
45.83,2682.64,1.0,1.0,1.0
45.84,2618.91,1.0,1.0,1.0
45.85,2557.93,1.0,1.0,1.0
45.86,2598.06,1.0,1.0,1.0
45.87,2545.48,1.0,1.0,1.0
45.88,2380.98,1.0,1.0,1.0
45.89,2388.49,1.0,1.0,1.0
45.9,2420.62,1.0,1.0,1.0
45.91,2350.86,1.0,1.0,1.0
45.92,2380.07,1.0,1.0,1.0
45.93,2330.08,1.0,1.0,1.0
45.94,2456.93,1.0,1.0,1.0
45.95,2464.96,1.0,1.0,1.0
45.96,2559.06,1.0,1.0,1.0
45.97,2590.97,1.0,1.0,1.0
45.98,2631.52,1.0,1.0,1.0
45.99,2674.94,1.0,1.0,1.0
46.0,2925.55,1.0,1.0,1.0
46.01,2963.45,1.0,1.0,1.0
46.02,3180.42,1.0,1.0,1.0
46.03,3261.93,1.0,1.0,1.0
46.04,3491.04,1.0,1.0,1.0
46.05,3523.08,1.0,1.0,1.0
46.06,3987.439,1.0,1.0,1.0
46.07,4115.96,1.0,1.0,1.0
46.08,4503.42,1.0,1.0,1.0
46.09,4801.45,1.0,1.0,1.0
46.1,5071.04,1.0,1.0,1.0
46.11,5370.99,1.0,1.0,1.0
46.12,5600.35,1.0,1.0,1.0
46.13,6044.1,1.0,1.0,1.0
46.14,6448.96,1.0,1.0,1.0
46.15,7050.41,1.0,1.0,1.0
46.16,7466.51,1.0,1.0,1.0
46.17,7765.31,1.0,1.0,1.0
46.18,8343.03,1.0,1.0,1.0
46.19,8952.44,1.0,1.0,1.0
46.2,9376.41,1.0,1.0,1.0
46.21,10021.9,1.0,1.0,1.0
46.22,10616.9,1.0,1.0,1.0
46.23,11268.9,1.0,1.0,1.0
46.24,11813.4,1.0,1.0,1.0
46.25,12548.3,1.0,1.0,1.0
46.26,13053.7,1.0,1.0,1.0
46.27,13411.7,1.0,1.0,1.0
46.28,14202.417,1.0,1.0,1.0
46.29,15118.1,1.0,1.0,1.0
46.3,16026.9,1.0,1.0,1.0
46.31,16204,1.0,1.0,1.0
46.32,17008.9,1.0,1.0,1.0
46.33,17641.2,1.0,1.0,1.0
46.34,18242.2,1.0,1.0,1.0
46.35,18882.3,1.0,1.0,1.0
46.36,19640.5,1.0,1.0,1.0
46.37,20324.3,1.0,1.0,1.0
46.38,20987.0,1.0,1.0,1.0
46.39,21010.5,1.0,1.0,1.0
46.4,21768.2,1.0,1.0,1.0
46.41,22123.5,1.0,1.0,1.0
46.42,22361.3,1.0,1.0,1.0
46.43,22526.8,1.0,1.0,1.0
46.44,22881.25,1.0,1.0,1.0
46.45,23062.2,1.0,1.0,1.0
46.46,22997,1.0,1.0,1.0
46.47,22623.8,1.0,1.0,1.0
46.48,23095.3,1.0,1.0,1.0
46.49,22580.5,1.0,1.0,1.0
46.5,22685.5,1.0,1.0,1.0
46.51,22480,1.0,1.0,1.0
46.52,22202.334,1.0,1.0,1.0
46.53,21815.8,1.0,1.0,1.0
46.54,21352,1.0,1.0,1.0
46.55,20558.7,1.0,1.0,1.0
46.56,20375.4,1.0,1.0,1.0
46.57,19507.2,1.0,1.0,1.0
46.58,19145.6,1.0,1.0,1.0
46.59,18249.5,1.0,1.0,1.0
46.6,17859.6,1.0,1.0,1.0
46.61,17393.5,1.0,1.0,1.0
46.62,16558.5,1.0,1.0,1.0
46.63,16028.2,1.0,1.0,1.0
46.64,15229.1,1.0,1.0,1.0
46.65,15001,1.0,1.0,1.0
46.66,14492,1.0,1.0,1.0
46.67,14002.1,1.0,1.0,1.0
46.68,13834.1,1.0,1.0,1.0
46.69,13177.8,1.0,1.0,1.0
46.7,13033.8,1.0,1.0,1.0
46.71,12622.4,1.0,1.0,1.0
46.72,12803.5,1.0,1.0,1.0
46.73,12339,1.0,1.0,1.0
46.74,12317.5,1.0,1.0,1.0
46.75,12341.9,1.0,1.0,1.0
46.76,12204.5,1.0,1.0,1.0
46.77,11886.6,1.0,1.0,1.0
46.78,12253.5,1.0,1.0,1.0
46.79,11927,1.0,1.0,1.0
46.8,11886,1.0,1.0,1.0
46.81,11891.5,1.0,1.0,1.0
46.82,11633,1.0,1.0,1.0
46.83,11588,1.0,1.0,1.0
46.84,11517.1,1.0,1.0,1.0
46.85,11141,1.0,1.0,1.0
46.86,10996.5,1.0,1.0,1.0
46.87,10591.5,1.0,1.0,1.0
46.88,10345.1,1.0,1.0,1.0
46.89,9856.2,1.0,1.0,1.0
46.9,9678.43,1.0,1.0,1.0
46.91,8919.91,1.0,1.0,1.0
46.92,8630.583,1.0,1.0,1.0
46.93,8525.49,1.0,1.0,1.0
46.94,7927.64,1.0,1.0,1.0
46.95,7549.561,1.0,1.0,1.0
46.96,7201.53,1.0,1.0,1.0
46.97,6764.01,1.0,1.0,1.0
46.98,6337.01,1.0,1.0,1.0
46.99,6055.66,1.0,1.0,1.0
47.0,5495.94,1.0,1.0,1.0
47.01,5490.06,1.0,1.0,1.0
47.02,5039.53,1.0,1.0,1.0
47.03,4895.53,1.0,1.0,1.0
47.04,4555.96,1.0,1.0,1.0
47.05,4324.52,1.0,1.0,1.0
47.06,4156.1,1.0,1.0,1.0
47.07,3928.49,1.0,1.0,1.0
47.08,3700.49,1.0,1.0,1.0
47.09,3604.67,1.0,1.0,1.0
47.1,3399.9,1.0,1.0,1.0
47.11,3154.53,1.0,1.0,1.0
47.12,2964.98,1.0,1.0,1.0
47.13,2768.57,1.0,1.0,1.0
47.14,2799.54,1.0,1.0,1.0
47.15,2470.98,1.0,1.0,1.0
47.16,2500.02,1.0,1.0,1.0
47.17,2495.52,1.0,1.0,1.0
47.18,2280.48,1.0,1.0,1.0
47.19,2111.52,1.0,1.0,1.0
47.2,2064.06,1.0,1.0,1.0
47.21,1974.49,1.0,1.0,1.0
47.22,1816.54,1.0,1.0,1.0
47.23,1800.46,1.0,1.0,1.0
47.24,1685.02,1.0,1.0,1.0
47.25,1618.48,1.0,1.0,1.0
47.26,1536.07,1.0,1.0,1.0
47.27,1572.93,1.0,1.0,1.0
47.28,1364.09,1.0,1.0,1.0
47.29,1321.47,1.0,1.0,1.0
47.3,1249.52,1.0,1.0,1.0
47.31,1175.99,1.0,1.0,1.0
47.32,1102.53,1.0,1.0,1.0
47.33,1063.46,1.0,1.0,1.0
47.34,1057.53,1.0,1.0,1.0
47.35,949.9889,1.0,1.0,1.0
47.36,988.5389,1.0,1.0,1.0
47.37,882.5167,1.0,1.0,1.0
47.38,814.5056,1.0,1.0,1.0
47.39,800.4167,1.0,1.0,1.0
47.4,811.0222,1.0,1.0,1.0
47.41,826.55,1.0,1.0,1.0
47.42,814.9778,1.0,1.0,1.0
47.43,814.5056,1.0,1.0,1.0
47.44,823.9889,1.0,1.0,1.0
47.45,891.0222,1.0,1.0,1.0
47.46,936.9333,1.0,1.0,1.0
47.47,1022.52,1.0,1.0,1.0
47.48,1127.51,1.0,1.0,1.0
47.49,1239.49,1.0,1.0,1.0
47.5,1345.43,1.0,1.0,1.0
47.51,1470.53,1.0,1.0,1.0
47.52,1637.54,1.0,1.0,1.0
47.53,1873.38,1.0,1.0,1.0
47.54,2078.48,1.0,1.0,1.0
47.55,2339.02,1.0,1.0,1.0
47.56,2481.92,1.0,1.0,1.0
47.57,2796.93,1.0,1.0,1.0
47.58,3031.0,1.0,1.0,1.0
47.59,3273.55,1.0,1.0,1.0
47.6,3682.91,1.0,1.0,1.0
47.61,3956.47,1.0,1.0,1.0
47.62,4191.96,1.0,1.0,1.0
47.63,4505.96,1.0,1.0,1.0
47.64,4803.439,1.0,1.0,1.0
47.65,5134.1,1.0,1.0,1.0
47.66,5409.96,1.0,1.0,1.0
47.67,5768.94,1.0,1.0,1.0
47.68,6124.42,1.0,1.0,1.0
47.69,6372.92,1.0,1.0,1.0
47.7,6650.46,1.0,1.0,1.0
47.71,6986.42,1.0,1.0,1.0
47.72,7353.57,1.0,1.0,1.0
47.73,7857.35,1.0,1.0,1.0
47.74,8135.58,1.0,1.0,1.0
47.75,8506.8,1.0,1.0,1.0
47.76,9136.48,1.0,1.0,1.0
47.77,10080.0,1.0,1.0,1.0
47.78,10822.9,1.0,1.0,1.0
47.79,12070.833,1.0,1.0,1.0
47.8,13800.7,1.0,1.0,1.0
47.81,15515.7,1.0,1.0,1.0
47.82,19020.25,1.0,1.0,1.0
47.83,23392.5,1.0,1.0,1.0
47.84,29079.7,1.0,1.0,1.0
47.85,35178.8,1.0,1.0,1.0
47.86,43220.5,1.0,1.0,1.0
47.87,53583.832,1.0,1.0,1.0
47.88,66424.7,1.0,1.0,1.0
47.89,85532.7,1.0,1.0,1.0
47.9,112970,1.0,1.0,1.0
47.91,154586,1.0,1.0,1.0
47.92,223860,1.0,1.0,1.0
47.93,352095,1.0,1.0,1.0
47.94,695253.625,1.0,1.0,1.0
47.95,1361261.625,1.0,1.0,1.0
47.96,2828473.75,1.0,1.0,1.0
47.97,19907008.0,1.0,1.0,1.0
47.98,37511668.0,1.0,1.0,1.0
47.99,9095284.0,1.0,1.0,1.0
48.0,1792856.0,1.0,1.0,1.0
48.01,862304.5,1.0,1.0,1.0
48.02,525194.625,1.0,1.0,1.0
48.03,349031,1.0,1.0,1.0
48.04,242273,1.0,1.0,1.0
48.05,172137,1.0,1.0,1.0
48.06,124831,1.0,1.0,1.0
48.07,93477.8,1.0,1.0,1.0
48.08,70630.2,1.0,1.0,1.0
48.09,53796.8,1.0,1.0,1.0
48.1,41111.5,1.0,1.0,1.0
48.11,31585.9,1.0,1.0,1.0
48.12,24556.4,1.0,1.0,1.0
48.13,19855.4,1.0,1.0,1.0
48.14,16002.2,1.0,1.0,1.0
48.15,13010.583,1.0,1.0,1.0
48.16,10615.9,1.0,1.0,1.0
48.17,8721.75,1.0,1.0,1.0
48.18,7189.71,1.0,1.0,1.0
48.19,6015.02,1.0,1.0,1.0
48.2,5139.67,1.0,1.0,1.0
48.21,4490.439,1.0,1.0,1.0
48.22,3984.55,1.0,1.0,1.0
48.23,3479.54,1.0,1.0,1.0
48.24,3080.65,1.0,1.0,1.0
48.25,2835.45,1.0,1.0,1.0
48.26,2488.04,1.0,1.0,1.0
48.27,2219.06,1.0,1.0,1.0
48.28,2023.98,1.0,1.0,1.0
48.29,1882.04,1.0,1.0,1.0
48.3,1688.55,1.0,1.0,1.0
48.31,1644.47,1.0,1.0,1.0
48.32,1462.52,1.0,1.0,1.0
48.33,1424.0,1.0,1.0,1.0
48.34,1303.51,1.0,1.0,1.0
48.35,1224.51,1.0,1.0,1.0
48.36,1073.47,1.0,1.0,1.0
48.37,1055.09,1.0,1.0,1.0
48.38,1014.49,1.0,1.0,1.0
48.39,970.9667,1.0,1.0,1.0
48.4,973.0111,1.0,1.0,1.0
48.41,837.9889,1.0,1.0,1.0
48.42,907.0333,1.0,1.0,1.0
48.43,861.9889,1.0,1.0,1.0
48.44,824.9778,1.0,1.0,1.0
48.45,750.5278,1.0,1.0,1.0
48.46,801.9556,1.0,1.0,1.0
48.47,770.55,1.0,1.0,1.0
48.48,753.9889,1.0,1.0,1.0
48.49,697.5278,1.0,1.0,1.0
48.5,693.4833,1.0,1.0,1.0
48.51,676.0222,1.0,1.0,1.0
48.52,657.5167,1.0,1.0,1.0
48.53,719.9556,1.0,1.0,1.0
48.54,651.0111,1.0,1.0,1.0
48.55,669.4722,1.0,1.0,1.0
48.56,666.5167,1.0,1.0,1.0
48.57,680.5389,1.0,1.0,1.0
48.58,682.9667,1.0,1.0,1.0
48.59,600.4944,1.0,1.0,1.0
48.6,622.5167,1.0,1.0,1.0
48.61,650.5167,1.0,1.0,1.0
48.62,581.4722,1.0,1.0,1.0
48.63,598.0222,1.0,1.0,1.0
48.64,563.4722,1.0,1.0,1.0
48.65,603.0555,1.0,1.0,1.0
48.66,548.4944,1.0,1.0,1.0
48.67,570.0,1.0,1.0,1.0
48.68,506.9778,1.0,1.0,1.0
48.69,529.4722,1.0,1.0,1.0
48.7,492.0333,1.0,1.0,1.0
48.71,477.5056,1.0,1.0,1.0
48.72,502.0111,1.0,1.0,1.0
48.73,484.5056,1.0,1.0,1.0
48.74,440.4944,1.0,1.0,1.0
48.75,487.4833,1.0,1.0,1.0
48.76,421.4833,1.0,1.0,1.0
48.77,433.9889,1.0,1.0,1.0
48.78,409.0444,1.0,1.0,1.0
48.79,452.0,1.0,1.0,1.0
48.8,384.0222,1.0,1.0,1.0
48.81,369.4944,1.0,1.0,1.0
48.82,385.9556,1.0,1.0,1.0
48.83,354.5278,1.0,1.0,1.0
48.84,395.9778,1.0,1.0,1.0
48.85,366.0111,1.0,1.0,1.0
48.86,380.4833,1.0,1.0,1.0
48.87,357.0111,1.0,1.0,1.0
48.88,403.0111,1.0,1.0,1.0
48.89,336.4944,1.0,1.0,1.0
48.9,382.5167,1.0,1.0,1.0
48.91,352.4944,1.0,1.0,1.0
48.92,367.5056,1.0,1.0,1.0
48.93,343.4944,1.0,1.0,1.0
48.94,302.0111,1.0,1.0,1.0
48.95,318.0,1.0,1.0,1.0
48.96,325.9667,1.0,1.0,1.0
48.97,300.5389,1.0,1.0,1.0
48.98,349.9778,1.0,1.0,1.0
48.99,338.0111,1.0,1.0,1.0
49.0,284.0222,1.0,1.0,1.0
49.01,276.9889,1.0,1.0,1.0
49.02,281.0,1.0,1.0,1.0
49.03,315.0,1.0,1.0,1.0
49.04,258.5056,1.0,1.0,1.0
49.05,262.5056,1.0,1.0,1.0
49.06,290.9889,1.0,1.0,1.0
49.07,229.0,1.0,1.0,1.0
49.08,226.4944,1.0,1.0,1.0
49.09,229.4722,1.0,1.0,1.0
49.1,247.0333,1.0,1.0,1.0
49.11,221.0,1.0,1.0,1.0
49.12,215.0,1.0,1.0,1.0
49.13,211.4944,1.0,1.0,1.0
49.14,202.0,1.0,1.0,1.0
49.15,205.5278,1.0,1.0,1.0
49.16,196.9667,1.0,1.0,1.0
49.17,189.5056,1.0,1.0,1.0
49.18,178.5278,1.0,1.0,1.0
49.19,167.4833,1.0,1.0,1.0
49.2,159.5056,1.0,1.0,1.0
49.21,164.9778,1.0,1.0,1.0
49.22,165.5056,1.0,1.0,1.0
49.23,151.5278,1.0,1.0,1.0
49.24,156.4722,1.0,1.0,1.0
49.25,140.0111,1.0,1.0,1.0
49.26,131.0111,1.0,1.0,1.0
49.27,145.4944,1.0,1.0,1.0
49.28,142.4944,1.0,1.0,1.0
49.29,141.0,1.0,1.0,1.0
49.3,127.0111,1.0,1.0,1.0
49.31,100.9889,1.0,1.0,1.0
49.32,128.5056,1.0,1.0,1.0
49.33,115.4944,1.0,1.0,1.0
49.34,123.0111,1.0,1.0,1.0
49.35,117.5056,1.0,1.0,1.0
49.36,106.9778,1.0,1.0,1.0
49.37,103.0,1.0,1.0,1.0
49.38,100.5167,1.0,1.0,1.0
49.39,92.4944,1.0,1.0,1.0
49.4,105.0,1.0,1.0,1.0
49.41,102.0,1.0,1.0,1.0
49.42,93.5056,1.0,1.0,1.0
49.43,106.9778,1.0,1.0,1.0
49.44,98.5056,1.0,1.0,1.0
49.45,85.0111,1.0,1.0,1.0
49.46,120.5056,1.0,1.0,1.0
49.47,119.9889,1.0,1.0,1.0
49.48,70.0111,1.0,1.0,1.0
49.49,82.0,1.0,1.0,1.0
49.5,68.5056,1.0,1.0,1.0
49.51,101.0,1.0,1.0,1.0
49.52,102.9889,1.0,1.0,1.0
49.53,86.0,1.0,1.0,1.0
49.54,87.5056,1.0,1.0,1.0
49.55,93.0,1.0,1.0,1.0
49.56,56.0,1.0,1.0,1.0
49.57,83.0,1.0,1.0,1.0
49.58,94.9889,1.0,1.0,1.0
49.59,105.0,1.0,1.0,1.0
49.6,75.0111,1.0,1.0,1.0
49.61,88.0,1.0,1.0,1.0
49.62,79.4944,1.0,1.0,1.0
49.63,80.5056,1.0,1.0,1.0
49.64,84.9889,1.0,1.0,1.0
49.65,76.5167,1.0,1.0,1.0
49.66,93.9889,1.0,1.0,1.0
49.67,81.4944,1.0,1.0,1.0
49.68,80.0,1.0,1.0,1.0
49.69,72.0111,1.0,1.0,1.0
49.7,70.4944,1.0,1.0,1.0
49.71,68.0111,1.0,1.0,1.0
49.72,80.9889,1.0,1.0,1.0
49.73,66.0111,1.0,1.0,1.0
49.74,85.4944,1.0,1.0,1.0
49.75,81.5056,1.0,1.0,1.0
49.76,61.4944,1.0,1.0,1.0
49.77,72.9889,1.0,1.0,1.0
49.78,84.0111,1.0,1.0,1.0
49.79,72.9889,1.0,1.0,1.0
49.8,72.4944,1.0,1.0,1.0
49.81,79.5167,1.0,1.0,1.0
49.82,81.0,1.0,1.0,1.0
49.83,61.4944,1.0,1.0,1.0
49.84,86.4944,1.0,1.0,1.0
49.85,74.5056,1.0,1.0,1.0
49.86,59.5056,1.0,1.0,1.0
49.87,53.9889,1.0,1.0,1.0
49.88,82.0111,1.0,1.0,1.0
49.89,88.5056,1.0,1.0,1.0
49.9,80.4944,1.0,1.0,1.0
49.91,78.5056,1.0,1.0,1.0
49.92,78.9889,1.0,1.0,1.0
49.93,77.0,1.0,1.0,1.0
49.94,78.5056,1.0,1.0,1.0
49.95,77.5056,1.0,1.0,1.0
49.96,70.4944,1.0,1.0,1.0
49.97,56.5056,1.0,1.0,1.0
49.98,75.9889,1.0,1.0,1.0
49.99,68.5056,1.0,1.0,1.0
50.0,92.0,1.0,1.0,1.0
50.01,57.4944,1.0,1.0,1.0
50.02,51.0,1.0,1.0,1.0
50.03,67.0111,1.0,1.0,1.0
50.04,78.4944,1.0,1.0,1.0
50.05,70.0,1.0,1.0,1.0
50.06,67.0,1.0,1.0,1.0
50.07,59.0,1.0,1.0,1.0
50.08,58.5056,1.0,1.0,1.0
50.09,46.4944,1.0,1.0,1.0
50.1,66.0,1.0,1.0,1.0
50.11,63.0,1.0,1.0,1.0
50.12,79.4944,1.0,1.0,1.0
50.13,38.0,1.0,1.0,1.0
50.14,65.5056,1.0,1.0,1.0
50.15,54.9889,1.0,1.0,1.0
50.16,60.5056,1.0,1.0,1.0
50.17,62.0111,1.0,1.0,1.0
50.18,66.4944,1.0,1.0,1.0
50.19,64.0,1.0,1.0,1.0
50.2,57.4944,1.0,1.0,1.0
50.21,58.4944,1.0,1.0,1.0
50.22,70.5056,1.0,1.0,1.0
50.23,54.0111,1.0,1.0,1.0
50.24,51.4944,1.0,1.0,1.0
50.25,59.0,1.0,1.0,1.0
50.26,49.0,1.0,1.0,1.0
50.27,53.0,1.0,1.0,1.0
50.28,32.0,1.0,1.0,1.0
50.29,55.5056,1.0,1.0,1.0
50.3,46.0,1.0,1.0,1.0
50.31,51.9889,1.0,1.0,1.0
50.32,55.0111,1.0,1.0,1.0
50.33,45.0,1.0,1.0,1.0
50.34,49.9889,1.0,1.0,1.0
50.35,68.0,1.0,1.0,1.0
50.36,49.0111,1.0,1.0,1.0
50.37,41.0,1.0,1.0,1.0
50.38,60.0,1.0,1.0,1.0
50.39,62.4944,1.0,1.0,1.0
50.4,74.5056,1.0,1.0,1.0
50.41,54.4944,1.0,1.0,1.0
50.42,47.5056,1.0,1.0,1.0
50.43,55.4944,1.0,1.0,1.0
50.44,62.0,1.0,1.0,1.0
50.45,64.0,1.0,1.0,1.0
50.46,71.4944,1.0,1.0,1.0
50.47,59.0111,1.0,1.0,1.0
50.48,51.4944,1.0,1.0,1.0
50.49,59.5056,1.0,1.0,1.0
50.5,60.9889,1.0,1.0,1.0
50.51,66.0111,1.0,1.0,1.0
50.52,64.4944,1.0,1.0,1.0
50.53,56.9889,1.0,1.0,1.0
50.54,56.0111,1.0,1.0,1.0
50.55,59.0,1.0,1.0,1.0
50.56,57.5056,1.0,1.0,1.0
50.57,62.0,1.0,1.0,1.0
50.58,59.0,1.0,1.0,1.0
50.59,42.9889,1.0,1.0,1.0
50.6,81.0,1.0,1.0,1.0
50.61,70.0,1.0,1.0,1.0
50.62,61.0111,1.0,1.0,1.0
50.63,63.4944,1.0,1.0,1.0
50.64,63.0,1.0,1.0,1.0
50.65,35.9889,1.0,1.0,1.0
50.66,66.0111,1.0,1.0,1.0
50.67,66.5056,1.0,1.0,1.0
50.68,45.0,1.0,1.0,1.0
50.69,66.9889,1.0,1.0,1.0
50.7,43.5056,1.0,1.0,1.0
50.71,53.5056,1.0,1.0,1.0
50.72,62.9889,1.0,1.0,1.0
50.73,53.5056,1.0,1.0,1.0
50.74,59.4944,1.0,1.0,1.0
50.75,47.4944,1.0,1.0,1.0
50.76,66.5167,1.0,1.0,1.0
50.77,53.4944,1.0,1.0,1.0
50.78,57.0,1.0,1.0,1.0
50.79,55.0,1.0,1.0,1.0
50.8,59.0,1.0,1.0,1.0
50.81,65.0,1.0,1.0,1.0
50.82,37.9889,1.0,1.0,1.0
50.83,47.0111,1.0,1.0,1.0
50.84,35.5056,1.0,1.0,1.0
50.85,40.0,1.0,1.0,1.0
50.86,53.4944,1.0,1.0,1.0
50.87,61.0,1.0,1.0,1.0
50.88,47.5056,1.0,1.0,1.0
50.89,48.4944,1.0,1.0,1.0
50.9,45.0,1.0,1.0,1.0
50.91,55.0,1.0,1.0,1.0
50.92,59.4944,1.0,1.0,1.0
50.93,56.0,1.0,1.0,1.0
50.94,42.5056,1.0,1.0,1.0
50.95,51.5056,1.0,1.0,1.0
50.96,37.9889,1.0,1.0,1.0
50.97,48.4944,1.0,1.0,1.0
50.98,59.0111,1.0,1.0,1.0
50.99,47.0,1.0,1.0,1.0
51.0,61.0,1.0,1.0,1.0
51.01,52.5056,1.0,1.0,1.0
51.02,49.0,1.0,1.0,1.0
51.03,32.4944,1.0,1.0,1.0
51.04,52.5056,1.0,1.0,1.0
51.05,30.0,1.0,1.0,1.0
51.06,57.4944,1.0,1.0,1.0
51.07,61.0,1.0,1.0,1.0
51.08,58.0,1.0,1.0,1.0
51.09,60.5056,1.0,1.0,1.0
51.1,56.9889,1.0,1.0,1.0
51.11,53.0111,1.0,1.0,1.0
51.12,70.0,1.0,1.0,1.0
51.13,43.4944,1.0,1.0,1.0
51.14,41.5056,1.0,1.0,1.0
51.15,44.9889,1.0,1.0,1.0
51.16,53.0,1.0,1.0,1.0
51.17,62.0,1.0,1.0,1.0
51.18,48.5056,1.0,1.0,1.0
51.19,52.5056,1.0,1.0,1.0
51.2,72.4944,1.0,1.0,1.0
51.21,35.0,1.0,1.0,1.0
51.22,44.4944,1.0,1.0,1.0
51.23,44.0111,1.0,1.0,1.0
51.24,42.9889,1.0,1.0,1.0
51.25,43.5056,1.0,1.0,1.0
51.26,54.9889,1.0,1.0,1.0
51.27,52.0111,1.0,1.0,1.0
51.28,36.0,1.0,1.0,1.0
51.29,44.9889,1.0,1.0,1.0
51.3,55.5167,1.0,1.0,1.0
51.31,51.0,1.0,1.0,1.0
51.32,38.0,1.0,1.0,1.0
51.33,28.0,1.0,1.0,1.0
51.34,51.0,1.0,1.0,1.0
51.35,55.4944,1.0,1.0,1.0
51.36,73.4944,1.0,1.0,1.0
51.37,47.0111,1.0,1.0,1.0
51.38,49.0,1.0,1.0,1.0
51.39,46.9889,1.0,1.0,1.0
51.4,57.9889,1.0,1.0,1.0
51.41,47.0222,1.0,1.0,1.0
51.42,51.9889,1.0,1.0,1.0
51.43,44.5056,1.0,1.0,1.0
51.44,51.0,1.0,1.0,1.0
51.45,49.0,1.0,1.0,1.0
51.46,57.5056,1.0,1.0,1.0
51.47,41.0,1.0,1.0,1.0
51.48,48.0,1.0,1.0,1.0
51.49,57.0,1.0,1.0,1.0
51.5,41.4944,1.0,1.0,1.0
51.51,47.5056,1.0,1.0,1.0
51.52,49.4944,1.0,1.0,1.0
51.53,38.4944,1.0,1.0,1.0
51.54,55.0,1.0,1.0,1.0
51.55,56.0111,1.0,1.0,1.0
51.56,43.4833,1.0,1.0,1.0
51.57,47.0111,1.0,1.0,1.0
51.58,40.5056,1.0,1.0,1.0
51.59,41.0,1.0,1.0,1.0
51.6,53.4944,1.0,1.0,1.0
51.61,56.9889,1.0,1.0,1.0
51.62,44.5167,1.0,1.0,1.0
51.63,47.0,1.0,1.0,1.0
51.64,41.4944,1.0,1.0,1.0
51.65,25.5056,1.0,1.0,1.0
51.66,44.9889,1.0,1.0,1.0
51.67,66.5056,1.0,1.0,1.0
51.68,37.5056,1.0,1.0,1.0
51.69,46.4944,1.0,1.0,1.0
51.7,47.4944,1.0,1.0,1.0
51.71,39.0111,1.0,1.0,1.0
51.72,48.4944,1.0,1.0,1.0
51.73,42.0,1.0,1.0,1.0
51.74,35.5056,1.0,1.0,1.0
51.75,38.0,1.0,1.0,1.0
51.76,52.0,1.0,1.0,1.0
51.77,55.9889,1.0,1.0,1.0
51.78,58.0111,1.0,1.0,1.0
51.79,63.0,1.0,1.0,1.0
51.8,54.9889,1.0,1.0,1.0
51.81,42.5056,1.0,1.0,1.0
51.82,43.0,1.0,1.0,1.0
51.83,45.5056,1.0,1.0,1.0
51.84,46.9889,1.0,1.0,1.0
51.85,46.0111,1.0,1.0,1.0
51.86,59.9889,1.0,1.0,1.0
51.87,34.0111,1.0,1.0,1.0
51.88,50.4944,1.0,1.0,1.0
51.89,60.5056,1.0,1.0,1.0
51.9,46.9889,1.0,1.0,1.0
51.91,38.0111,1.0,1.0,1.0
51.92,48.0,1.0,1.0,1.0
51.93,43.9889,1.0,1.0,1.0
51.94,38.0111,1.0,1.0,1.0
51.95,44.4944,1.0,1.0,1.0
51.96,41.5056,1.0,1.0,1.0
51.97,54.0,1.0,1.0,1.0
51.98,49.4833,1.0,1.0,1.0
51.99,43.5167,1.0,1.0,1.0
52.0,35.4833,1.0,1.0,1.0
52.01,52.5167,1.0,1.0,1.0
52.02,46.0,1.0,1.0,1.0
52.03,47.4944,1.0,1.0,1.0
52.04,44.5056,1.0,1.0,1.0
52.05,43.0,1.0,1.0,1.0
52.06,41.0,1.0,1.0,1.0
52.07,40.0,1.0,1.0,1.0
52.08,30.0,1.0,1.0,1.0
52.09,33.4944,1.0,1.0,1.0
52.1,44.5056,1.0,1.0,1.0
52.11,49.0,1.0,1.0,1.0
52.12,35.9889,1.0,1.0,1.0
52.13,16.5056,1.0,1.0,1.0
52.14,43.4944,1.0,1.0,1.0
52.15,43.0111,1.0,1.0,1.0
52.16,64.0,1.0,1.0,1.0
52.17,42.0,1.0,1.0,1.0
52.18,44.4944,1.0,1.0,1.0
52.19,53.5056,1.0,1.0,1.0
52.2,20.0,1.0,1.0,1.0
52.21,42.0,1.0,1.0,1.0
52.22,44.0,1.0,1.0,1.0
52.23,44.0,1.0,1.0,1.0
52.24,36.0,1.0,1.0,1.0
52.25,30.0,1.0,1.0,1.0
52.26,30.9889,1.0,1.0,1.0
52.27,54.0111,1.0,1.0,1.0
52.28,38.4944,1.0,1.0,1.0
52.29,34.5056,1.0,1.0,1.0
52.3,35.0,1.0,1.0,1.0
52.31,42.0,1.0,1.0,1.0
52.32,30.9889,1.0,1.0,1.0
52.33,19.0,1.0,1.0,1.0
52.34,53.0111,1.0,1.0,1.0
52.35,29.0,1.0,1.0,1.0
52.36,50.0,1.0,1.0,1.0
52.37,51.9778,1.0,1.0,1.0
52.38,54.0222,1.0,1.0,1.0
52.39,52.0,1.0,1.0,1.0
52.4,45.9889,1.0,1.0,1.0
52.41,64.0111,1.0,1.0,1.0
52.42,41.0,1.0,1.0,1.0
52.43,39.4944,1.0,1.0,1.0
52.44,28.5056,1.0,1.0,1.0
52.45,34.0,1.0,1.0,1.0
52.46,29.0,1.0,1.0,1.0
52.47,43.0,1.0,1.0,1.0
52.48,36.9889,1.0,1.0,1.0
52.49,45.0111,1.0,1.0,1.0
52.5,34.4944,1.0,1.0,1.0
52.51,43.0,1.0,1.0,1.0
52.52,39.5056,1.0,1.0,1.0
52.53,33.4944,1.0,1.0,1.0
52.54,41.5056,1.0,1.0,1.0
52.55,45.0,1.0,1.0,1.0
52.56,42.0,1.0,1.0,1.0
52.57,38.0,1.0,1.0,1.0
52.58,44.4944,1.0,1.0,1.0
52.59,41.9889,1.0,1.0,1.0
52.6,35.5167,1.0,1.0,1.0
52.61,45.4944,1.0,1.0,1.0
52.62,41.4944,1.0,1.0,1.0
52.63,34.0111,1.0,1.0,1.0
52.64,29.0,1.0,1.0,1.0
52.65,34.0,1.0,1.0,1.0
52.66,37.4944,1.0,1.0,1.0
52.67,29.0,1.0,1.0,1.0
52.68,45.0,1.0,1.0,1.0
52.69,34.5056,1.0,1.0,1.0
52.7,43.4944,1.0,1.0,1.0
52.71,37.0,1.0,1.0,1.0
52.72,37.5056,1.0,1.0,1.0
52.73,29.9889,1.0,1.0,1.0
52.74,47.5056,1.0,1.0,1.0
52.75,41.0,1.0,1.0,1.0
52.76,27.5056,1.0,1.0,1.0
52.77,31.4944,1.0,1.0,1.0
52.78,41.0,1.0,1.0,1.0
52.79,43.0,1.0,1.0,1.0
52.8,45.0,1.0,1.0,1.0
52.81,32.5056,1.0,1.0,1.0
52.82,33.0,1.0,1.0,1.0
52.83,48.0,1.0,1.0,1.0
52.84,33.0,1.0,1.0,1.0
52.85,50.0,1.0,1.0,1.0
52.86,28.4944,1.0,1.0,1.0
52.87,25.5056,1.0,1.0,1.0
52.88,39.0,1.0,1.0,1.0
52.89,43.0,1.0,1.0,1.0
52.9,41.9889,1.0,1.0,1.0
52.91,43.5056,1.0,1.0,1.0
52.92,44.0,1.0,1.0,1.0
52.93,36.0,1.0,1.0,1.0
52.94,54.0,1.0,1.0,1.0
52.95,40.5056,1.0,1.0,1.0
52.96,30.0,1.0,1.0,1.0
52.97,40.9889,1.0,1.0,1.0
52.98,44.0,1.0,1.0,1.0
52.99,55.5056,1.0,1.0,1.0
53.0,39.5056,1.0,1.0,1.0
53.01,34.0,1.0,1.0,1.0
53.02,25.9889,1.0,1.0,1.0
53.03,40.0,1.0,1.0,1.0
53.04,33.5056,1.0,1.0,1.0
53.05,46.5056,1.0,1.0,1.0
53.06,43.0,1.0,1.0,1.0
53.07,37.4944,1.0,1.0,1.0
53.08,51.4944,1.0,1.0,1.0
53.09,42.0111,1.0,1.0,1.0
53.1,38.0,1.0,1.0,1.0
53.11,36.0,1.0,1.0,1.0
53.12,39.9778,1.0,1.0,1.0
53.13,42.5167,1.0,1.0,1.0
53.14,38.4944,1.0,1.0,1.0
53.15,50.0111,1.0,1.0,1.0
53.16,38.9778,1.0,1.0,1.0
53.17,43.5167,1.0,1.0,1.0
53.18,35.5056,1.0,1.0,1.0
53.19,32.4944,1.0,1.0,1.0
53.2,53.5056,1.0,1.0,1.0
53.21,23.0,1.0,1.0,1.0
53.22,34.0,1.0,1.0,1.0
53.23,32.0,1.0,1.0,1.0
53.24,34.9889,1.0,1.0,1.0
53.25,52.0111,1.0,1.0,1.0
53.26,39.4944,1.0,1.0,1.0
53.27,35.4944,1.0,1.0,1.0
53.28,33.0,1.0,1.0,1.0
53.29,34.0111,1.0,1.0,1.0
53.3,37.0,1.0,1.0,1.0
53.31,11.4944,1.0,1.0,1.0
53.32,46.0,1.0,1.0,1.0
53.33,33.5056,1.0,1.0,1.0
53.34,27.0,1.0,1.0,1.0
53.35,36.4944,1.0,1.0,1.0
53.36,34.4944,1.0,1.0,1.0
53.37,34.0111,1.0,1.0,1.0
53.38,37.0,1.0,1.0,1.0
53.39,23.4944,1.0,1.0,1.0
53.4,56.5056,1.0,1.0,1.0
53.41,37.4944,1.0,1.0,1.0
53.42,32.5056,1.0,1.0,1.0
53.43,35.0,1.0,1.0,1.0
53.44,44.9889,1.0,1.0,1.0
53.45,40.0111,1.0,1.0,1.0
53.46,45.9889,1.0,1.0,1.0
53.47,49.0111,1.0,1.0,1.0
53.48,54.0,1.0,1.0,1.0
53.49,32.0,1.0,1.0,1.0
53.5,39.4944,1.0,1.0,1.0
53.51,38.5056,1.0,1.0,1.0
53.52,26.0,1.0,1.0,1.0
53.53,38.4944,1.0,1.0,1.0
53.54,24.0,1.0,1.0,1.0
53.55,30.0,1.0,1.0,1.0
53.56,35.5056,1.0,1.0,1.0
53.57,38.4944,1.0,1.0,1.0
53.58,37.5056,1.0,1.0,1.0
53.59,36.0,1.0,1.0,1.0
53.6,45.0,1.0,1.0,1.0
53.61,44.0,1.0,1.0,1.0
53.62,29.0,1.0,1.0,1.0
53.63,50.4944,1.0,1.0,1.0
53.64,49.5056,1.0,1.0,1.0
53.65,38.0,1.0,1.0,1.0
53.66,45.4944,1.0,1.0,1.0
53.67,33.5056,1.0,1.0,1.0
53.68,31.0,1.0,1.0,1.0
53.69,50.9889,1.0,1.0,1.0
53.7,48.5056,1.0,1.0,1.0
53.71,34.4944,1.0,1.0,1.0
53.72,44.0111,1.0,1.0,1.0
53.73,48.0,1.0,1.0,1.0
53.74,36.4944,1.0,1.0,1.0
53.75,28.5056,1.0,1.0,1.0
53.76,41.0,1.0,1.0,1.0
53.77,31.4944,1.0,1.0,1.0
53.78,43.5056,1.0,1.0,1.0
53.79,26.9889,1.0,1.0,1.0
53.8,24.0111,1.0,1.0,1.0
53.81,45.4944,1.0,1.0,1.0
53.82,47.0,1.0,1.0,1.0
53.83,38.5056,1.0,1.0,1.0
53.84,44.0,1.0,1.0,1.0
53.85,44.0,1.0,1.0,1.0
53.86,52.0,1.0,1.0,1.0
53.87,30.4944,1.0,1.0,1.0
53.88,40.0,1.0,1.0,1.0
53.89,31.5056,1.0,1.0,1.0
53.9,48.0,1.0,1.0,1.0
53.91,48.4944,1.0,1.0,1.0
53.92,45.5056,1.0,1.0,1.0
53.93,32.0,1.0,1.0,1.0
53.94,43.0,1.0,1.0,1.0
53.95,45.0,1.0,1.0,1.0
53.96,22.4944,1.0,1.0,1.0
53.97,36.5056,1.0,1.0,1.0
53.98,39.0,1.0,1.0,1.0
53.99,43.4944,1.0,1.0,1.0
54.0,41.0,1.0,1.0,1.0