File: XRD:XRR/SCO/22167_SL(CO)L/22167_SL(CO)L_XRD_2-Theta_Omega.asc
*TYPE		=  Raw
*CLASS		=  ASCII CLASS
*SAMPLE		=
*COMMENT	=
*FNAME		=  22167_SL(CO)L_XRD_2-Theta_Omega.asc
*DATE		=  08-Dec-22 03:07

*GROUP_COUNT	=  1
*GONIO		=  SmartLab(In-plane), 0.000000
*ATTACHMENT	=  Z-Phi Stage
*ASC		=  0, 0, 0.000000, 0.000000
*I_MONOCHRO	=  Ge(220)x2, 0.000000
*FILTER		=  None
*C_MONOCHRO	=  None, 0.000000
*SLIT_NAME	=  0, Incident slit
*SLIT_NAME	=  1, Receiving slit # 1
*SLIT_NAME	=  2, Receiving slit # 2
*COUNTER	=  D/teX Ultra 250, 0
*POS_FORMAT	=  0
*SCAN_AXIS	=  2Theta/Omega
*MEAS_MODE	=  Continuous Scanning
*TARGET		=  29
*XRAY_CHAR	=  K-ALPHA1
*WAVE_LENGTH1	=  1.54059
*WAVE_LENGTH2	=  1.54441
*THICKNESS	=  0, 0.000000
*MU		=  0, 0.000000
*SCAN_MODE	=  2Theta/Omega
*SPEED_DIM	=  sec./step
*XUNIT		=  deg.
*YUNIT		=  counts
*SCALE_MODE	=  1
*REP_COUNT	=  0
*SE_COUNT	=  0
*STD_MATERIAL	=  Unknown, Unknown, 0.000000, 0.000000, 0.000000, 0.000000, 0.000000, 0.000000
*LATT_CONS	=  0, Unknown, Unknown, 0.000000, 0.000000, 0.000000, 0.000000, 0.000000, 0.000000
*SEC_COUNT	=  1
*TSPEC_SIZE	=  0
*EXTRA_SIZE	=  0
*MEMO		=

*BEGIN
*GROUP		=  0
*START		=  40
*STOP		=  54
*STEP		=  0.01
*OFFSET		=  -0.108200
*SPEED		=  22.1803
*SLIT_SPEC	=  0, 0.600mm, 0.6, 0.000000
*SLIT_SPEC	=  1, 0.600mm, 0.6, 0.000000
*SLIT_SPEC	=  2, 0.600mm, 0.6, 0.000000
*KV		=  40
*MA		=  30
*LOW		=  0.000000
*HIGH		=  0.000000
*CTEMPER	=  0, 0.000000
*CTEMPER	=  1, 0.000000
*CTEMPER	=  2, 0.000000
*PAREX		=  0, 0.000000
*PAREX		=  1, 0.000000
*PAREX		=  2, 0.000000
*PAREX		=  3, 0.000000
*PAREX		=  4, 0.000000
*PAREX		=  5, 0.000000
*PAREX		=  6, 0.000000
*PAREX		=  7, 0.000000
*PAREX		=  8, 0.000000
*PAREX		=  9, 0.000000
*PAREX		=  10, 0.000000
*PAREX		=  11, 0.000000
*PAREX		=  12, 0.000000
*PAREX		=  13, 0.000000
*PAREX		=  14, 0.000000
*PAREX		=  15, 0.000000
*FULL_SCALE	=  2377375.3
*INDEX		=  0, 0, 0
*COUNT		=  1401
51.0111, 74, 46.4944, 47.4944
53, 51, 44.9889, 52.0222
48.9889, 65.0111, 56.9889, 49.0111
50.4833, 63.0111, 45.4944, 42.4944
53.0111, 57.9889, 59.5167, 61.4944
58.5056, 51.9889, 38.0111, 58
50.4944, 51, 50, 45.5056
40, 57.4944, 50, 49.5056
74.9778, 49.0222, 54, 61.9889
69.0111, 49.9889, 62.5056, 51.5056
61.4944, 51.4944, 53, 66.5056
69, 65.5056, 49.9889, 48.0111
49, 47.4944, 65.5056, 68.4944
35.5056, 23.4944, 33.5056, 49.9778
56.0111, 49.0111, 48.4944, 53.4944
69, 66.5056, 54, 74.9889
59.5056, 71, 51, 62.0111
56.4833, 58.5056, 64.5056, 52
38.5056, 53, 68.4944, 66.5056
61.4944, 55.5056, 50.9889, 72.0111
44.9889, 56.4944, 52.5167, 57.9889
45.0111, 39, 76.9889, 51.0111
62.4944, 56.5056, 44.4944, 85.4944
56.0111, 64.4944, 55.4944, 57
54.4944, 61.5167, 56, 54.9889
60.0111, 64, 50, 60.4944
63, 36.5056, 38, 58.4833
57.5167, 54.4944, 67.5056, 37.4944
60.9889, 56.5167, 71.4944, 51.4944
70.0111, 54.4944, 73.4944, 55.0111
65, 66, 38.9889, 74
60.0111, 56.4833, 68, 53.0111
53, 37.4944, 70.5056, 46.9889
51.5167, 40.4944, 52.4944, 57.0111
39.9889, 67.5056, 53, 54.5056
58, 63.4944, 48, 56.5056
65, 57.4944, 34.5056, 50.4833
77.0111, 57.4833, 65.5167, 58.4944
51.4944, 51.0111, 48.4944, 55.0111
67.4944, 57.5056, 41.9889, 53
65.0111, 66, 68, 68
55.4944, 60.5056, 42.4944, 46.5056
62.9889, 56.5056, 55.9889, 51.0111
51.9889, 56, 72.5167, 67.4944
41, 68.5056, 64.9889, 67
77.0111, 62.9889, 70.0111, 37.4944
54, 39, 51.5056, 38.9889
53.5056, 67, 63.4944, 40.4944
59.5167, 55.4944, 56, 48
55.4833, 61.5167, 65.4944, 77
68, 37, 67.0111, 50
68, 49.9889, 63, 66.5056
71.9889, 46.5167, 52.4944, 64.5056
36, 55.4944, 68, 71.4944
42.0111, 59.9889, 73.0111, 48
68.9889, 66.5056, 67.5056, 66
56.4944, 55.4944, 68.5056, 60
60, 69, 73.4944, 39.5056
56, 39.4944, 63.5056, 72
62.4944, 54.0111, 44.9889, 78.5056
60.5056, 63, 66, 38.4944
61, 59.4944, 56.5056, 60
70.9889, 55.4944, 67.5056, 52.5167
68.4944, 70, 63, 56.4833
57.5167, 53.5056, 57, 65.4944
52.4944, 52.5056, 59.5056, 65.9778
48.0222, 67, 79.9889, 68
67, 53.0111, 56.4944, 75.5056
63.4944, 72, 69.4944, 60.0111
66, 70, 60.4944, 66.9889
74.5167, 78.4944, 91, 98.9889
50.0111, 66.4833, 85.5167, 77.5056
78, 80, 57.4944, 95.5056
81.9889, 76.9889, 109.011, 93
93.9889, 94.5056, 103, 94.5056
101, 91.0111, 86.9778, 119.022
104.483, 118, 109, 113.494
126.022, 113.494, 93.9889, 114.506
113, 98, 130.494, 123
131.506, 105.506, 139, 107.506
133, 139.978, 112.022, 120.494
129.483, 133.506, 125.011, 89.9778
110.022, 121.494, 99.4833, 132.022
93.4944, 88, 108.494, 91.0111
91.4944, 99.5056, 107.483, 104
94.0222, 92.9778, 111.494, 80.5167
93, 89, 92, 91.4944
110.011, 108.494, 88.0111, 101.483
88.5056, 102.483, 108.528, 102
89, 86.9889, 101.011, 96.4944
102, 90.5056, 82.4833, 98
113.494, 86, 68, 97.0222
87.4944, 71.5056, 77.4833, 66.4833
84.0222, 78.4944, 73.0111, 72.5056
90.4833, 77.0111, 64, 79
86, 77.5056, 77, 65
57.9889, 68.0111, 60.9889, 73.4944
63.5056, 65.0111, 72.4833, 90.5056
81, 69.4944, 77.0111, 77.4944
45.4944, 81.0111, 59.5056, 101.989
82.5056, 69.5056, 77.9889, 93
88.5056, 73.5056, 87, 84.9889
90, 94.5056, 111.506, 79.4833
154.011, 93.4944, 129.011, 113.483
142, 144, 156.506, 194.494
161.506, 172, 183, 174.494
187.494, 193.506, 207.989, 224.528
195.483, 198.506, 250.978, 215
226.517, 219.483, 213.517, 245.506
271.472, 273.989, 231.022, 241.506
259.011, 250.967, 231.539, 252
225.483, 235.978, 236.033, 214.989
235.956, 198.539, 200.022, 209.472
200.022, 187.967, 210.022, 182.011
165.461, 202.517, 187.011, 210.494
222.517, 219.978, 246.517, 244.978
232.494, 281.517, 293.494, 272.494
298.989, 241.022, 294.483, 276.528
273.989, 294.978, 340.494, 334
360.989, 320.022, 304.011, 329
308.011, 334.506, 305.989, 338.483
345.011, 340.506, 414, 373
476.461, 446.967, 478.067, 477.472
508.506, 534.978, 568.011, 616.011
612.483, 685.506, 717, 718
846.956, 895.472, 950.528, 1008
1061.99, 1157.01, 1311.44, 1325.52
1439.99, 1544.02, 1701.9, 1848.53
1831.48, 1988.52, 2029.98, 2269.99
2382.01, 2585.02, 2626.43, 2885.93
2848.48, 3074.02, 3209.87, 3330.07
3554.97, 3735.97, 3876.63, 3978.91
4087.42, 4249.57, 4304.55, 4556.79
4722.61, 4749.53, 4679.45, 4854.39
4965.17, 4863.02, 5091.79, 4938.51
4987.16, 4831.48, 4888.92, 4874.09
4845.55, 4852.46, 4541.04, 4629.38
4395.11, 4323.51, 4260.54, 4073.59
3878.9, 3825.98, 3671, 3647.07
3377, 3273.91, 3244.17, 3148.42
3225.55, 3109.02, 3079.53, 3124.87
3225, 3122.07, 3259.52, 3247.98
3328.98, 3288.99, 3381.02, 3496.92
3415.59, 3297.44, 3519.55, 3369.01
3388.34, 3319.17, 3377, 3210.43
3078.09, 2994.01, 2863.99, 2682.64
2618.91, 2557.93, 2598.06, 2545.48
2380.98, 2388.49, 2420.62, 2350.86
2380.07, 2330.08, 2456.93, 2464.96
2559.06, 2590.97, 2631.52, 2674.94
2925.55, 2963.45, 3180.42, 3261.93
3491.04, 3523.08, 3987.44, 4115.96
4503.42, 4801.45, 5071.04, 5370.99
5600.35, 6044.1, 6448.96, 7050.41
7466.51, 7765.31, 8343.03, 8952.44
9376.41, 10021.9, 10616.9, 11268.9
11813.4, 12548.3, 13053.7, 13411.7
14202.4, 15118.1, 16026.9, 16204
17008.9, 17641.2, 18242.2, 18882.3
19640.5, 20324.3, 20987, 21010.5
21768.2, 22123.5, 22361.3, 22526.8
22881.3, 23062.2, 22997, 22623.8
23095.3, 22580.5, 22685.5, 22480
22202.3, 21815.8, 21352, 20558.7
20375.4, 19507.2, 19145.6, 18249.5
17859.6, 17393.5, 16558.5, 16028.2
15229.1, 15001, 14492, 14002.1
13834.1, 13177.8, 13033.8, 12622.4
12803.5, 12339, 12317.5, 12341.9
12204.5, 11886.6, 12253.5, 11927
11886, 11891.5, 11633, 11588
11517.1, 11141, 10996.5, 10591.5
10345.1, 9856.2, 9678.43, 8919.91
8630.58, 8525.49, 7927.64, 7549.56
7201.53, 6764.01, 6337.01, 6055.66
5495.94, 5490.06, 5039.53, 4895.53
4555.96, 4324.52, 4156.1, 3928.49
3700.49, 3604.67, 3399.9, 3154.53
2964.98, 2768.57, 2799.54, 2470.98
2500.02, 2495.52, 2280.48, 2111.52
2064.06, 1974.49, 1816.54, 1800.46
1685.02, 1618.48, 1536.07, 1572.93
1364.09, 1321.47, 1249.52, 1175.99
1102.53, 1063.46, 1057.53, 949.989
988.539, 882.517, 814.506, 800.417
811.022, 826.55, 814.978, 814.506
823.989, 891.022, 936.933, 1022.52
1127.51, 1239.49, 1345.43, 1470.53
1637.54, 1873.38, 2078.48, 2339.02
2481.92, 2796.93, 3031, 3273.55
3682.91, 3956.47, 4191.96, 4505.96
4803.44, 5134.1, 5409.96, 5768.94
6124.42, 6372.92, 6650.46, 6986.42
7353.57, 7857.35, 8135.58, 8506.8
9136.48, 10080, 10822.9, 12070.8
13800.7, 15515.7, 19020.3, 23392.5
29079.7, 35178.8, 43220.5, 53583.8
66424.7, 85532.7, 112970, 154586
223860, 352095, 695254, 1361261.6
2828473.8, 19907008, 37511668, 9095284
1792856, 862305, 525195, 349031
242273, 172137, 124831, 93477.8
70630.2, 53796.8, 41111.5, 31585.9
24556.4, 19855.4, 16002.2, 13010.6
10615.9, 8721.75, 7189.71, 6015.02
5139.67, 4490.44, 3984.55, 3479.54
3080.65, 2835.45, 2488.04, 2219.06
2023.98, 1882.04, 1688.55, 1644.47
1462.52, 1424, 1303.51, 1224.51
1073.47, 1055.09, 1014.49, 970.967
973.011, 837.989, 907.033, 861.989
824.978, 750.528, 801.956, 770.55
753.989, 697.528, 693.483, 676.022
657.517, 719.956, 651.011, 669.472
666.517, 680.539, 682.967, 600.494
622.517, 650.517, 581.472, 598.022
563.472, 603.056, 548.494, 570
506.978, 529.472, 492.033, 477.506
502.011, 484.506, 440.494, 487.483
421.483, 433.989, 409.044, 452
384.022, 369.494, 385.956, 354.528
395.978, 366.011, 380.483, 357.011
403.011, 336.494, 382.517, 352.494
367.506, 343.494, 302.011, 318
325.967, 300.539, 349.978, 338.011
284.022, 276.989, 281, 315
258.506, 262.506, 290.989, 229
226.494, 229.472, 247.033, 221
215, 211.494, 202, 205.528
196.967, 189.506, 178.528, 167.483
159.506, 164.978, 165.506, 151.528
156.472, 140.011, 131.011, 145.494
142.494, 141, 127.011, 100.989
128.506, 115.494, 123.011, 117.506
106.978, 103, 100.517, 92.4944
105, 102, 93.5056, 106.978
98.5056, 85.0111, 120.506, 119.989
70.0111, 82, 68.5056, 101
102.989, 86, 87.5056, 93
56, 83, 94.9889, 105
75.0111, 88, 79.4944, 80.5056
84.9889, 76.5167, 93.9889, 81.4944
80, 72.0111, 70.4944, 68.0111
80.9889, 66.0111, 85.4944, 81.5056
61.4944, 72.9889, 84.0111, 72.9889
72.4944, 79.5167, 81, 61.4944
86.4944, 74.5056, 59.5056, 53.9889
82.0111, 88.5056, 80.4944, 78.5056
78.9889, 77, 78.5056, 77.5056
70.4944, 56.5056, 75.9889, 68.5056
92, 57.4944, 51, 67.0111
78.4944, 70, 67, 59
58.5056, 46.4944, 66, 63
79.4944, 38, 65.5056, 54.9889
60.5056, 62.0111, 66.4944, 64
57.4944, 58.4944, 70.5056, 54.0111
51.4944, 59, 49, 53
32, 55.5056, 46, 51.9889
55.0111, 45, 49.9889, 68
49.0111, 41, 60, 62.4944
74.5056, 54.4944, 47.5056, 55.4944
62, 64, 71.4944, 59.0111
51.4944, 59.5056, 60.9889, 66.0111
64.4944, 56.9889, 56.0111, 59
57.5056, 62, 59, 42.9889
81, 70, 61.0111, 63.4944
63, 35.9889, 66.0111, 66.5056
45, 66.9889, 43.5056, 53.5056
62.9889, 53.5056, 59.4944, 47.4944
66.5167, 53.4944, 57, 55
59, 65, 37.9889, 47.0111
35.5056, 40, 53.4944, 61
47.5056, 48.4944, 45, 55
59.4944, 56, 42.5056, 51.5056
37.9889, 48.4944, 59.0111, 47
61, 52.5056, 49, 32.4944
52.5056, 30, 57.4944, 61
58, 60.5056, 56.9889, 53.0111
70, 43.4944, 41.5056, 44.9889
53, 62, 48.5056, 52.5056
72.4944, 35, 44.4944, 44.0111
42.9889, 43.5056, 54.9889, 52.0111
36, 44.9889, 55.5167, 51
38, 28, 51, 55.4944
73.4944, 47.0111, 49, 46.9889
57.9889, 47.0222, 51.9889, 44.5056
51, 49, 57.5056, 41
48, 57, 41.4944, 47.5056
49.4944, 38.4944, 55, 56.0111
43.4833, 47.0111, 40.5056, 41
53.4944, 56.9889, 44.5167, 47
41.4944, 25.5056, 44.9889, 66.5056
37.5056, 46.4944, 47.4944, 39.0111
48.4944, 42, 35.5056, 38
52, 55.9889, 58.0111, 63
54.9889, 42.5056, 43, 45.5056
46.9889, 46.0111, 59.9889, 34.0111
50.4944, 60.5056, 46.9889, 38.0111
48, 43.9889, 38.0111, 44.4944
41.5056, 54, 49.4833, 43.5167
35.4833, 52.5167, 46, 47.4944
44.5056, 43, 41, 40
30, 33.4944, 44.5056, 49
35.9889, 16.5056, 43.4944, 43.0111
64, 42, 44.4944, 53.5056
20, 42, 44, 44
36, 30, 30.9889, 54.0111
38.4944, 34.5056, 35, 42
30.9889, 19, 53.0111, 29
50, 51.9778, 54.0222, 52
45.9889, 64.0111, 41, 39.4944
28.5056, 34, 29, 43
36.9889, 45.0111, 34.4944, 43
39.5056, 33.4944, 41.5056, 45
42, 38, 44.4944, 41.9889
35.5167, 45.4944, 41.4944, 34.0111
29, 34, 37.4944, 29
45, 34.5056, 43.4944, 37
37.5056, 29.9889, 47.5056, 41
27.5056, 31.4944, 41, 43
45, 32.5056, 33, 48
33, 50, 28.4944, 25.5056
39, 43, 41.9889, 43.5056
44, 36, 54, 40.5056
30, 40.9889, 44, 55.5056
39.5056, 34, 25.9889, 40
33.5056, 46.5056, 43, 37.4944
51.4944, 42.0111, 38, 36
39.9778, 42.5167, 38.4944, 50.0111
38.9778, 43.5167, 35.5056, 32.4944
53.5056, 23, 34, 32
34.9889, 52.0111, 39.4944, 35.4944
33, 34.0111, 37, 11.4944
46, 33.5056, 27, 36.4944
34.4944, 34.0111, 37, 23.4944
56.5056, 37.4944, 32.5056, 35
44.9889, 40.0111, 45.9889, 49.0111
54, 32, 39.4944, 38.5056
26, 38.4944, 24, 30
35.5056, 38.4944, 37.5056, 36
45, 44, 29, 50.4944
49.5056, 38, 45.4944, 33.5056
31, 50.9889, 48.5056, 34.4944
44.0111, 48, 36.4944, 28.5056
41, 31.4944, 43.5056, 26.9889
24.0111, 45.4944, 47, 38.5056
44, 44, 52, 30.4944
40, 31.5056, 48, 48.4944
45.5056, 32, 43, 45
22.4944, 36.5056, 39, 43.4944
41
*END

*EOF