File: XRD:XRR/SCO/22167_SL(CO)L/22167_SL(CO)L_XRD_001_2-Theta_Omega.asc
*TYPE		=  Raw
*CLASS		=  ASCII CLASS
*SAMPLE		=
*COMMENT	=
*FNAME		=  22167_SL(CO)L_XRD_001_2-Theta_Omega.asc
*DATE		=  08-Dec-22 17:02

*GROUP_COUNT	=  1
*GONIO		=  SmartLab(In-plane), 0.000000
*ATTACHMENT	=  Z-Phi Stage
*ASC		=  0, 0, 0.000000, 0.000000
*I_MONOCHRO	=  Ge(220)x2, 0.000000
*FILTER		=  None
*C_MONOCHRO	=  None, 0.000000
*SLIT_NAME	=  0, Incident slit
*SLIT_NAME	=  1, Receiving slit # 1
*SLIT_NAME	=  2, Receiving slit # 2
*COUNTER	=  D/teX Ultra 250, 0
*POS_FORMAT	=  0
*SCAN_AXIS	=  2Theta/Omega
*MEAS_MODE	=  Continuous Scanning
*TARGET		=  29
*XRAY_CHAR	=  K-ALPHA1
*WAVE_LENGTH1	=  1.54059
*WAVE_LENGTH2	=  1.54441
*THICKNESS	=  0, 0.000000
*MU		=  0, 0.000000
*SCAN_MODE	=  2Theta/Omega
*SPEED_DIM	=  sec./step
*XUNIT		=  deg.
*YUNIT		=  counts
*SCALE_MODE	=  1
*REP_COUNT	=  0
*SE_COUNT	=  0
*STD_MATERIAL	=  Unknown, Unknown, 0.000000, 0.000000, 0.000000, 0.000000, 0.000000, 0.000000
*LATT_CONS	=  0, Unknown, Unknown, 0.000000, 0.000000, 0.000000, 0.000000, 0.000000, 0.000000
*SEC_COUNT	=  1
*TSPEC_SIZE	=  0
*EXTRA_SIZE	=  0
*MEMO		=

*BEGIN
*GROUP		=  0
*START		=  17
*STOP		=  29
*STEP		=  0.01
*OFFSET		=  -0.111800
*SPEED		=  22.1803
*SLIT_SPEC	=  0, 0.400mm, 0.4, 0.000000
*SLIT_SPEC	=  1, 0.400mm, 0.4, 0.000000
*SLIT_SPEC	=  2, 0.400mm, 0.4, 0.000000
*KV		=  40
*MA		=  30
*LOW		=  0.000000
*HIGH		=  0.000000
*CTEMPER	=  0, 0.000000
*CTEMPER	=  1, 0.000000
*CTEMPER	=  2, 0.000000
*PAREX		=  0, 0.000000
*PAREX		=  1, 0.000000
*PAREX		=  2, 0.000000
*PAREX		=  3, 0.000000
*PAREX		=  4, 0.000000
*PAREX		=  5, 0.000000
*PAREX		=  6, 0.000000
*PAREX		=  7, 0.000000
*PAREX		=  8, 0.000000
*PAREX		=  9, 0.000000
*PAREX		=  10, 0.000000
*PAREX		=  11, 0.000000
*PAREX		=  12, 0.000000
*PAREX		=  13, 0.000000
*PAREX		=  14, 0.000000
*PAREX		=  15, 0.000000
*FULL_SCALE	=  1022371.8
*INDEX		=  0, 0, 0
*COUNT		=  1201
39, 28, 29.496, 19
49.008, 21.992, 29, 33
35, 32, 28.504, 29.496
44, 35, 27.008, 36.992
30, 29.008, 43.496, 26
46.496, 46, 26.504, 34
33, 39.504, 23.992, 44.504
34.496, 42.504, 42.008, 28.992
40.496, 18, 39, 26
22.504, 26.496, 47, 29
23, 38, 26, 35
47, 34, 25, 50
43.504, 40, 47.504, 48
26.992, 21, 25, 36.504
41.496, 46, 36, 29
36.504, 47.496, 44, 50
33, 23.504, 48.496, 49.504
41.008, 46.4881, 30.008, 51.992
39.5119, 46.992, 31, 36.496
57.504, 48.496, 37.008, 38
33.992, 44.504, 43.496, 40.5119
43.992, 38, 47.496, 42.504
37.496, 58, 42, 30
38, 44, 54.008, 52.008
48.9841, 30, 39.504, 44.496
44, 39.008, 39.992, 39.504
47.496, 46, 40, 48.504
48, 47, 55.504, 44.496
31, 43.496, 33, 39.008
46.992, 31, 43.504, 42
32.496, 47.504, 32.496, 34.5119
30.4881, 39.008, 46.992, 39
46, 41, 34, 16.504
29, 29, 35.496, 43
31, 32, 45.504, 39.496
35.008, 45.992, 43.504, 45.496
42, 40.0159, 40.9841, 39
32.504, 34.504, 15.992, 36
37.5119, 63.992, 28.496, 26
23, 29, 37.504, 45
39.496, 41, 44, 32
37.504, 28.496, 34.504, 45.496
31.504, 32, 30.496, 43
37, 44, 20, 46.504
34.008, 34.992, 45, 57
48, 30.496, 29, 42
41, 22.504, 41, 23.496
55.504, 40.504, 25.496, 32
35.496, 37, 25.5119, 42.992
39, 39, 40.496, 31.504
45.504, 36.496, 31.504, 49.992
40.008, 50, 57.992, 42.008
24, 15.992, 45.5119, 37.992
31.496, 34, 49, 48
38, 27.504, 41.496, 52
53.5119, 37.992, 39.496, 51.008
37, 49, 32.992, 35.504
57.008, 35.4881, 47.504, 38.504
27, 31.992, 27, 39
34.504, 44.496, 43.504, 47.496
38.504, 36.504, 42.496, 41
41.504, 43.992, 51, 45
48, 53, 42.504, 54
40.496, 38, 44, 36.008
47, 54.496, 37.496, 37.008
64, 53.496, 67.504, 42.992
60.504, 51.496, 59.008, 59.504
85.496, 82, 68.992, 53.008
48.496, 67.496, 56.504, 64.5119
91.4881, 88.496, 115, 105.512
73, 92.992, 101.504, 93.992
108.512, 101.488, 110.016, 116.984
102.512, 104.992, 112.504, 120.992
95.008, 100.496, 92.496, 97.504
75, 89, 69.504, 75.496
71.504, 60.504, 60.504, 59.496
45, 62.992, 63.496, 52.008
77.496, 54.504, 53.992, 52.008
40.992, 44.008, 41.992, 38.504
53, 44.496, 44, 32.504
48.496, 39.5119, 43.4881, 46.504
35.496, 62.0159, 42.4881, 31.496
44.504, 50.496, 38, 37
28.008, 40, 24.992, 41
40, 24.504, 37.496, 37
36, 27, 23.008, 43.496
32.496, 35.008, 35.496, 34
42.5119, 30.4881, 23.496, 43
59, 39, 51.504, 37.496
28, 39.504, 39.504, 50.992
40.008, 32.992, 37.504, 36.504
48.496, 54.504, 45.496, 56.008
55.992, 60, 58.496, 61
52.504, 55, 56, 68
65, 47.496, 57.008, 43.008
67.992, 49.992, 48.504, 48
64.504, 47.496, 54, 42.008
45.4881, 29, 55.008, 51.992
25.504, 33.496, 53, 39.504
33.496, 48, 47, 37.0159
46.992, 60.496, 55.496, 61
44, 56, 39, 43.504
49.496, 23, 54.008, 52.992
44.504, 49.504, 46.496, 38.496
54.504, 57.496, 50, 57.504
52.496, 61, 69.008, 74.992
58, 60.008, 76.504, 77.496
74.496, 64.504, 96.504, 52.4881
69.008, 73, 82.496, 101.008
120.992, 120.016, 151.496, 158.496
177.504, 173, 194.504, 191.016
234.504, 210.48, 204.496, 205.016
230.48, 247.008, 242.008, 305.504
314.992, 349.032, 367.992, 393.488
490.992, 489, 535.008, 594.52
657.496, 580.008, 703.016, 711.48
749.496, 715.016, 835.504, 833.992
918.52, 927.488, 1054.02, 1091.47
1214.02, 1265.56, 1463.45, 1621.53
1770.05, 1905.48, 1945.02, 2169.49
2196.02, 2334.01, 2486, 2475.98
2487.99, 2467.55, 2354.45, 2345.5
2245.51, 2085.98, 1854.99, 1742.53
1593.95, 1377.46, 1210.01, 1144.97
958.992, 783.472, 770.552, 713.968
665.488, 565.008, 539.472, 590.504
522.008, 561.512, 562.984, 595.016
507.48, 474.008, 430.984, 383.512
340.984, 299, 294.008, 275.488
254.992, 191, 159, 152
179.512, 184, 169.488, 194.52
221.496, 228, 222.992, 208.008
183.496, 187.992, 183.512, 209.488
195, 219.496, 175.52, 204.48
204.016, 249.512, 291.992, 295.504
343.504, 409, 441.528, 491.976
526.024, 580.992, 570.504, 613.488
652.488, 753.52, 740.008, 800.024
908.992, 997.496, 1064.5, 1214.02
1340.54, 1577.46, 1673.54, 1931.51
2050.54, 2237.44, 2403.57, 2699.52
2724.04, 2927.48, 3201.5, 3423.06
3545.02, 3884.96, 4121.07, 4327.05
4904.5, 5257.04, 5775.58, 6520.54
7037.04, 7515.94, 8181.16, 8744.99
9403.55, 9734.06, 10273.5, 10631.5
10654.6, 10516.9, 10538.7, 10170.9
9590.38, 9064.38, 8298.02, 7487.94
6789.5, 6084.81, 5156.01, 4675.47
4062.98, 3543.88, 3174.47, 3022.51
2881.55, 2908.41, 2945.05, 3037.5
3204.03, 3487.49, 3610.52, 3731.03
3714.02, 3685.49, 3658.99, 3546.94
3436.02, 3392.98, 3234.99, 3158
3245.49, 3168.54, 3391.5, 3430.99
3682.06, 3908.44, 4223.57, 4535.99
4886.95, 5239.08, 5829.59, 6298.1
6797.97, 7489.66, 7869.05, 8770.9
9797.66, 11078.6, 12905.7, 15418.2
18534.3, 23251.8, 30781.3, 41773.1
56957.4, 81798, 131123, 238355
543318, 1765208.9, 7286642.5, 16777524
11329776, 2245075.8, 569214, 296097
184666, 118695, 74969, 47554.9
30834.9, 21431.5, 15916.6, 11604.7
8898.39, 7022.81, 5746.92, 4861.97
4050.41, 3544.46, 3016.93, 2554.52
2332.95, 2080.51, 1845.52, 1692.41
1523.97, 1294.01, 1258.5, 1193.01
1044.46, 1020.55, 1000.5, 983
985.464, 987.544, 1017.97, 993.552
1052.96, 1069.52, 1111.49, 1042.02
998.464, 1020.5, 1037.53, 1062.99
940.496, 946.456, 833.512, 755.512
783.992, 711.48, 670.016, 599.992
583.488, 568.536, 521.96, 497.008
433.984, 414.504, 405.496, 423.512
348.992, 332.488, 286.008, 312.504
316.496, 255.992, 297.504, 276.496
278.512, 275.496, 289, 249.992
195.488, 209.016, 233.992, 219
168.496, 203, 188.512, 192.992
158, 178.52, 176.472, 150.008
154.008, 153.48, 147.016, 147.992
155.008, 141.992, 161, 145
134.504, 137, 133.504, 158.488
135.504, 161, 133.504, 134.504
160.488, 123.512, 133.488, 119
133.008, 122.504, 157.496, 148.504
133.504, 129.984, 121.504, 131.504
105, 126.496, 138.512, 136.488
132.008, 150.496, 124.496, 94.992
133.512, 136.512, 140.48, 100.008
118.496, 103.504, 103, 112
120, 95.008, 75.9841, 74
81, 67.008, 51, 63.4881
40.504, 38.504, 40.992, 45
29.008, 45, 31.496, 40.496
42.504, 25.496, 33, 43
43, 37, 33, 45
38, 45, 53.008, 35.496
41.504, 27.992, 38.504, 39.496
34.008, 51.992, 36, 45.008
45.496, 46, 29, 45.504
48.992, 44, 41, 23.504
50.504, 31.496, 34.008, 39.496
39, 29.992, 38, 44.504
43.496, 27, 48, 44
33, 15, 33, 41
24.008, 37, 28.992, 22.504
39, 42, 27.496, 29
40.504, 19, 23.496, 30
40, 22, 32, 26.504
25.496, 30, 12, 36.504
30.496, 29, 22, 20.504
23.496, 25.504, 14, 26
23.496, 21, 16, 12
12, 24.504, 12.496, 16.504
18.504, 13.992, 21.008, 14.992
30, 22, 36, 25
23.504, 21.496, 29, 35.504
31.496, 30.504, 43.504, 36.992
35, 20, 18, 45.008
34.496, 49.496, 25, 43.504
43.496, 24.008, 44.496, 29
17.496, 16, 28, 23
26.504, 17.504, 45.992, 36.504
13, 25, 19.496, 30
17, 24, 28, 9.50398
13.496, 18, 36, 23.008
25.992, 11, 25, 29.008
30.992, 23, 12.504, 20.496
33.504, 17.496, 20.008, 17.992
13, 17, 10, 34
25, 14, 30.504, 26
23.496, 18, 34, 16
17.504, 16, 14.496, 33.504
39.496, 18, 26, 21.504
40.504, 19.992, 8, 32.504
18.496, 33, 21.504, 24.496
22, 19.008, 33.992, 25
27, 25.504, 31.496, 30
17.504, 24, 16, 25.496
10, 19, 14, 31
30, 21.504, 23.496, 17
11, 22.008, 29.992, 9.51195
25.992, 13.496, 21, 23
26.504, 13.496, 10, 18
25, 20, 9, 17
11, 23, 10.504, 18.496
24, 13, 12, 22.504
12.496, 28.504, 9.49602, 14
15.504, 17.496, 12, 15
28, 21, 21, 21
16.504, 17.504, 27.496, 11.496
23, 20, 20, 18.504
22.496, 21.008, 21.992, 19
14, 20, 11, 25.504
13.496, 13, 12, 20
17, 16.504, 20.496, 8.50398
20.496, 9, 11, 7
23, 21.504, 17.496, 22
10, 13, 9.50398, 16
13, 19, 13.504, 22.496
6.49602, 20, 10, 21
13, 6, 15.008, 19.992
9, 15, 25.504, 17.496
10.504, 19.496, 11, 7
20, 26.504, 16.496, 17
22, 12, 13, 18
7, 13, 15, 15
20, 19.008, 7.99203, 7
7, 15, 19.008, 10.992
20, 7, 17, 20
12.504, 9.49602, 16, 9.00797
22.504, 12.4881, 11, 15.008
57.992, 26, 25, 10
15.504, 23.496, 9, 10.504
13.496, 15, 8, 12
14, 9, 13.504, 13.504
15.992, 20, 14, 13
14, 11, 6, 10
4, 12, 4.00797, 13.992
11, 17, 17.504, 20.496
21, 7.50398, 14.496, 13
34, 19.5119, 21.496, 28.992
10, 12, 18, 17.504
19.496, 18, 23, 5.50398
14.496, 17.008, 4.99203, 8
12, 31.504, 17.496, 10
14.504, 17.496, 15, 14.008
9.99203, 9, 8, 10
12, 9.50398, 8.49602, 10
0.000000, 8, 14, 14
16, 19, 17.5119, 14.992
20.496, 15, 13, 6
12, 5, 7, 7
8, 19.504, 13.496, 9
12, 13.504, 10.504, 19.992
26, 11, 11, 2
11
*END

*EOF