File: XRD:XRR/STO/22064_STON/22064_STON_XRD.csv
#twotheta, yobs, ycal, bkg, diff
42.0,36.9889,1.0,1.0,1.0
42.01,36.5056,1.0,1.0,1.0
42.02,60.4944,1.0,1.0,1.0
42.03,33.0111,1.0,1.0,1.0
42.04,51.0,1.0,1.0,1.0
42.05,34.0,1.0,1.0,1.0
42.06,42.0,1.0,1.0,1.0
42.07,47.4833,1.0,1.0,1.0
42.08,35.5167,1.0,1.0,1.0
42.09,40.0,1.0,1.0,1.0
42.1,41.0,1.0,1.0,1.0
42.11,45.0,1.0,1.0,1.0
42.12,40.4944,1.0,1.0,1.0
42.13,55.0,1.0,1.0,1.0
42.14,46.5056,1.0,1.0,1.0
42.15,52.0,1.0,1.0,1.0
42.16,53.4944,1.0,1.0,1.0
42.17,41.5056,1.0,1.0,1.0
42.18,24.0,1.0,1.0,1.0
42.19,45.0,1.0,1.0,1.0
42.2,27.4944,1.0,1.0,1.0
42.21,46.0,1.0,1.0,1.0
42.22,22.0,1.0,1.0,1.0
42.23,49.0,1.0,1.0,1.0
42.24,41.4944,1.0,1.0,1.0
42.25,44.5056,1.0,1.0,1.0
42.26,49.5056,1.0,1.0,1.0
42.27,40.4944,1.0,1.0,1.0
42.28,33.0,1.0,1.0,1.0
42.29,40.0,1.0,1.0,1.0
42.3,46.5056,1.0,1.0,1.0
42.31,46.9889,1.0,1.0,1.0
42.32,35.0,1.0,1.0,1.0
42.33,40.5056,1.0,1.0,1.0
42.34,63.0,1.0,1.0,1.0
42.35,55.0,1.0,1.0,1.0
42.36,44.4944,1.0,1.0,1.0
42.37,61.5056,1.0,1.0,1.0
42.38,48.5056,1.0,1.0,1.0
42.39,50.4944,1.0,1.0,1.0
42.4,46.5056,1.0,1.0,1.0
42.41,59.9889,1.0,1.0,1.0
42.42,61.4944,1.0,1.0,1.0
42.43,63.5167,1.0,1.0,1.0
42.44,80.4944,1.0,1.0,1.0
42.45,80.5056,1.0,1.0,1.0
42.46,67.4833,1.0,1.0,1.0
42.47,76.5167,1.0,1.0,1.0
42.48,62.0,1.0,1.0,1.0
42.49,80.4833,1.0,1.0,1.0
42.5,80.5056,1.0,1.0,1.0
42.51,55.0111,1.0,1.0,1.0
42.52,72.9889,1.0,1.0,1.0
42.53,68.0,1.0,1.0,1.0
42.54,76.5056,1.0,1.0,1.0
42.55,63.5056,1.0,1.0,1.0
42.56,65.4944,1.0,1.0,1.0
42.57,58.5056,1.0,1.0,1.0
42.58,40.0,1.0,1.0,1.0
42.59,80.4833,1.0,1.0,1.0
42.6,69.5056,1.0,1.0,1.0
42.61,69.0,1.0,1.0,1.0
42.62,58.0,1.0,1.0,1.0
42.63,70.0111,1.0,1.0,1.0
42.64,62.9889,1.0,1.0,1.0
42.65,53.5056,1.0,1.0,1.0
42.66,86.9889,1.0,1.0,1.0
42.67,89.5056,1.0,1.0,1.0
42.68,88.5056,1.0,1.0,1.0
42.69,93.0,1.0,1.0,1.0
42.7,82.0,1.0,1.0,1.0
42.71,72.9889,1.0,1.0,1.0
42.72,71.4944,1.0,1.0,1.0
42.73,89.0222,1.0,1.0,1.0
42.74,59.4833,1.0,1.0,1.0
42.75,89.5167,1.0,1.0,1.0
42.76,83.9889,1.0,1.0,1.0
42.77,99.9889,1.0,1.0,1.0
42.78,86.0222,1.0,1.0,1.0
42.79,90.4833,1.0,1.0,1.0
42.8,87.5167,1.0,1.0,1.0
42.81,64.0,1.0,1.0,1.0
42.82,70.0,1.0,1.0,1.0
42.83,69.0,1.0,1.0,1.0
42.84,86.4944,1.0,1.0,1.0
42.85,64.5056,1.0,1.0,1.0
42.86,69.4944,1.0,1.0,1.0
42.87,92.4722,1.0,1.0,1.0
42.88,77.5278,1.0,1.0,1.0
42.89,97.0,1.0,1.0,1.0
42.9,58.5056,1.0,1.0,1.0
42.91,75.4944,1.0,1.0,1.0
42.92,68.4944,1.0,1.0,1.0
42.93,77.5056,1.0,1.0,1.0
42.94,70.4833,1.0,1.0,1.0
42.95,93.5056,1.0,1.0,1.0
42.96,74.5056,1.0,1.0,1.0
42.97,49.5056,1.0,1.0,1.0
42.98,79.0,1.0,1.0,1.0
42.99,81.5056,1.0,1.0,1.0
43.0,72.4944,1.0,1.0,1.0
43.01,67.9889,1.0,1.0,1.0
43.02,64.0,1.0,1.0,1.0
43.03,80.5167,1.0,1.0,1.0
43.04,70.0,1.0,1.0,1.0
43.05,35.9778,1.0,1.0,1.0
43.06,57.0222,1.0,1.0,1.0
43.07,56.0,1.0,1.0,1.0
43.08,50.0,1.0,1.0,1.0
43.09,50.4944,1.0,1.0,1.0
43.1,58.5056,1.0,1.0,1.0
43.11,53.4944,1.0,1.0,1.0
43.12,64.0,1.0,1.0,1.0
43.13,34.0,1.0,1.0,1.0
43.14,67.4944,1.0,1.0,1.0
43.15,62.0,1.0,1.0,1.0
43.16,47.0,1.0,1.0,1.0
43.17,53.0,1.0,1.0,1.0
43.18,53.4944,1.0,1.0,1.0
43.19,54.5056,1.0,1.0,1.0
43.2,61.0,1.0,1.0,1.0
43.21,52.0111,1.0,1.0,1.0
43.22,53.0,1.0,1.0,1.0
43.23,47.4944,1.0,1.0,1.0
43.24,55.9889,1.0,1.0,1.0
43.25,50.5167,1.0,1.0,1.0
43.26,36.4944,1.0,1.0,1.0
43.27,54.4944,1.0,1.0,1.0
43.28,33.0111,1.0,1.0,1.0
43.29,51.4944,1.0,1.0,1.0
43.3,47.0,1.0,1.0,1.0
43.31,42.4944,1.0,1.0,1.0
43.32,62.0,1.0,1.0,1.0
43.33,60.0111,1.0,1.0,1.0
43.34,59.4944,1.0,1.0,1.0
43.35,50.5056,1.0,1.0,1.0
43.36,63.9889,1.0,1.0,1.0
43.37,54.0111,1.0,1.0,1.0
43.38,57.0,1.0,1.0,1.0
43.39,42.9889,1.0,1.0,1.0
43.4,61.0111,1.0,1.0,1.0
43.41,63.9889,1.0,1.0,1.0
43.42,60.0111,1.0,1.0,1.0
43.43,57.4833,1.0,1.0,1.0
43.44,60.5056,1.0,1.0,1.0
43.45,59.4833,1.0,1.0,1.0
43.46,36.5278,1.0,1.0,1.0
43.47,66.4944,1.0,1.0,1.0
43.48,61.9889,1.0,1.0,1.0
43.49,92.9889,1.0,1.0,1.0
43.5,94.0222,1.0,1.0,1.0
43.51,83.0,1.0,1.0,1.0
43.52,83.4944,1.0,1.0,1.0
43.53,69.5056,1.0,1.0,1.0
43.54,59.0,1.0,1.0,1.0
43.55,80.9889,1.0,1.0,1.0
43.56,106.0,1.0,1.0,1.0
43.57,91.5056,1.0,1.0,1.0
43.58,91.5056,1.0,1.0,1.0
43.59,78.4944,1.0,1.0,1.0
43.6,109.5056,1.0,1.0,1.0
43.61,94.9889,1.0,1.0,1.0
43.62,113.0111,1.0,1.0,1.0
43.63,103.0,1.0,1.0,1.0
43.64,126.4833,1.0,1.0,1.0
43.65,122.0,1.0,1.0,1.0
43.66,137.5167,1.0,1.0,1.0
43.67,131.0,1.0,1.0,1.0
43.68,116.9778,1.0,1.0,1.0
43.69,140.0111,1.0,1.0,1.0
43.7,171.0111,1.0,1.0,1.0
43.71,134.9778,1.0,1.0,1.0
43.72,170.0222,1.0,1.0,1.0
43.73,154.4944,1.0,1.0,1.0
43.74,170.0,1.0,1.0,1.0
43.75,135.9889,1.0,1.0,1.0
43.76,158.5056,1.0,1.0,1.0
43.77,143.0,1.0,1.0,1.0
43.78,167.4944,1.0,1.0,1.0
43.79,169.0,1.0,1.0,1.0
43.8,185.0,1.0,1.0,1.0
43.81,186.4944,1.0,1.0,1.0
43.82,194.0,1.0,1.0,1.0
43.83,163.0111,1.0,1.0,1.0
43.84,213.4833,1.0,1.0,1.0
43.85,198.0,1.0,1.0,1.0
43.86,193.0222,1.0,1.0,1.0
43.87,194.4944,1.0,1.0,1.0
43.88,185.0,1.0,1.0,1.0
43.89,210.0111,1.0,1.0,1.0
43.9,225.4833,1.0,1.0,1.0
43.91,185.9889,1.0,1.0,1.0
43.92,206.0111,1.0,1.0,1.0
43.93,207.0111,1.0,1.0,1.0
43.94,225.0,1.0,1.0,1.0
43.95,200.9889,1.0,1.0,1.0
43.96,196.4944,1.0,1.0,1.0
43.97,243.4833,1.0,1.0,1.0
43.98,235.5167,1.0,1.0,1.0
43.99,224.5056,1.0,1.0,1.0
44.0,224.9667,1.0,1.0,1.0
44.01,201.5278,1.0,1.0,1.0
44.02,183.4944,1.0,1.0,1.0
44.03,205.0111,1.0,1.0,1.0
44.04,227.4944,1.0,1.0,1.0
44.05,217.5278,1.0,1.0,1.0
44.06,210.4722,1.0,1.0,1.0
44.07,177.0111,1.0,1.0,1.0
44.08,179.5056,1.0,1.0,1.0
44.09,191.9778,1.0,1.0,1.0
44.1,185.5278,1.0,1.0,1.0
44.11,221.4944,1.0,1.0,1.0
44.12,216.0,1.0,1.0,1.0
44.13,186.0111,1.0,1.0,1.0
44.14,181.4611,1.0,1.0,1.0
44.15,187.4944,1.0,1.0,1.0
44.16,192.0333,1.0,1.0,1.0
44.17,184.4833,1.0,1.0,1.0
44.18,182.5167,1.0,1.0,1.0
44.19,148.0,1.0,1.0,1.0
44.2,172.5056,1.0,1.0,1.0
44.21,144.5056,1.0,1.0,1.0
44.22,134.4833,1.0,1.0,1.0
44.23,167.0,1.0,1.0,1.0
44.24,141.0,1.0,1.0,1.0
44.25,147.9889,1.0,1.0,1.0
44.26,126.0222,1.0,1.0,1.0
44.27,104.9778,1.0,1.0,1.0
44.28,120.0,1.0,1.0,1.0
44.29,109.5167,1.0,1.0,1.0
44.3,138.0,1.0,1.0,1.0
44.31,102.0,1.0,1.0,1.0
44.32,114.4944,1.0,1.0,1.0
44.33,103.5167,1.0,1.0,1.0
44.34,96.9889,1.0,1.0,1.0
44.35,115.4944,1.0,1.0,1.0
44.36,92.5056,1.0,1.0,1.0
44.37,73.0111,1.0,1.0,1.0
44.38,63.4944,1.0,1.0,1.0
44.39,89.5056,1.0,1.0,1.0
44.4,65.0,1.0,1.0,1.0
44.41,87.0,1.0,1.0,1.0
44.42,76.9889,1.0,1.0,1.0
44.43,64.0111,1.0,1.0,1.0
44.44,49.4944,1.0,1.0,1.0
44.45,56.9889,1.0,1.0,1.0
44.46,54.5167,1.0,1.0,1.0
44.47,66.0,1.0,1.0,1.0
44.48,62.9889,1.0,1.0,1.0
44.49,60.5056,1.0,1.0,1.0
44.5,50.5056,1.0,1.0,1.0
44.51,54.0,1.0,1.0,1.0
44.52,82.4833,1.0,1.0,1.0
44.53,64.5056,1.0,1.0,1.0
44.54,73.4944,1.0,1.0,1.0
44.55,79.5167,1.0,1.0,1.0
44.56,92.4944,1.0,1.0,1.0
44.57,93.9889,1.0,1.0,1.0
44.58,101.0111,1.0,1.0,1.0
44.59,119.4944,1.0,1.0,1.0
44.6,146.5056,1.0,1.0,1.0
44.61,128.9889,1.0,1.0,1.0
44.62,134.0,1.0,1.0,1.0
44.63,202.9889,1.0,1.0,1.0
44.64,165.5056,1.0,1.0,1.0
44.65,178.9889,1.0,1.0,1.0
44.66,187.5056,1.0,1.0,1.0
44.67,204.5167,1.0,1.0,1.0
44.68,243.4833,1.0,1.0,1.0
44.69,256.9889,1.0,1.0,1.0
44.7,260.9889,1.0,1.0,1.0
44.71,289.0333,1.0,1.0,1.0
44.72,316.4944,1.0,1.0,1.0
44.73,341.9778,1.0,1.0,1.0
44.74,404.0111,1.0,1.0,1.0
44.75,415.9889,1.0,1.0,1.0
44.76,461.4833,1.0,1.0,1.0
44.77,479.9778,1.0,1.0,1.0
44.78,489.5278,1.0,1.0,1.0
44.79,531.0333,1.0,1.0,1.0
44.8,583.9222,1.0,1.0,1.0
44.81,650.0222,1.0,1.0,1.0
44.82,655.0111,1.0,1.0,1.0
44.83,726.4944,1.0,1.0,1.0
44.84,726.0111,1.0,1.0,1.0
44.85,786.9889,1.0,1.0,1.0
44.86,872.5167,1.0,1.0,1.0
44.87,821.4056,1.0,1.0,1.0
44.88,973.0555,1.0,1.0,1.0
44.89,1043.52,1.0,1.0,1.0
44.9,1064.43,1.0,1.0,1.0
44.91,1191.52,1.0,1.0,1.0
44.92,1138.54,1.0,1.0,1.0
44.93,1301.42,1.0,1.0,1.0
44.94,1269.52,1.0,1.0,1.0
44.95,1326.99,1.0,1.0,1.0
44.96,1395.54,1.0,1.0,1.0
44.97,1435.93,1.0,1.0,1.0
44.98,1537.54,1.0,1.0,1.0
44.99,1668.46,1.0,1.0,1.0
45.0,1699.01,1.0,1.0,1.0
45.01,1776.96,1.0,1.0,1.0
45.02,1790.01,1.0,1.0,1.0
45.03,1983.99,1.0,1.0,1.0
45.04,2067.07,1.0,1.0,1.0
45.05,2096.9,1.0,1.0,1.0
45.06,2106.01,1.0,1.0,1.0
45.07,2235.07,1.0,1.0,1.0
45.08,2362.41,1.0,1.0,1.0
45.09,2538.94,1.0,1.0,1.0
45.1,2497.57,1.0,1.0,1.0
45.11,2703.0,1.0,1.0,1.0
45.12,2726.9,1.0,1.0,1.0
45.13,2849.53,1.0,1.0,1.0
45.14,2873.439,1.0,1.0,1.0
45.15,3116.58,1.0,1.0,1.0
45.16,3095.94,1.0,1.0,1.0
45.17,3281.94,1.0,1.0,1.0
45.18,3276.52,1.0,1.0,1.0
45.19,3416.48,1.0,1.0,1.0
45.2,3518.93,1.0,1.0,1.0
45.21,3604.69,1.0,1.0,1.0
45.22,3677.94,1.0,1.0,1.0
45.23,3788.41,1.0,1.0,1.0
45.24,3979.11,1.0,1.0,1.0
45.25,4071.38,1.0,1.0,1.0
45.26,4090.52,1.0,1.0,1.0
45.27,4211.51,1.0,1.0,1.0
45.28,4266.91,1.0,1.0,1.0
45.29,4411.561,1.0,1.0,1.0
45.3,4629.439,1.0,1.0,1.0
45.31,4620.39,1.0,1.0,1.0
45.32,4764.66,1.0,1.0,1.0
45.33,4925.98,1.0,1.0,1.0
45.34,4973.45,1.0,1.0,1.0
45.35,5132.52,1.0,1.0,1.0
45.36,5239.38,1.0,1.0,1.0
45.37,5233.06,1.0,1.0,1.0
45.38,5252.52,1.0,1.0,1.0
45.39,5487.87,1.0,1.0,1.0
45.4,5449.62,1.0,1.0,1.0
45.41,5586.0,1.0,1.0,1.0
45.42,5892.87,1.0,1.0,1.0
45.43,5983.49,1.0,1.0,1.0
45.44,6019.62,1.0,1.0,1.0
45.45,5961.88,1.0,1.0,1.0
45.46,6259.03,1.0,1.0,1.0
45.47,6244.98,1.0,1.0,1.0
45.48,6280.439,1.0,1.0,1.0
45.49,6448.561,1.0,1.0,1.0
45.5,6498.09,1.0,1.0,1.0
45.51,6644.89,1.0,1.0,1.0
45.52,6629.97,1.0,1.0,1.0
45.53,6983.53,1.0,1.0,1.0
45.54,6935.51,1.0,1.0,1.0
45.55,7001.07,1.0,1.0,1.0
45.56,7066.94,1.0,1.0,1.0
45.57,7196.45,1.0,1.0,1.0
45.58,7294.62,1.0,1.0,1.0
45.59,7326.811,1.0,1.0,1.0
45.6,7436.52,1.0,1.0,1.0
45.61,7559.98,1.0,1.0,1.0
45.62,7690.49,1.0,1.0,1.0
45.63,7453.16,1.0,1.0,1.0
45.64,7591.78,1.0,1.0,1.0
45.65,7640.18,1.0,1.0,1.0
45.66,7815.87,1.0,1.0,1.0
45.67,7814.96,1.0,1.0,1.0
45.68,7892.54,1.0,1.0,1.0
45.69,7828.53,1.0,1.0,1.0
45.7,8015.92,1.0,1.0,1.0
45.71,7986.48,1.0,1.0,1.0
45.72,8076.07,1.0,1.0,1.0
45.73,8151.52,1.0,1.0,1.0
45.74,8104.45,1.0,1.0,1.0
45.75,7993.43,1.0,1.0,1.0
45.76,8189.07,1.0,1.0,1.0
45.77,8242.39,1.0,1.0,1.0
45.78,8176.62,1.0,1.0,1.0
45.79,8273.45,1.0,1.0,1.0
45.8,8270.49,1.0,1.0,1.0
45.81,8339.62,1.0,1.0,1.0
45.82,8204.44,1.0,1.0,1.0
45.83,8258.94,1.0,1.0,1.0
45.84,8419.65,1.0,1.0,1.0
45.85,8275.97,1.0,1.0,1.0
45.86,8105.38,1.0,1.0,1.0
45.87,8375.91,1.0,1.0,1.0
45.88,8167.14,1.0,1.0,1.0
45.89,8190.06,1.0,1.0,1.0
45.9,8157.439,1.0,1.0,1.0
45.91,8223.01,1.0,1.0,1.0
45.92,8162.53,1.0,1.0,1.0
45.93,8168.55,1.0,1.0,1.0
45.94,8214.37,1.0,1.0,1.0
45.95,7894.65,1.0,1.0,1.0
45.96,7882.561,1.0,1.0,1.0
45.97,7966.38,1.0,1.0,1.0
45.98,8140.93,1.0,1.0,1.0
45.99,7886.99,1.0,1.0,1.0
46.0,7790.55,1.0,1.0,1.0
46.01,7796.62,1.0,1.0,1.0
46.02,7811.45,1.0,1.0,1.0
46.03,7590.98,1.0,1.0,1.0
46.04,7543.57,1.0,1.0,1.0
46.05,7406.36,1.0,1.0,1.0
46.06,7368.16,1.0,1.0,1.0
46.07,7313.02,1.0,1.0,1.0
46.08,7270.96,1.0,1.0,1.0
46.09,7196.99,1.0,1.0,1.0
46.1,7345.08,1.0,1.0,1.0
46.11,7055.43,1.0,1.0,1.0
46.12,7030.01,1.0,1.0,1.0
46.13,6823.47,1.0,1.0,1.0
46.14,6751.53,1.0,1.0,1.0
46.15,6642.39,1.0,1.0,1.0
46.16,6754.18,1.0,1.0,1.0
46.17,6610.04,1.0,1.0,1.0
46.18,6379.98,1.0,1.0,1.0
46.19,6440.39,1.0,1.0,1.0
46.2,6280.13,1.0,1.0,1.0
46.21,6228.55,1.0,1.0,1.0
46.22,5970.97,1.0,1.0,1.0
46.23,5932.03,1.0,1.0,1.0
46.24,5834.04,1.0,1.0,1.0
46.25,5788.02,1.0,1.0,1.0
46.26,5606.87,1.0,1.0,1.0
46.27,5511.58,1.0,1.0,1.0
46.28,5565.01,1.0,1.0,1.0
46.29,5308.89,1.0,1.0,1.0
46.3,5209.65,1.0,1.0,1.0
46.31,5209.46,1.0,1.0,1.0
46.32,5048.59,1.0,1.0,1.0
46.33,4825.43,1.0,1.0,1.0
46.34,4765.06,1.0,1.0,1.0
46.35,4821.46,1.0,1.0,1.0
46.36,4666.49,1.0,1.0,1.0
46.37,4529.55,1.0,1.0,1.0
46.38,4453.46,1.0,1.0,1.0
46.39,4438.66,1.0,1.0,1.0
46.4,4270.82,1.0,1.0,1.0
46.41,4220.61,1.0,1.0,1.0
46.42,3977.45,1.0,1.0,1.0
46.43,4060.561,1.0,1.0,1.0
46.44,3863.96,1.0,1.0,1.0
46.45,3856.58,1.0,1.0,1.0
46.46,3727.52,1.0,1.0,1.0
46.47,3630.45,1.0,1.0,1.0
46.48,3570.55,1.0,1.0,1.0
46.49,3597.45,1.0,1.0,1.0
46.5,3463.08,1.0,1.0,1.0
46.51,3408.53,1.0,1.0,1.0
46.52,3540.99,1.0,1.0,1.0
46.53,3301.99,1.0,1.0,1.0
46.54,3330.51,1.0,1.0,1.0
46.55,3228.02,1.0,1.0,1.0
46.56,3081.49,1.0,1.0,1.0
46.57,3212.45,1.0,1.0,1.0
46.58,3092.54,1.0,1.0,1.0
46.59,3183.94,1.0,1.0,1.0
46.6,3218.12,1.0,1.0,1.0
46.61,3117.87,1.0,1.0,1.0
46.62,3124.51,1.0,1.0,1.0
46.63,3296.57,1.0,1.0,1.0
46.64,3294.37,1.0,1.0,1.0
46.65,3380.53,1.0,1.0,1.0
46.66,3448.09,1.0,1.0,1.0
46.67,3435.93,1.0,1.0,1.0
46.68,3594.94,1.0,1.0,1.0
46.69,3821.54,1.0,1.0,1.0
46.7,4011.57,1.0,1.0,1.0
46.71,4133.84,1.0,1.0,1.0
46.72,4381.02,1.0,1.0,1.0
46.73,4575.98,1.0,1.0,1.0
46.74,4852.97,1.0,1.0,1.0
46.75,5223.01,1.0,1.0,1.0
46.76,5561.89,1.0,1.0,1.0
46.77,5951.34,1.0,1.0,1.0
46.78,6639.0,1.0,1.0,1.0
46.79,7165.91,1.0,1.0,1.0
46.8,7558.0,1.0,1.0,1.0
46.81,8406.39,1.0,1.0,1.0
46.82,9349.99,1.0,1.0,1.0
46.83,10399.9,1.0,1.0,1.0
46.84,11393.2,1.0,1.0,1.0
46.85,13228.4,1.0,1.0,1.0
46.86,14865.6,1.0,1.0,1.0
46.87,17067.4,1.0,1.0,1.0
46.88,19885.7,1.0,1.0,1.0
46.89,23504.8,1.0,1.0,1.0
46.9,27273.4,1.0,1.0,1.0
46.91,33264,1.0,1.0,1.0
46.92,40261.6,1.0,1.0,1.0
46.93,50349.2,1.0,1.0,1.0
46.94,64842.2,1.0,1.0,1.0
46.95,85656.6,1.0,1.0,1.0
46.96,116988,1.0,1.0,1.0
46.97,168644,1.0,1.0,1.0
46.98,260165,1.0,1.0,1.0
46.99,449777,1.0,1.0,1.0
47.0,951542,1.0,1.0,1.0
47.01,4926342.5,1.0,1.0,1.0
47.02,44781828.0,1.0,1.0,1.0
47.03,35214240.0,1.0,1.0,1.0
47.04,3358253.75,1.0,1.0,1.0
47.05,877269.25,1.0,1.0,1.0
47.06,435086,1.0,1.0,1.0
47.07,265542.625,1.0,1.0,1.0
47.08,175892,1.0,1.0,1.0
47.09,118780,1.0,1.0,1.0
47.1,84031.3,1.0,1.0,1.0
47.11,62682.332,1.0,1.0,1.0
47.12,48055.2,1.0,1.0,1.0
47.13,38456.2,1.0,1.0,1.0
47.14,31417.5,1.0,1.0,1.0
47.15,25927.2,1.0,1.0,1.0
47.16,21247.4,1.0,1.0,1.0
47.17,17795.7,1.0,1.0,1.0
47.18,15060.5,1.0,1.0,1.0
47.19,12952.7,1.0,1.0,1.0
47.2,11034.583,1.0,1.0,1.0
47.21,9653.08,1.0,1.0,1.0
47.22,8461.13,1.0,1.0,1.0
47.23,7286.21,1.0,1.0,1.0
47.24,6730.46,1.0,1.0,1.0
47.25,6030.18,1.0,1.0,1.0
47.26,5130.9,1.0,1.0,1.0
47.27,4661.73,1.0,1.0,1.0
47.28,4155.52,1.0,1.0,1.0
47.29,3884.03,1.0,1.0,1.0
47.3,3584.62,1.0,1.0,1.0
47.31,3174.02,1.0,1.0,1.0
47.32,2902.439,1.0,1.0,1.0
47.33,2559.57,1.0,1.0,1.0
47.34,2326.0,1.0,1.0,1.0
47.35,2195.52,1.0,1.0,1.0
47.36,2069.48,1.0,1.0,1.0
47.37,1857.11,1.0,1.0,1.0
47.38,1740.55,1.0,1.0,1.0
47.39,1653.48,1.0,1.0,1.0
47.4,1469.48,1.0,1.0,1.0
47.41,1358.46,1.0,1.0,1.0
47.42,1238.1,1.0,1.0,1.0
47.43,1189.94,1.0,1.0,1.0
47.44,1097.03,1.0,1.0,1.0
47.45,1064.99,1.0,1.0,1.0
47.46,1034.53,1.0,1.0,1.0
47.47,1008.49,1.0,1.0,1.0
47.48,945.5278,1.0,1.0,1.0
47.49,853.9889,1.0,1.0,1.0
47.5,860.4833,1.0,1.0,1.0
47.51,801.4833,1.0,1.0,1.0
47.52,774.5278,1.0,1.0,1.0
47.53,722.0111,1.0,1.0,1.0
47.54,727.0,1.0,1.0,1.0
47.55,665.9889,1.0,1.0,1.0
47.56,679.0111,1.0,1.0,1.0
47.57,716.5167,1.0,1.0,1.0
47.58,630.0,1.0,1.0,1.0
47.59,692.9889,1.0,1.0,1.0
47.6,659.5056,1.0,1.0,1.0
47.61,623.0,1.0,1.0,1.0
47.62,593.0222,1.0,1.0,1.0
47.63,628.45,1.0,1.0,1.0
47.64,625.4944,1.0,1.0,1.0
47.65,574.0555,1.0,1.0,1.0
47.66,590.4833,1.0,1.0,1.0
47.67,576.9778,1.0,1.0,1.0
47.68,613.0222,1.0,1.0,1.0
47.69,573.9889,1.0,1.0,1.0
47.7,563.5056,1.0,1.0,1.0
47.71,628.4611,1.0,1.0,1.0
47.72,560.0222,1.0,1.0,1.0
47.73,568.5389,1.0,1.0,1.0
47.74,624.4722,1.0,1.0,1.0
47.75,621.4722,1.0,1.0,1.0
47.76,582.5389,1.0,1.0,1.0
47.77,557.5167,1.0,1.0,1.0
47.78,578.4722,1.0,1.0,1.0
47.79,538.0111,1.0,1.0,1.0
47.8,556.9889,1.0,1.0,1.0
47.81,585.5389,1.0,1.0,1.0
47.82,549.9445,1.0,1.0,1.0
47.83,603.0555,1.0,1.0,1.0
47.84,512.9778,1.0,1.0,1.0
47.85,540.5056,1.0,1.0,1.0
47.86,531.4833,1.0,1.0,1.0
47.87,535.5056,1.0,1.0,1.0
47.88,481.5056,1.0,1.0,1.0
47.89,519.4833,1.0,1.0,1.0
47.9,501.5278,1.0,1.0,1.0
47.91,569.9667,1.0,1.0,1.0
47.92,494.0222,1.0,1.0,1.0
47.93,479.0222,1.0,1.0,1.0
47.94,493.5056,1.0,1.0,1.0
47.95,498.9667,1.0,1.0,1.0
47.96,482.5167,1.0,1.0,1.0
47.97,525.9889,1.0,1.0,1.0
47.98,454.9667,1.0,1.0,1.0
47.99,463.5278,1.0,1.0,1.0
48.0,490.9778,1.0,1.0,1.0
48.01,443.5278,1.0,1.0,1.0
48.02,416.0,1.0,1.0,1.0
48.03,427.0222,1.0,1.0,1.0
48.04,395.4722,1.0,1.0,1.0
48.05,392.5167,1.0,1.0,1.0
48.06,380.4722,1.0,1.0,1.0
48.07,393.0111,1.0,1.0,1.0
48.08,364.5056,1.0,1.0,1.0
48.09,395.9889,1.0,1.0,1.0
48.1,354.5278,1.0,1.0,1.0
48.11,341.4833,1.0,1.0,1.0
48.12,343.0333,1.0,1.0,1.0
48.13,342.9889,1.0,1.0,1.0
48.14,293.9889,1.0,1.0,1.0
48.15,319.5056,1.0,1.0,1.0
48.16,286.0111,1.0,1.0,1.0
48.17,289.4944,1.0,1.0,1.0
48.18,318.4944,1.0,1.0,1.0
48.19,296.5278,1.0,1.0,1.0
48.2,216.4722,1.0,1.0,1.0
48.21,251.9778,1.0,1.0,1.0
48.22,243.0111,1.0,1.0,1.0
48.23,241.0333,1.0,1.0,1.0
48.24,239.4944,1.0,1.0,1.0
48.25,214.9778,1.0,1.0,1.0
48.26,222.5167,1.0,1.0,1.0
48.27,202.0111,1.0,1.0,1.0
48.28,194.0,1.0,1.0,1.0
48.29,175.4944,1.0,1.0,1.0
48.3,164.0111,1.0,1.0,1.0
48.31,173.9889,1.0,1.0,1.0
48.32,166.0,1.0,1.0,1.0
48.33,133.9889,1.0,1.0,1.0
48.34,120.0111,1.0,1.0,1.0
48.35,148.0,1.0,1.0,1.0
48.36,117.0,1.0,1.0,1.0
48.37,116.0111,1.0,1.0,1.0
48.38,116.5056,1.0,1.0,1.0
48.39,114.9889,1.0,1.0,1.0
48.4,106.9778,1.0,1.0,1.0
48.41,121.0111,1.0,1.0,1.0
48.42,103.0111,1.0,1.0,1.0
48.43,126.9889,1.0,1.0,1.0
48.44,95.0222,1.0,1.0,1.0
48.45,87.4944,1.0,1.0,1.0
48.46,88.5056,1.0,1.0,1.0
48.47,87.0,1.0,1.0,1.0
48.48,84.4833,1.0,1.0,1.0
48.49,78.0111,1.0,1.0,1.0
48.5,79.0,1.0,1.0,1.0
48.51,32.4944,1.0,1.0,1.0
48.52,60.0111,1.0,1.0,1.0
48.53,65.4944,1.0,1.0,1.0
48.54,57.9889,1.0,1.0,1.0
48.55,42.5167,1.0,1.0,1.0
48.56,82.0,1.0,1.0,1.0
48.57,57.0,1.0,1.0,1.0
48.58,46.9889,1.0,1.0,1.0
48.59,42.0111,1.0,1.0,1.0
48.6,47.0,1.0,1.0,1.0
48.61,47.0,1.0,1.0,1.0
48.62,52.0,1.0,1.0,1.0
48.63,35.0,1.0,1.0,1.0
48.64,34.0,1.0,1.0,1.0
48.65,39.4944,1.0,1.0,1.0
48.66,38.5056,1.0,1.0,1.0
48.67,29.0,1.0,1.0,1.0
48.68,57.9889,1.0,1.0,1.0
48.69,37.4833,1.0,1.0,1.0
48.7,42.5278,1.0,1.0,1.0
48.71,34.4833,1.0,1.0,1.0
48.72,62.0111,1.0,1.0,1.0
48.73,41.0,1.0,1.0,1.0
48.74,49.5056,1.0,1.0,1.0
48.75,51.0,1.0,1.0,1.0
48.76,45.0,1.0,1.0,1.0
48.77,56.0,1.0,1.0,1.0
48.78,71.0,1.0,1.0,1.0
48.79,56.9889,1.0,1.0,1.0
48.8,56.5056,1.0,1.0,1.0
48.81,59.0,1.0,1.0,1.0
48.82,30.5056,1.0,1.0,1.0
48.83,42.4944,1.0,1.0,1.0
48.84,57.0,1.0,1.0,1.0
48.85,59.5056,1.0,1.0,1.0
48.86,61.9889,1.0,1.0,1.0
48.87,60.5056,1.0,1.0,1.0
48.88,74.4944,1.0,1.0,1.0
48.89,63.5056,1.0,1.0,1.0
48.9,60.4944,1.0,1.0,1.0
48.91,76.5056,1.0,1.0,1.0
48.92,92.0,1.0,1.0,1.0
48.93,89.0,1.0,1.0,1.0
48.94,87.4944,1.0,1.0,1.0
48.95,74.0,1.0,1.0,1.0
48.96,49.0111,1.0,1.0,1.0
48.97,96.4944,1.0,1.0,1.0
48.98,71.9889,1.0,1.0,1.0
48.99,106.5167,1.0,1.0,1.0
49.0,75.0,1.0,1.0,1.0
49.01,76.4833,1.0,1.0,1.0
49.02,80.5056,1.0,1.0,1.0
49.03,91.0111,1.0,1.0,1.0
49.04,74.0,1.0,1.0,1.0
49.05,99.0,1.0,1.0,1.0
49.06,88.4833,1.0,1.0,1.0
49.07,104.5056,1.0,1.0,1.0
49.08,65.0,1.0,1.0,1.0
49.09,80.5056,1.0,1.0,1.0
49.1,97.5056,1.0,1.0,1.0
49.11,79.9778,1.0,1.0,1.0
49.12,92.0222,1.0,1.0,1.0
49.13,94.9889,1.0,1.0,1.0
49.14,96.0111,1.0,1.0,1.0
49.15,77.9889,1.0,1.0,1.0
49.16,94.0,1.0,1.0,1.0
49.17,92.4944,1.0,1.0,1.0
49.18,82.5167,1.0,1.0,1.0
49.19,87.4833,1.0,1.0,1.0
49.2,81.0111,1.0,1.0,1.0
49.21,78.9778,1.0,1.0,1.0
49.22,77.5167,1.0,1.0,1.0
49.23,79.0111,1.0,1.0,1.0
49.24,86.4944,1.0,1.0,1.0
49.25,88.0,1.0,1.0,1.0
49.26,84.5056,1.0,1.0,1.0
49.27,94.4944,1.0,1.0,1.0
49.28,89.4944,1.0,1.0,1.0
49.29,87.0,1.0,1.0,1.0
49.3,87.0111,1.0,1.0,1.0
49.31,71.4944,1.0,1.0,1.0
49.32,76.0,1.0,1.0,1.0
49.33,86.5056,1.0,1.0,1.0
49.34,82.4833,1.0,1.0,1.0
49.35,85.5056,1.0,1.0,1.0
49.36,103.0,1.0,1.0,1.0
49.37,57.5056,1.0,1.0,1.0
49.38,74.9889,1.0,1.0,1.0
49.39,69.0,1.0,1.0,1.0
49.4,72.0,1.0,1.0,1.0
49.41,84.0111,1.0,1.0,1.0
49.42,59.5056,1.0,1.0,1.0
49.43,71.0,1.0,1.0,1.0
49.44,66.0,1.0,1.0,1.0
49.45,39.4944,1.0,1.0,1.0
49.46,71.0,1.0,1.0,1.0
49.47,63.0,1.0,1.0,1.0
49.48,64.0,1.0,1.0,1.0
49.49,65.4833,1.0,1.0,1.0
49.5,80.0111,1.0,1.0,1.0
49.51,65.5056,1.0,1.0,1.0
49.52,57.5056,1.0,1.0,1.0
49.53,37.0,1.0,1.0,1.0
49.54,58.4944,1.0,1.0,1.0
49.55,75.4944,1.0,1.0,1.0
49.56,47.5056,1.0,1.0,1.0
49.57,49.0,1.0,1.0,1.0
49.58,39.5056,1.0,1.0,1.0
49.59,59.0,1.0,1.0,1.0
49.6,48.0,1.0,1.0,1.0
49.61,57.4944,1.0,1.0,1.0
49.62,40.5056,1.0,1.0,1.0
49.63,34.0,1.0,1.0,1.0
49.64,44.4833,1.0,1.0,1.0
49.65,31.5056,1.0,1.0,1.0
49.66,29.5056,1.0,1.0,1.0
49.67,48.5056,1.0,1.0,1.0
49.68,24.4944,1.0,1.0,1.0
49.69,41.4944,1.0,1.0,1.0
49.7,20.0111,1.0,1.0,1.0
49.71,32.4944,1.0,1.0,1.0
49.72,38.5056,1.0,1.0,1.0
49.73,26.9889,1.0,1.0,1.0
49.74,33.0111,1.0,1.0,1.0
49.75,35.9889,1.0,1.0,1.0
49.76,36.0111,1.0,1.0,1.0
49.77,40.0,1.0,1.0,1.0
49.78,30.0,1.0,1.0,1.0
49.79,21.0,1.0,1.0,1.0
49.8,22.0,1.0,1.0,1.0
49.81,24.0,1.0,1.0,1.0
49.82,39.0,1.0,1.0,1.0
49.83,28.0,1.0,1.0,1.0
49.84,17.0,1.0,1.0,1.0
49.85,19.0,1.0,1.0,1.0
49.86,33.4944,1.0,1.0,1.0
49.87,16.5056,1.0,1.0,1.0
49.88,47.0,1.0,1.0,1.0
49.89,22.9889,1.0,1.0,1.0
49.9,35.5056,1.0,1.0,1.0
49.91,27.5056,1.0,1.0,1.0
49.92,29.4944,1.0,1.0,1.0
49.93,23.5056,1.0,1.0,1.0
49.94,19.0,1.0,1.0,1.0
49.95,16.0,1.0,1.0,1.0
49.96,25.9889,1.0,1.0,1.0
49.97,38.5056,1.0,1.0,1.0
49.98,28.0,1.0,1.0,1.0
49.99,31.0,1.0,1.0,1.0
50.0,37.5056,1.0,1.0,1.0
50.01,43.0,1.0,1.0,1.0
50.02,42.0,1.0,1.0,1.0
50.03,20.4944,1.0,1.0,1.0
50.04,27.5056,1.0,1.0,1.0
50.05,30.0,1.0,1.0,1.0
50.06,20.4944,1.0,1.0,1.0
50.07,38.4944,1.0,1.0,1.0
50.08,34.0111,1.0,1.0,1.0
50.09,39.9889,1.0,1.0,1.0
50.1,38.0111,1.0,1.0,1.0
50.11,31.0,1.0,1.0,1.0
50.12,40.0,1.0,1.0,1.0
50.13,36.0,1.0,1.0,1.0
50.14,24.0,1.0,1.0,1.0
50.15,32.0,1.0,1.0,1.0
50.16,24.0,1.0,1.0,1.0
50.17,43.4944,1.0,1.0,1.0
50.18,25.0,1.0,1.0,1.0
50.19,65.0,1.0,1.0,1.0
50.2,51.9889,1.0,1.0,1.0
50.21,38.5167,1.0,1.0,1.0
50.22,37.0,1.0,1.0,1.0
50.23,24.0,1.0,1.0,1.0
50.24,61.4944,1.0,1.0,1.0
50.25,43.0,1.0,1.0,1.0
50.26,25.4944,1.0,1.0,1.0
50.27,46.0111,1.0,1.0,1.0
50.28,45.9889,1.0,1.0,1.0
50.29,48.5056,1.0,1.0,1.0
50.3,55.4944,1.0,1.0,1.0
50.31,60.0,1.0,1.0,1.0
50.32,58.5056,1.0,1.0,1.0
50.33,27.5056,1.0,1.0,1.0
50.34,40.0,1.0,1.0,1.0
50.35,44.0,1.0,1.0,1.0
50.36,39.4944,1.0,1.0,1.0
50.37,36.0,1.0,1.0,1.0
50.38,44.5056,1.0,1.0,1.0
50.39,52.9889,1.0,1.0,1.0
50.4,55.0111,1.0,1.0,1.0
50.41,59.9889,1.0,1.0,1.0
50.42,44.5056,1.0,1.0,1.0
50.43,35.0,1.0,1.0,1.0
50.44,43.0,1.0,1.0,1.0
50.45,52.4944,1.0,1.0,1.0
50.46,44.5056,1.0,1.0,1.0
50.47,35.0,1.0,1.0,1.0
50.48,40.0,1.0,1.0,1.0
50.49,29.5056,1.0,1.0,1.0
50.5,19.0,1.0,1.0,1.0
50.51,27.4833,1.0,1.0,1.0
50.52,32.0111,1.0,1.0,1.0
50.53,48.5056,1.0,1.0,1.0
50.54,31.4944,1.0,1.0,1.0
50.55,66.0,1.0,1.0,1.0
50.56,40.9889,1.0,1.0,1.0
50.57,43.5167,1.0,1.0,1.0
50.58,42.0,1.0,1.0,1.0
50.59,49.4833,1.0,1.0,1.0
50.6,37.5167,1.0,1.0,1.0
50.61,31.0,1.0,1.0,1.0
50.62,33.0,1.0,1.0,1.0
50.63,37.0,1.0,1.0,1.0
50.64,32.9889,1.0,1.0,1.0
50.65,29.5056,1.0,1.0,1.0
50.66,37.5056,1.0,1.0,1.0
50.67,36.9889,1.0,1.0,1.0
50.68,33.0111,1.0,1.0,1.0
50.69,37.0,1.0,1.0,1.0
50.7,48.4944,1.0,1.0,1.0
50.71,37.4944,1.0,1.0,1.0
50.72,26.0111,1.0,1.0,1.0
50.73,50.4944,1.0,1.0,1.0
50.74,47.5056,1.0,1.0,1.0
50.75,31.0,1.0,1.0,1.0
50.76,22.4944,1.0,1.0,1.0
50.77,31.5056,1.0,1.0,1.0
50.78,30.0,1.0,1.0,1.0
50.79,45.4944,1.0,1.0,1.0
50.8,34.5056,1.0,1.0,1.0
50.81,24.0,1.0,1.0,1.0
50.82,31.0,1.0,1.0,1.0
50.83,34.4944,1.0,1.0,1.0
50.84,33.4944,1.0,1.0,1.0
50.85,45.5056,1.0,1.0,1.0
50.86,32.0,1.0,1.0,1.0
50.87,27.0,1.0,1.0,1.0
50.88,42.5056,1.0,1.0,1.0
50.89,28.0,1.0,1.0,1.0
50.9,14.4944,1.0,1.0,1.0
50.91,42.0,1.0,1.0,1.0
50.92,36.5056,1.0,1.0,1.0
50.93,31.4944,1.0,1.0,1.0
50.94,23.5056,1.0,1.0,1.0
50.95,29.0,1.0,1.0,1.0
50.96,23.0,1.0,1.0,1.0
50.97,18.0,1.0,1.0,1.0
50.98,25.0,1.0,1.0,1.0
50.99,17.0,1.0,1.0,1.0
51.0,18.4833,1.0,1.0,1.0
51.01,24.5167,1.0,1.0,1.0
51.02,32.4944,1.0,1.0,1.0
51.03,34.5056,1.0,1.0,1.0
51.04,26.0,1.0,1.0,1.0
51.05,28.0,1.0,1.0,1.0
51.06,19.4944,1.0,1.0,1.0
51.07,35.5056,1.0,1.0,1.0
51.08,39.4944,1.0,1.0,1.0
51.09,22.5056,1.0,1.0,1.0
51.1,21.4944,1.0,1.0,1.0
51.11,29.5056,1.0,1.0,1.0
51.12,17.4944,1.0,1.0,1.0
51.13,28.5056,1.0,1.0,1.0
51.14,28.0,1.0,1.0,1.0
51.15,24.4944,1.0,1.0,1.0
51.16,27.5056,1.0,1.0,1.0
51.17,41.0,1.0,1.0,1.0
51.18,31.0,1.0,1.0,1.0
51.19,23.0,1.0,1.0,1.0
51.2,38.9889,1.0,1.0,1.0
51.21,32.0111,1.0,1.0,1.0
51.22,29.0,1.0,1.0,1.0
51.23,39.0,1.0,1.0,1.0
51.24,17.0,1.0,1.0,1.0
51.25,29.0,1.0,1.0,1.0
51.26,24.0,1.0,1.0,1.0
51.27,23.4944,1.0,1.0,1.0
51.28,37.5056,1.0,1.0,1.0
51.29,19.4944,1.0,1.0,1.0
51.3,23.5056,1.0,1.0,1.0
51.31,23.0,1.0,1.0,1.0
51.32,29.9889,1.0,1.0,1.0
51.33,14.0111,1.0,1.0,1.0
51.34,13.0,1.0,1.0,1.0
51.35,21.4944,1.0,1.0,1.0
51.36,26.0,1.0,1.0,1.0
51.37,29.5056,1.0,1.0,1.0
51.38,34.4944,1.0,1.0,1.0
51.39,32.5056,1.0,1.0,1.0
51.4,26.4944,1.0,1.0,1.0
51.41,34.5056,1.0,1.0,1.0
51.42,26.0,1.0,1.0,1.0
51.43,25.9889,1.0,1.0,1.0
51.44,25.0111,1.0,1.0,1.0
51.45,30.4944,1.0,1.0,1.0
51.46,32.5056,1.0,1.0,1.0
51.47,30.4944,1.0,1.0,1.0
51.48,24.4944,1.0,1.0,1.0
51.49,25.0111,1.0,1.0,1.0
51.5,31.9889,1.0,1.0,1.0
51.51,20.0111,1.0,1.0,1.0
51.52,23.4944,1.0,1.0,1.0
51.53,44.4944,1.0,1.0,1.0
51.54,26.5056,1.0,1.0,1.0
51.55,26.4944,1.0,1.0,1.0
51.56,24.0111,1.0,1.0,1.0
51.57,30.0,1.0,1.0,1.0
51.58,35.0,1.0,1.0,1.0
51.59,26.9889,1.0,1.0,1.0
51.6,19.0111,1.0,1.0,1.0
51.61,31.0,1.0,1.0,1.0
51.62,21.0,1.0,1.0,1.0
51.63,49.0,1.0,1.0,1.0
51.64,38.9889,1.0,1.0,1.0
51.65,37.0111,1.0,1.0,1.0
51.66,39.4944,1.0,1.0,1.0
51.67,30.5056,1.0,1.0,1.0
51.68,20.0,1.0,1.0,1.0
51.69,17.9889,1.0,1.0,1.0
51.7,23.5056,1.0,1.0,1.0
51.71,31.5056,1.0,1.0,1.0
51.72,36.9889,1.0,1.0,1.0
51.73,27.0111,1.0,1.0,1.0
51.74,30.0,1.0,1.0,1.0
51.75,13.0,1.0,1.0,1.0
51.76,40.0,1.0,1.0,1.0
51.77,28.0,1.0,1.0,1.0
51.78,21.4944,1.0,1.0,1.0
51.79,32.5056,1.0,1.0,1.0
51.8,27.9889,1.0,1.0,1.0
51.81,23.0111,1.0,1.0,1.0
51.82,30.0,1.0,1.0,1.0
51.83,14.0,1.0,1.0,1.0
51.84,31.4944,1.0,1.0,1.0
51.85,43.0,1.0,1.0,1.0
51.86,35.5056,1.0,1.0,1.0
51.87,27.4944,1.0,1.0,1.0
51.88,26.5056,1.0,1.0,1.0
51.89,25.0,1.0,1.0,1.0
51.9,25.0,1.0,1.0,1.0
51.91,24.0,1.0,1.0,1.0
51.92,26.0,1.0,1.0,1.0
51.93,20.0,1.0,1.0,1.0
51.94,29.4944,1.0,1.0,1.0
51.95,44.5056,1.0,1.0,1.0
51.96,36.0,1.0,1.0,1.0
51.97,27.0,1.0,1.0,1.0
51.98,27.0,1.0,1.0,1.0
51.99,30.0,1.0,1.0,1.0
52.0,41.0,1.0,1.0,1.0