File: XRD:XRR/STO/22098_STOL/22098_STOL_XRD.csv
#twotheta, yobs, ycal, bkg, diff
39.0,6.0,1.0,1.0,1.0
39.02,0.0,1.0,1.0,1.0
39.04,2.0,1.0,1.0,1.0
39.06,0.0,1.0,1.0,1.0
39.08,2.0,1.0,1.0,1.0
39.1,4.0,1.0,1.0,1.0
39.12,4.0,1.0,1.0,1.0
39.14,2.0,1.0,1.0,1.0
39.16,6.0,1.0,1.0,1.0
39.18,0.0,1.0,1.0,1.0
39.2,0.0,1.0,1.0,1.0
39.22,0.0,1.0,1.0,1.0
39.24,6.0,1.0,1.0,1.0
39.26,2.0,1.0,1.0,1.0
39.28,7.0,1.0,1.0,1.0
39.3,2.0,1.0,1.0,1.0
39.32,4.0,1.0,1.0,1.0
39.34,4.0,1.0,1.0,1.0
39.36,5.0,1.0,1.0,1.0
39.38,5.0,1.0,1.0,1.0
39.4,3.4944,1.0,1.0,1.0
39.42,0.0,1.0,1.0,1.0
39.44,4.0,1.0,1.0,1.0
39.46,0.0,1.0,1.0,1.0
39.48,2.0,1.0,1.0,1.0
39.5,0.0,1.0,1.0,1.0
39.52,0.0,1.0,1.0,1.0
39.54,4.0,1.0,1.0,1.0
39.56,0.0,1.0,1.0,1.0
39.58,4.5056,1.0,1.0,1.0
39.6,0.0,1.0,1.0,1.0
39.62,6.0,1.0,1.0,1.0
39.64,6.0,1.0,1.0,1.0
39.66,8.0,1.0,1.0,1.0
39.68,8.0,1.0,1.0,1.0
39.7,7.0,1.0,1.0,1.0
39.72,6.0,1.0,1.0,1.0
39.74,2.0,1.0,1.0,1.0
39.76,2.0,1.0,1.0,1.0
39.78,4.0,1.0,1.0,1.0
39.8,5.0,1.0,1.0,1.0
39.82,0.0,1.0,1.0,1.0
39.84,3.0,1.0,1.0,1.0
39.86,3.0,1.0,1.0,1.0
39.88,0.0,1.0,1.0,1.0
39.9,0.4944,1.0,1.0,1.0
39.92,7.5056,1.0,1.0,1.0
39.94,2.0,1.0,1.0,1.0
39.96,0.0,1.0,1.0,1.0
39.98,0.0,1.0,1.0,1.0
40.0,7.0,1.0,1.0,1.0
40.02,0.0,1.0,1.0,1.0
40.04,7.0,1.0,1.0,1.0
40.06,6.0,1.0,1.0,1.0
40.08,4.5056,1.0,1.0,1.0
40.1,0.0,1.0,1.0,1.0
40.12,5.0,1.0,1.0,1.0
40.14,0.0,1.0,1.0,1.0
40.16,0.0,1.0,1.0,1.0
40.18,0.0,1.0,1.0,1.0
40.2,8.5056,1.0,1.0,1.0
40.22,3.0,1.0,1.0,1.0
40.24,2.0,1.0,1.0,1.0
40.26,4.0,1.0,1.0,1.0
40.28,12.0,1.0,1.0,1.0
40.3,0.0,1.0,1.0,1.0
40.32,3.0,1.0,1.0,1.0
40.34,0.0,1.0,1.0,1.0
40.36,0.0,1.0,1.0,1.0
40.38,2.0,1.0,1.0,1.0
40.4,7.0,1.0,1.0,1.0
40.42,6.0,1.0,1.0,1.0
40.44,10.0,1.0,1.0,1.0
40.46,3.0,1.0,1.0,1.0
40.48,5.0,1.0,1.0,1.0
40.5,5.5056,1.0,1.0,1.0
40.52,4.0,1.0,1.0,1.0
40.54,12.4944,1.0,1.0,1.0
40.56,4.0,1.0,1.0,1.0
40.58,0.0,1.0,1.0,1.0
40.6,5.0,1.0,1.0,1.0
40.62,13.0,1.0,1.0,1.0
40.64,7.0,1.0,1.0,1.0
40.66,3.0,1.0,1.0,1.0
40.68,4.5056,1.0,1.0,1.0
40.7,23.4944,1.0,1.0,1.0
40.72,6.0,1.0,1.0,1.0
40.74,8.0,1.0,1.0,1.0
40.76,8.0,1.0,1.0,1.0
40.78,11.0,1.0,1.0,1.0
40.8,3.4944,1.0,1.0,1.0
40.82,3.0,1.0,1.0,1.0
40.84,5.0,1.0,1.0,1.0
40.86,4.0,1.0,1.0,1.0
40.88,14.0,1.0,1.0,1.0
40.9,15.0,1.0,1.0,1.0
40.92,2.0,1.0,1.0,1.0
40.94,9.5056,1.0,1.0,1.0
40.96,7.0,1.0,1.0,1.0
40.98,0.0,1.0,1.0,1.0
41.0,7.5056,1.0,1.0,1.0
41.02,4.0,1.0,1.0,1.0
41.04,0.4944,1.0,1.0,1.0
41.06,13.0,1.0,1.0,1.0
41.08,8.0,1.0,1.0,1.0
41.1,5.0,1.0,1.0,1.0
41.12,3.0,1.0,1.0,1.0
41.14,12.0,1.0,1.0,1.0
41.16,1.0,1.0,1.0,1.0
41.18,8.4944,1.0,1.0,1.0
41.2,10.4944,1.0,1.0,1.0
41.22,9.0,1.0,1.0,1.0
41.24,6.0,1.0,1.0,1.0
41.26,11.0,1.0,1.0,1.0
41.28,7.0,1.0,1.0,1.0
41.3,15.4944,1.0,1.0,1.0
41.32,7.4944,1.0,1.0,1.0
41.34,8.5056,1.0,1.0,1.0
41.36,4.0,1.0,1.0,1.0
41.38,15.0,1.0,1.0,1.0
41.4,10.0,1.0,1.0,1.0
41.42,10.0,1.0,1.0,1.0
41.44,15.5056,1.0,1.0,1.0
41.46,3.5056,1.0,1.0,1.0
41.48,10.0,1.0,1.0,1.0
41.5,3.5056,1.0,1.0,1.0
41.52,5.0,1.0,1.0,1.0
41.54,14.0,1.0,1.0,1.0
41.56,5.0,1.0,1.0,1.0
41.58,13.9889,1.0,1.0,1.0
41.6,13.5056,1.0,1.0,1.0
41.62,4.0,1.0,1.0,1.0
41.64,5.5056,1.0,1.0,1.0
41.66,6.0,1.0,1.0,1.0
41.68,6.9889,1.0,1.0,1.0
41.7,10.0,1.0,1.0,1.0
41.72,16.0,1.0,1.0,1.0
41.74,9.0,1.0,1.0,1.0
41.76,11.0,1.0,1.0,1.0
41.78,15.0,1.0,1.0,1.0
41.8,9.0,1.0,1.0,1.0
41.82,14.0,1.0,1.0,1.0
41.84,5.0,1.0,1.0,1.0
41.86,6.9889,1.0,1.0,1.0
41.88,4.0,1.0,1.0,1.0
41.9,5.0,1.0,1.0,1.0
41.92,7.5056,1.0,1.0,1.0
41.94,6.0,1.0,1.0,1.0
41.96,13.0111,1.0,1.0,1.0
41.98,7.0,1.0,1.0,1.0
42.0,4.5056,1.0,1.0,1.0
42.02,8.0,1.0,1.0,1.0
42.04,7.0,1.0,1.0,1.0
42.06,6.0,1.0,1.0,1.0
42.08,6.0,1.0,1.0,1.0
42.1,1.0,1.0,1.0,1.0
42.12,1.0,1.0,1.0,1.0
42.14,3.0,1.0,1.0,1.0
42.16,6.0,1.0,1.0,1.0
42.18,3.0,1.0,1.0,1.0
42.2,5.0,1.0,1.0,1.0
42.22,3.0,1.0,1.0,1.0
42.24,9.0,1.0,1.0,1.0
42.26,7.0,1.0,1.0,1.0
42.28,6.0,1.0,1.0,1.0
42.3,9.0,1.0,1.0,1.0
42.32,5.0,1.0,1.0,1.0
42.34,0.0,1.0,1.0,1.0
42.36,0.0,1.0,1.0,1.0
42.38,6.0,1.0,1.0,1.0
42.4,7.0,1.0,1.0,1.0
42.42,9.0,1.0,1.0,1.0
42.44,3.0,1.0,1.0,1.0
42.46,0.0,1.0,1.0,1.0
42.48,3.0,1.0,1.0,1.0
42.5,0.0,1.0,1.0,1.0
42.52,3.0,1.0,1.0,1.0
42.54,6.0,1.0,1.0,1.0
42.56,6.0,1.0,1.0,1.0
42.58,6.0,1.0,1.0,1.0
42.6,2.0,1.0,1.0,1.0
42.62,10.0,1.0,1.0,1.0
42.64,4.0,1.0,1.0,1.0
42.66,8.0,1.0,1.0,1.0
42.68,3.0,1.0,1.0,1.0
42.7,4.0,1.0,1.0,1.0
42.72,13.0,1.0,1.0,1.0
42.74,9.0,1.0,1.0,1.0
42.76,13.0,1.0,1.0,1.0
42.78,5.4944,1.0,1.0,1.0
42.8,7.0,1.0,1.0,1.0
42.82,12.0,1.0,1.0,1.0
42.84,2.0,1.0,1.0,1.0
42.86,14.5056,1.0,1.0,1.0
42.88,18.5056,1.0,1.0,1.0
42.9,9.4944,1.0,1.0,1.0
42.92,12.4944,1.0,1.0,1.0
42.94,16.0,1.0,1.0,1.0
42.96,25.0,1.0,1.0,1.0
42.98,16.5056,1.0,1.0,1.0
43.0,23.0,1.0,1.0,1.0
43.02,15.0,1.0,1.0,1.0
43.04,7.0,1.0,1.0,1.0
43.06,23.5056,1.0,1.0,1.0
43.08,23.5056,1.0,1.0,1.0
43.1,15.0111,1.0,1.0,1.0
43.12,30.0,1.0,1.0,1.0
43.14,29.4833,1.0,1.0,1.0
43.16,17.4944,1.0,1.0,1.0
43.18,18.0,1.0,1.0,1.0
43.2,36.0111,1.0,1.0,1.0
43.22,27.5167,1.0,1.0,1.0
43.24,32.0111,1.0,1.0,1.0
43.26,31.5056,1.0,1.0,1.0
43.28,35.0,1.0,1.0,1.0
43.3,40.4944,1.0,1.0,1.0
43.32,40.4944,1.0,1.0,1.0
43.34,41.0,1.0,1.0,1.0
43.36,44.0,1.0,1.0,1.0
43.38,59.0,1.0,1.0,1.0
43.4,25.0,1.0,1.0,1.0
43.42,57.5056,1.0,1.0,1.0
43.44,54.0111,1.0,1.0,1.0
43.46,68.4833,1.0,1.0,1.0
43.48,59.4944,1.0,1.0,1.0
43.5,75.0111,1.0,1.0,1.0
43.52,85.4944,1.0,1.0,1.0
43.54,58.0,1.0,1.0,1.0
43.56,94.5056,1.0,1.0,1.0
43.58,65.5056,1.0,1.0,1.0
43.6,85.4833,1.0,1.0,1.0
43.62,76.4833,1.0,1.0,1.0
43.64,94.0111,1.0,1.0,1.0
43.66,72.0111,1.0,1.0,1.0
43.68,87.5167,1.0,1.0,1.0
43.7,126.0,1.0,1.0,1.0
43.72,107.4944,1.0,1.0,1.0
43.74,106.0,1.0,1.0,1.0
43.76,121.9889,1.0,1.0,1.0
43.78,120.5167,1.0,1.0,1.0
43.8,116.9889,1.0,1.0,1.0
43.82,137.0,1.0,1.0,1.0
43.84,120.0,1.0,1.0,1.0
43.86,119.0111,1.0,1.0,1.0
43.88,144.4833,1.0,1.0,1.0
43.9,123.4944,1.0,1.0,1.0
43.92,123.0,1.0,1.0,1.0
43.94,168.0,1.0,1.0,1.0
43.96,180.0222,1.0,1.0,1.0
43.98,139.4833,1.0,1.0,1.0
44.0,170.4944,1.0,1.0,1.0
44.02,177.5167,1.0,1.0,1.0
44.04,192.5056,1.0,1.0,1.0
44.06,195.5167,1.0,1.0,1.0
44.08,188.5167,1.0,1.0,1.0
44.1,194.9778,1.0,1.0,1.0
44.12,196.4944,1.0,1.0,1.0
44.14,211.0,1.0,1.0,1.0
44.16,196.4944,1.0,1.0,1.0
44.18,242.0222,1.0,1.0,1.0
44.2,227.5167,1.0,1.0,1.0
44.22,211.9889,1.0,1.0,1.0
44.24,239.4722,1.0,1.0,1.0
44.26,190.9889,1.0,1.0,1.0
44.28,211.9556,1.0,1.0,1.0
44.3,253.4833,1.0,1.0,1.0
44.32,263.5056,1.0,1.0,1.0
44.34,242.9889,1.0,1.0,1.0
44.36,264.9556,1.0,1.0,1.0
44.38,277.5056,1.0,1.0,1.0
44.4,262.4833,1.0,1.0,1.0
44.42,260.5389,1.0,1.0,1.0
44.44,245.9778,1.0,1.0,1.0
44.46,290.0,1.0,1.0,1.0
44.48,309.4833,1.0,1.0,1.0
44.5,308.4944,1.0,1.0,1.0
44.52,310.4611,1.0,1.0,1.0
44.54,352.4944,1.0,1.0,1.0
44.56,347.5056,1.0,1.0,1.0
44.58,326.9778,1.0,1.0,1.0
44.6,331.0,1.0,1.0,1.0
44.62,345.4944,1.0,1.0,1.0
44.64,360.4944,1.0,1.0,1.0
44.66,375.0111,1.0,1.0,1.0
44.68,405.5278,1.0,1.0,1.0
44.7,339.4833,1.0,1.0,1.0
44.72,368.0222,1.0,1.0,1.0
44.74,387.0111,1.0,1.0,1.0
44.76,316.4833,1.0,1.0,1.0
44.78,414.9445,1.0,1.0,1.0
44.8,369.5056,1.0,1.0,1.0
44.82,393.0,1.0,1.0,1.0
44.84,413.0555,1.0,1.0,1.0
44.86,378.9889,1.0,1.0,1.0
44.88,434.0111,1.0,1.0,1.0
44.9,436.9889,1.0,1.0,1.0
44.92,399.5278,1.0,1.0,1.0
44.94,403.4278,1.0,1.0,1.0
44.96,419.5056,1.0,1.0,1.0
44.98,476.9778,1.0,1.0,1.0
45.0,475.9889,1.0,1.0,1.0
45.02,458.0222,1.0,1.0,1.0
45.04,431.4833,1.0,1.0,1.0
45.06,506.5278,1.0,1.0,1.0
45.08,456.5056,1.0,1.0,1.0
45.1,511.4944,1.0,1.0,1.0
45.12,442.5167,1.0,1.0,1.0
45.14,462.0,1.0,1.0,1.0
45.16,491.4833,1.0,1.0,1.0
45.18,465.9778,1.0,1.0,1.0
45.2,480.4944,1.0,1.0,1.0
45.22,466.0111,1.0,1.0,1.0
45.24,483.4833,1.0,1.0,1.0
45.26,516.0111,1.0,1.0,1.0
45.28,471.9778,1.0,1.0,1.0
45.3,466.9667,1.0,1.0,1.0
45.32,485.9556,1.0,1.0,1.0
45.34,455.5056,1.0,1.0,1.0
45.36,541.5389,1.0,1.0,1.0
45.38,528.0222,1.0,1.0,1.0
45.4,499.9778,1.0,1.0,1.0
45.42,516.0222,1.0,1.0,1.0
45.44,533.5278,1.0,1.0,1.0
45.46,521.0111,1.0,1.0,1.0
45.48,540.0111,1.0,1.0,1.0
45.5,503.5056,1.0,1.0,1.0
45.52,519.0667,1.0,1.0,1.0
45.54,503.9556,1.0,1.0,1.0
45.56,579.5167,1.0,1.0,1.0
45.58,579.9778,1.0,1.0,1.0
45.6,563.0222,1.0,1.0,1.0
45.62,559.4833,1.0,1.0,1.0
45.64,587.4611,1.0,1.0,1.0
45.66,542.0,1.0,1.0,1.0
45.68,573.4611,1.0,1.0,1.0
45.7,521.4944,1.0,1.0,1.0
45.72,539.9111,1.0,1.0,1.0
45.74,533.5167,1.0,1.0,1.0
45.76,546.9889,1.0,1.0,1.0
45.78,515.4944,1.0,1.0,1.0
45.8,558.9889,1.0,1.0,1.0
45.82,517.0222,1.0,1.0,1.0
45.84,559.5056,1.0,1.0,1.0
45.86,469.4611,1.0,1.0,1.0
45.88,558.9667,1.0,1.0,1.0
45.9,617.9445,1.0,1.0,1.0
45.92,539.4722,1.0,1.0,1.0
45.94,538.0111,1.0,1.0,1.0
45.96,606.5167,1.0,1.0,1.0
45.98,605.5167,1.0,1.0,1.0
46.0,524.0111,1.0,1.0,1.0
46.02,555.4944,1.0,1.0,1.0
46.04,569.5056,1.0,1.0,1.0
46.06,539.0333,1.0,1.0,1.0
46.08,569.0222,1.0,1.0,1.0
46.1,581.4833,1.0,1.0,1.0
46.12,540.4833,1.0,1.0,1.0
46.14,536.4833,1.0,1.0,1.0
46.16,549.9667,1.0,1.0,1.0
46.18,519.0222,1.0,1.0,1.0
46.2,524.4833,1.0,1.0,1.0
46.22,541.0222,1.0,1.0,1.0
46.24,510.4722,1.0,1.0,1.0
46.26,498.9889,1.0,1.0,1.0
46.28,514.9667,1.0,1.0,1.0
46.3,485.5389,1.0,1.0,1.0
46.32,501.5056,1.0,1.0,1.0
46.34,544.4944,1.0,1.0,1.0
46.36,552.5167,1.0,1.0,1.0
46.38,538.9889,1.0,1.0,1.0
46.4,512.45,1.0,1.0,1.0
46.42,503.4833,1.0,1.0,1.0
46.44,474.5056,1.0,1.0,1.0
46.46,525.5056,1.0,1.0,1.0
46.48,535.5389,1.0,1.0,1.0
46.5,500.0,1.0,1.0,1.0
46.52,523.0,1.0,1.0,1.0
46.54,521.4722,1.0,1.0,1.0
46.56,503.0,1.0,1.0,1.0
46.58,497.5278,1.0,1.0,1.0
46.6,539.4833,1.0,1.0,1.0
46.62,549.9778,1.0,1.0,1.0
46.64,493.4722,1.0,1.0,1.0
46.66,531.4944,1.0,1.0,1.0
46.68,529.0222,1.0,1.0,1.0
46.7,507.0,1.0,1.0,1.0
46.72,523.0111,1.0,1.0,1.0
46.74,544.5278,1.0,1.0,1.0
46.76,527.9889,1.0,1.0,1.0
46.78,484.5167,1.0,1.0,1.0
46.8,455.0,1.0,1.0,1.0
46.82,486.5167,1.0,1.0,1.0
46.84,485.5167,1.0,1.0,1.0
46.86,538.5056,1.0,1.0,1.0
46.88,529.9889,1.0,1.0,1.0
46.9,509.4611,1.0,1.0,1.0
46.92,508.4833,1.0,1.0,1.0
46.94,557.0555,1.0,1.0,1.0
46.96,539.5278,1.0,1.0,1.0
46.98,502.4944,1.0,1.0,1.0
47.0,536.5167,1.0,1.0,1.0
47.02,520.0333,1.0,1.0,1.0
47.04,535.5167,1.0,1.0,1.0
47.06,540.9778,1.0,1.0,1.0
47.08,577.0555,1.0,1.0,1.0
47.1,616.0,1.0,1.0,1.0
47.12,581.9667,1.0,1.0,1.0
47.14,598.9778,1.0,1.0,1.0
47.16,598.9667,1.0,1.0,1.0
47.18,635.45,1.0,1.0,1.0
47.2,671.0,1.0,1.0,1.0
47.22,644.5389,1.0,1.0,1.0
47.24,709.9667,1.0,1.0,1.0
47.26,662.5056,1.0,1.0,1.0
47.28,677.4944,1.0,1.0,1.0
47.3,684.9333,1.0,1.0,1.0
47.32,784.9889,1.0,1.0,1.0
47.34,784.4611,1.0,1.0,1.0
47.36,822.9556,1.0,1.0,1.0
47.38,829.4722,1.0,1.0,1.0
47.4,860.4833,1.0,1.0,1.0
47.42,956.0333,1.0,1.0,1.0
47.44,1064.0,1.0,1.0,1.0
47.46,1077.53,1.0,1.0,1.0
47.48,1092.48,1.0,1.0,1.0
47.5,1243.57,1.0,1.0,1.0
47.52,1225.48,1.0,1.0,1.0
47.54,1419.03,1.0,1.0,1.0
47.56,1528.51,1.0,1.0,1.0
47.58,1487.93,1.0,1.0,1.0
47.6,1624.51,1.0,1.0,1.0
47.62,1829.94,1.0,1.0,1.0
47.64,1998.43,1.0,1.0,1.0
47.66,2319.98,1.0,1.0,1.0
47.68,2514.53,1.0,1.0,1.0
47.7,2951.37,1.0,1.0,1.0
47.72,3401.33,1.0,1.0,1.0
47.74,4065.96,1.0,1.0,1.0
47.76,4918.97,1.0,1.0,1.0
47.78,6033.63,1.0,1.0,1.0
47.8,7435.53,1.0,1.0,1.0
47.82,9728.9,1.0,1.0,1.0
47.84,13301.8,1.0,1.0,1.0
47.86,20355.5,1.0,1.0,1.0
47.88,43829.4,1.0,1.0,1.0
47.9,129295,1.0,1.0,1.0
47.92,132154,1.0,1.0,1.0
47.94,290775.625,1.0,1.0,1.0
47.96,2925341.5,1.0,1.0,1.0
47.98,33471802.0,1.0,1.0,1.0
48.0,2561887.5,1.0,1.0,1.0
48.02,249747,1.0,1.0,1.0
48.04,107809,1.0,1.0,1.0
48.06,50911.6,1.0,1.0,1.0
48.08,28268.2,1.0,1.0,1.0
48.1,17061.377,1.0,1.0,1.0
48.12,11515.9,1.0,1.0,1.0
48.14,8099.54,1.0,1.0,1.0
48.16,5829.29,1.0,1.0,1.0
48.18,4562.99,1.0,1.0,1.0
48.2,3600.08,1.0,1.0,1.0
48.22,2902.99,1.0,1.0,1.0
48.24,2476.57,1.0,1.0,1.0
48.26,1963.99,1.0,1.0,1.0
48.28,1717.53,1.0,1.0,1.0
48.3,1400.55,1.0,1.0,1.0
48.32,1263.49,1.0,1.0,1.0
48.34,1082.56,1.0,1.0,1.0
48.36,981.4722,1.0,1.0,1.0
48.38,833.4722,1.0,1.0,1.0
48.4,809.5056,1.0,1.0,1.0
48.42,675.0111,1.0,1.0,1.0
48.44,651.4611,1.0,1.0,1.0
48.46,486.0222,1.0,1.0,1.0
48.48,468.4944,1.0,1.0,1.0
48.5,454.5167,1.0,1.0,1.0
48.52,416.4944,1.0,1.0,1.0
48.54,369.5056,1.0,1.0,1.0
48.56,321.4944,1.0,1.0,1.0
48.58,267.9667,1.0,1.0,1.0
48.6,235.5056,1.0,1.0,1.0
48.62,226.4722,1.0,1.0,1.0
48.64,239.4944,1.0,1.0,1.0
48.66,199.4944,1.0,1.0,1.0
48.68,200.9778,1.0,1.0,1.0
48.7,196.0111,1.0,1.0,1.0
48.72,195.5056,1.0,1.0,1.0
48.74,160.5167,1.0,1.0,1.0
48.76,157.9889,1.0,1.0,1.0
48.78,181.9889,1.0,1.0,1.0
48.8,126.4833,1.0,1.0,1.0
48.82,122.0,1.0,1.0,1.0
48.84,148.5056,1.0,1.0,1.0
48.86,122.9889,1.0,1.0,1.0
48.88,109.4944,1.0,1.0,1.0
48.9,80.5056,1.0,1.0,1.0
48.92,103.5056,1.0,1.0,1.0
48.94,76.5056,1.0,1.0,1.0
48.96,83.9889,1.0,1.0,1.0
48.98,69.0111,1.0,1.0,1.0
49.0,71.4944,1.0,1.0,1.0
49.02,76.5056,1.0,1.0,1.0
49.04,67.5056,1.0,1.0,1.0
49.06,69.4944,1.0,1.0,1.0
49.08,58.0111,1.0,1.0,1.0
49.1,43.4944,1.0,1.0,1.0
49.12,59.0,1.0,1.0,1.0
49.14,43.5056,1.0,1.0,1.0
49.16,41.5056,1.0,1.0,1.0
49.18,47.0,1.0,1.0,1.0
49.2,46.0,1.0,1.0,1.0
49.22,58.4833,1.0,1.0,1.0
49.24,40.0,1.0,1.0,1.0
49.26,33.0,1.0,1.0,1.0
49.28,23.0,1.0,1.0,1.0
49.3,41.0,1.0,1.0,1.0
49.32,35.0111,1.0,1.0,1.0
49.34,26.0,1.0,1.0,1.0
49.36,32.4944,1.0,1.0,1.0
49.38,24.0,1.0,1.0,1.0
49.4,18.0,1.0,1.0,1.0
49.42,23.4944,1.0,1.0,1.0
49.44,34.0,1.0,1.0,1.0
49.46,30.9889,1.0,1.0,1.0
49.48,27.4944,1.0,1.0,1.0
49.5,34.0,1.0,1.0,1.0
49.52,29.0,1.0,1.0,1.0
49.54,28.4944,1.0,1.0,1.0
49.56,12.5167,1.0,1.0,1.0
49.58,28.0,1.0,1.0,1.0
49.6,17.0,1.0,1.0,1.0
49.62,10.0,1.0,1.0,1.0
49.64,13.0,1.0,1.0,1.0
49.66,16.0,1.0,1.0,1.0
49.68,33.0,1.0,1.0,1.0
49.7,17.4944,1.0,1.0,1.0
49.72,19.0,1.0,1.0,1.0
49.74,18.5056,1.0,1.0,1.0
49.76,23.4944,1.0,1.0,1.0
49.78,16.5056,1.0,1.0,1.0
49.8,16.0,1.0,1.0,1.0
49.82,12.5056,1.0,1.0,1.0
49.84,4.0,1.0,1.0,1.0
49.86,23.0111,1.0,1.0,1.0
49.88,7.5056,1.0,1.0,1.0
49.9,8.0,1.0,1.0,1.0
49.92,16.0,1.0,1.0,1.0
49.94,15.0,1.0,1.0,1.0
49.96,20.4944,1.0,1.0,1.0
49.98,26.0,1.0,1.0,1.0
50.0,18.5056,1.0,1.0,1.0
50.02,21.0,1.0,1.0,1.0
50.04,12.5056,1.0,1.0,1.0
50.06,23.0,1.0,1.0,1.0
50.08,17.0,1.0,1.0,1.0
50.1,19.0,1.0,1.0,1.0
50.12,15.5056,1.0,1.0,1.0
50.14,26.0,1.0,1.0,1.0
50.16,19.0,1.0,1.0,1.0
50.18,8.0,1.0,1.0,1.0
50.2,15.0111,1.0,1.0,1.0
50.22,7.0,1.0,1.0,1.0
50.24,18.0,1.0,1.0,1.0
50.26,12.4944,1.0,1.0,1.0
50.28,6.0,1.0,1.0,1.0
50.3,19.0,1.0,1.0,1.0
50.32,17.0,1.0,1.0,1.0
50.34,6.0,1.0,1.0,1.0
50.36,7.0,1.0,1.0,1.0
50.38,11.0,1.0,1.0,1.0
50.4,7.4944,1.0,1.0,1.0
50.42,0.9889,1.0,1.0,1.0
50.44,24.0,1.0,1.0,1.0
50.46,9.0,1.0,1.0,1.0
50.48,12.0,1.0,1.0,1.0
50.5,18.0,1.0,1.0,1.0
50.52,12.0,1.0,1.0,1.0
50.54,19.5056,1.0,1.0,1.0
50.56,10.0,1.0,1.0,1.0
50.58,23.0,1.0,1.0,1.0
50.6,12.0,1.0,1.0,1.0
50.62,3.0,1.0,1.0,1.0
50.64,4.4944,1.0,1.0,1.0
50.66,10.0,1.0,1.0,1.0
50.68,5.0,1.0,1.0,1.0
50.7,4.0,1.0,1.0,1.0
50.72,4.0,1.0,1.0,1.0
50.74,14.0,1.0,1.0,1.0
50.76,7.0,1.0,1.0,1.0
50.78,6.0,1.0,1.0,1.0
50.8,19.0,1.0,1.0,1.0
50.82,10.5056,1.0,1.0,1.0
50.84,10.4944,1.0,1.0,1.0
50.86,5.0,1.0,1.0,1.0
50.88,11.0,1.0,1.0,1.0
50.9,6.0,1.0,1.0,1.0
50.92,0.0,1.0,1.0,1.0
50.94,7.0,1.0,1.0,1.0
50.96,4.0,1.0,1.0,1.0
50.98,4.0,1.0,1.0,1.0
51.0,15.5056,1.0,1.0,1.0
51.02,3.0,1.0,1.0,1.0
51.04,12.0111,1.0,1.0,1.0
51.06,3.0,1.0,1.0,1.0
51.08,13.0,1.0,1.0,1.0
51.1,43.0,1.0,1.0,1.0
51.12,0.5056,1.0,1.0,1.0
51.14,4.0,1.0,1.0,1.0
51.16,6.4944,1.0,1.0,1.0
51.18,12.0,1.0,1.0,1.0
51.2,3.0,1.0,1.0,1.0
51.22,6.0,1.0,1.0,1.0
51.24,6.0,1.0,1.0,1.0
51.26,8.0,1.0,1.0,1.0
51.28,0.0,1.0,1.0,1.0
51.3,8.9889,1.0,1.0,1.0
51.32,2.0,1.0,1.0,1.0
51.34,8.0,1.0,1.0,1.0
51.36,11.0,1.0,1.0,1.0
51.38,7.0,1.0,1.0,1.0
51.4,6.0,1.0,1.0,1.0
51.42,8.0,1.0,1.0,1.0
51.44,0.0,1.0,1.0,1.0
51.46,6.4944,1.0,1.0,1.0
51.48,5.0,1.0,1.0,1.0
51.5,6.5056,1.0,1.0,1.0
51.52,8.0,1.0,1.0,1.0
51.54,3.0,1.0,1.0,1.0
51.56,13.0,1.0,1.0,1.0
51.58,5.0,1.0,1.0,1.0
51.6,3.0,1.0,1.0,1.0
51.62,9.0,1.0,1.0,1.0
51.64,10.0,1.0,1.0,1.0
51.66,9.0,1.0,1.0,1.0
51.68,3.0,1.0,1.0,1.0
51.7,0.0,1.0,1.0,1.0
51.72,4.0,1.0,1.0,1.0
51.74,7.0,1.0,1.0,1.0
51.76,2.0,1.0,1.0,1.0
51.78,5.0,1.0,1.0,1.0
51.8,4.0,1.0,1.0,1.0
51.82,0.0,1.0,1.0,1.0
51.84,3.0,1.0,1.0,1.0
51.86,5.0,1.0,1.0,1.0
51.88,3.0,1.0,1.0,1.0
51.9,1.0,1.0,1.0,1.0
51.92,0.0,1.0,1.0,1.0
51.94,3.0,1.0,1.0,1.0
51.96,2.0,1.0,1.0,1.0
51.98,4.0,1.0,1.0,1.0
52.0,6.0,1.0,1.0,1.0
52.02,3.0,1.0,1.0,1.0
52.04,9.0,1.0,1.0,1.0
52.06,0.0,1.0,1.0,1.0
52.08,3.0,1.0,1.0,1.0
52.1,5.0,1.0,1.0,1.0
52.12,0.0,1.0,1.0,1.0
52.14,3.5056,1.0,1.0,1.0
52.16,5.0,1.0,1.0,1.0
52.18,36.0,1.0,1.0,1.0
52.2,4.0,1.0,1.0,1.0
52.22,5.0,1.0,1.0,1.0
52.24,1.5056,1.0,1.0,1.0
52.26,0.0,1.0,1.0,1.0
52.28,10.0,1.0,1.0,1.0
52.3,1.5056,1.0,1.0,1.0
52.32,4.0,1.0,1.0,1.0
52.34,3.0,1.0,1.0,1.0
52.36,3.0,1.0,1.0,1.0
52.38,6.0,1.0,1.0,1.0
52.4,8.4944,1.0,1.0,1.0
52.42,5.0,1.0,1.0,1.0
52.44,3.5056,1.0,1.0,1.0
52.46,0.0,1.0,1.0,1.0
52.48,0.0,1.0,1.0,1.0
52.5,4.9778,1.0,1.0,1.0
52.52,7.0,1.0,1.0,1.0
52.54,0.0,1.0,1.0,1.0
52.56,4.0,1.0,1.0,1.0
52.58,6.4944,1.0,1.0,1.0
52.6,0.0,1.0,1.0,1.0
52.62,2.0,1.0,1.0,1.0
52.64,5.0,1.0,1.0,1.0
52.66,7.0,1.0,1.0,1.0
52.68,2.0,1.0,1.0,1.0
52.7,11.0,1.0,1.0,1.0
52.72,0.0,1.0,1.0,1.0
52.74,5.0,1.0,1.0,1.0
52.76,4.0,1.0,1.0,1.0
52.78,2.0,1.0,1.0,1.0
52.8,4.0,1.0,1.0,1.0
52.82,0.0,1.0,1.0,1.0
52.84,7.0,1.0,1.0,1.0
52.86,6.0,1.0,1.0,1.0
52.88,0.0,1.0,1.0,1.0
52.9,4.4944,1.0,1.0,1.0
52.92,5.0,1.0,1.0,1.0
52.94,8.0,1.0,1.0,1.0
52.96,0.0,1.0,1.0,1.0
52.98,4.4944,1.0,1.0,1.0
53.0,7.0,1.0,1.0,1.0
53.02,2.0,1.0,1.0,1.0
53.04,6.0,1.0,1.0,1.0
53.06,8.0,1.0,1.0,1.0
53.08,8.5056,1.0,1.0,1.0
53.1,4.0,1.0,1.0,1.0
53.12,3.0,1.0,1.0,1.0
53.14,10.0,1.0,1.0,1.0
53.16,7.4944,1.0,1.0,1.0
53.18,0.0,1.0,1.0,1.0
53.2,4.0,1.0,1.0,1.0
53.22,0.0,1.0,1.0,1.0
53.24,4.0,1.0,1.0,1.0
53.26,9.0,1.0,1.0,1.0
53.28,0.9889,1.0,1.0,1.0
53.3,4.0,1.0,1.0,1.0
53.32,0.0,1.0,1.0,1.0
53.34,4.0,1.0,1.0,1.0
53.36,4.0,1.0,1.0,1.0
53.38,0.0,1.0,1.0,1.0
53.4,4.0,1.0,1.0,1.0
53.42,6.5056,1.0,1.0,1.0
53.44,2.0,1.0,1.0,1.0
53.46,2.0,1.0,1.0,1.0
53.48,1.0,1.0,1.0,1.0
53.5,4.0,1.0,1.0,1.0
53.52,2.0,1.0,1.0,1.0
53.54,4.0,1.0,1.0,1.0
53.56,5.0,1.0,1.0,1.0
53.58,6.0,1.0,1.0,1.0
53.6,3.0,1.0,1.0,1.0
53.62,4.0,1.0,1.0,1.0
53.64,5.0,1.0,1.0,1.0
53.66,4.0,1.0,1.0,1.0
53.68,0.0,1.0,1.0,1.0
53.7,6.5056,1.0,1.0,1.0
53.72,2.0,1.0,1.0,1.0
53.74,1.0111,1.0,1.0,1.0
53.76,4.0,1.0,1.0,1.0
53.78,2.0,1.0,1.0,1.0
53.8,4.0,1.0,1.0,1.0
53.82,2.0,1.0,1.0,1.0
53.84,0.0,1.0,1.0,1.0
53.86,0.0,1.0,1.0,1.0
53.88,4.0,1.0,1.0,1.0
53.9,3.0,1.0,1.0,1.0
53.92,4.0,1.0,1.0,1.0
53.94,2.0,1.0,1.0,1.0
53.96,6.0,1.0,1.0,1.0
53.98,2.0,1.0,1.0,1.0
54.0,3.0,1.0,1.0,1.0
54.02,7.0,1.0,1.0,1.0
54.04,10.0,1.0,1.0,1.0
54.06,3.4944,1.0,1.0,1.0
54.08,2.4944,1.0,1.0,1.0
54.1,6.0,1.0,1.0,1.0
54.12,4.0,1.0,1.0,1.0
54.14,2.0,1.0,1.0,1.0
54.16,0.0,1.0,1.0,1.0
54.18,2.0,1.0,1.0,1.0
54.2,2.0,1.0,1.0,1.0
54.22,4.0,1.0,1.0,1.0
54.24,7.0,1.0,1.0,1.0
54.26,4.0,1.0,1.0,1.0
54.28,2.0,1.0,1.0,1.0
54.3,4.0,1.0,1.0,1.0
54.32,0.0,1.0,1.0,1.0
54.34,5.0,1.0,1.0,1.0
54.36,0.0,1.0,1.0,1.0
54.38,6.0,1.0,1.0,1.0
54.4,6.0,1.0,1.0,1.0
54.42,0.0,1.0,1.0,1.0
54.44,0.0,1.0,1.0,1.0
54.46,3.0,1.0,1.0,1.0
54.48,2.0,1.0,1.0,1.0
54.5,0.0,1.0,1.0,1.0
54.52,6.0,1.0,1.0,1.0
54.54,4.0,1.0,1.0,1.0
54.56,0.0,1.0,1.0,1.0
54.58,0.0,1.0,1.0,1.0
54.6,3.0,1.0,1.0,1.0
54.62,2.0,1.0,1.0,1.0
54.64,0.0,1.0,1.0,1.0
54.66,2.0,1.0,1.0,1.0
54.68,3.0,1.0,1.0,1.0
54.7,11.0,1.0,1.0,1.0
54.72,1.0,1.0,1.0,1.0
54.74,0.0,1.0,1.0,1.0
54.76,0.0,1.0,1.0,1.0
54.78,0.0,1.0,1.0,1.0
54.8,0.0,1.0,1.0,1.0
54.82,0.0,1.0,1.0,1.0
54.84,4.0,1.0,1.0,1.0
54.86,3.0,1.0,1.0,1.0
54.88,4.0,1.0,1.0,1.0
54.9,4.0,1.0,1.0,1.0
54.92,4.0,1.0,1.0,1.0
54.94,2.0,1.0,1.0,1.0
54.96,0.0,1.0,1.0,1.0
54.98,3.0,1.0,1.0,1.0
55.0,2.0,1.0,1.0,1.0
55.02,3.0,1.0,1.0,1.0
55.04,4.0,1.0,1.0,1.0
55.06,5.0,1.0,1.0,1.0
55.08,0.0,1.0,1.0,1.0
55.1,0.0,1.0,1.0,1.0
55.12,4.0,1.0,1.0,1.0
55.14,4.5056,1.0,1.0,1.0
55.16,6.0,1.0,1.0,1.0
55.18,0.0,1.0,1.0,1.0
55.2,2.0,1.0,1.0,1.0
55.22,3.0,1.0,1.0,1.0
55.24,2.0,1.0,1.0,1.0
55.26,0.0,1.0,1.0,1.0
55.28,4.4944,1.0,1.0,1.0
55.3,0.0,1.0,1.0,1.0
55.32,0.0,1.0,1.0,1.0
55.34,10.0,1.0,1.0,1.0
55.36,2.0,1.0,1.0,1.0
55.38,6.0,1.0,1.0,1.0
55.4,4.0,1.0,1.0,1.0
55.42,0.0,1.0,1.0,1.0
55.44,4.0,1.0,1.0,1.0
55.46,0.0,1.0,1.0,1.0
55.48,2.5056,1.0,1.0,1.0
55.5,5.0,1.0,1.0,1.0
55.52,0.5056,1.0,1.0,1.0
55.54,0.0,1.0,1.0,1.0
55.56,0.0,1.0,1.0,1.0
55.58,0.0,1.0,1.0,1.0
55.6,8.0,1.0,1.0,1.0
55.62,0.0,1.0,1.0,1.0
55.64,0.0,1.0,1.0,1.0
55.66,5.0,1.0,1.0,1.0
55.68,1.0,1.0,1.0,1.0
55.7,2.0,1.0,1.0,1.0
55.72,6.0,1.0,1.0,1.0
55.74,0.0,1.0,1.0,1.0
55.76,4.0,1.0,1.0,1.0
55.78,0.0,1.0,1.0,1.0
55.8,2.0,1.0,1.0,1.0
55.82,8.0,1.0,1.0,1.0
55.84,5.0,1.0,1.0,1.0
55.86,5.4944,1.0,1.0,1.0
55.88,1.5056,1.0,1.0,1.0
55.9,5.0,1.0,1.0,1.0
55.92,9.0,1.0,1.0,1.0
55.94,9.0,1.0,1.0,1.0
55.96,2.0,1.0,1.0,1.0
55.98,9.5056,1.0,1.0,1.0
56.0,4.0,1.0,1.0,1.0
56.02,5.0,1.0,1.0,1.0
56.04,0.0,1.0,1.0,1.0
56.06,5.5056,1.0,1.0,1.0
56.08,3.0,1.0,1.0,1.0
56.1,0.0,1.0,1.0,1.0
56.12,4.0,1.0,1.0,1.0
56.14,0.4944,1.0,1.0,1.0
56.16,4.0,1.0,1.0,1.0
56.18,4.0,1.0,1.0,1.0
56.2,3.0,1.0,1.0,1.0
56.22,7.0,1.0,1.0,1.0
56.24,2.0,1.0,1.0,1.0
56.26,3.0,1.0,1.0,1.0
56.28,10.0,1.0,1.0,1.0
56.3,4.0,1.0,1.0,1.0
56.32,2.0,1.0,1.0,1.0
56.34,2.0,1.0,1.0,1.0
56.36,0.4944,1.0,1.0,1.0
56.38,2.0,1.0,1.0,1.0
56.4,57.0,1.0,1.0,1.0
56.42,0.0,1.0,1.0,1.0
56.44,2.0,1.0,1.0,1.0
56.46,0.0,1.0,1.0,1.0
56.48,2.4944,1.0,1.0,1.0
56.5,4.0,1.0,1.0,1.0
56.52,0.4944,1.0,1.0,1.0
56.54,3.5056,1.0,1.0,1.0
56.56,0.0,1.0,1.0,1.0
56.58,2.0,1.0,1.0,1.0
56.6,2.0,1.0,1.0,1.0
56.62,0.0,1.0,1.0,1.0
56.64,0.5056,1.0,1.0,1.0
56.66,2.0,1.0,1.0,1.0
56.68,0.0,1.0,1.0,1.0
56.7,14.0,1.0,1.0,1.0
56.72,0.5056,1.0,1.0,1.0
56.74,4.0,1.0,1.0,1.0
56.76,4.0,1.0,1.0,1.0
56.78,2.0,1.0,1.0,1.0
56.8,0.0,1.0,1.0,1.0
56.82,4.0,1.0,1.0,1.0
56.84,4.0,1.0,1.0,1.0
56.86,2.0,1.0,1.0,1.0
56.88,4.0,1.0,1.0,1.0
56.9,0.0,1.0,1.0,1.0
56.92,0.0,1.0,1.0,1.0
56.94,2.0,1.0,1.0,1.0
56.96,0.0,1.0,1.0,1.0
56.98,0.0,1.0,1.0,1.0
57.0,6.0,1.0,1.0,1.0