File: XRD:XRR/STO/22098_STOL/22098_STOL_XRD_2-Theta_Omega.asc
*TYPE		=  Raw
*CLASS		=  ASCII CLASS
*SAMPLE		=
*COMMENT	=
*FNAME		=  22098_STOL_XRD_2-Theta_Omega.asc
*DATE		=  22-Jun-22 08:12

*GROUP_COUNT	=  1
*GONIO		=  SmartLab(In-plane), 0.000000
*ATTACHMENT	=  Z-Phi Stage
*ASC		=  0, 0, 0.000000, 0.000000
*I_MONOCHRO	=  Ge(220)x2, 0.000000
*FILTER		=  None
*C_MONOCHRO	=  None, 0.000000
*SLIT_NAME	=  0, Incident slit
*SLIT_NAME	=  1, Receiving slit # 1
*SLIT_NAME	=  2, Receiving slit # 2
*COUNTER	=  D/teX Ultra 250, 0
*POS_FORMAT	=  0
*SCAN_AXIS	=  2Theta/Omega
*MEAS_MODE	=  Continuous Scanning
*TARGET		=  29
*XRAY_CHAR	=  K-ALPHA1
*WAVE_LENGTH1	=  1.54059
*WAVE_LENGTH2	=  1.54441
*THICKNESS	=  0, 0.000000
*MU		=  0, 0.000000
*SCAN_MODE	=  2Theta/Omega
*SPEED_DIM	=  sec./step
*XUNIT		=  deg.
*YUNIT		=  counts
*SCALE_MODE	=  1
*REP_COUNT	=  0
*SE_COUNT	=  0
*STD_MATERIAL	=  Unknown, Unknown, 0.000000, 0.000000, 0.000000, 0.000000, 0.000000, 0.000000
*LATT_CONS	=  0, Unknown, Unknown, 0.000000, 0.000000, 0.000000, 0.000000, 0.000000, 0.000000
*SEC_COUNT	=  1
*TSPEC_SIZE	=  0
*EXTRA_SIZE	=  0
*MEMO		=

*BEGIN
*GROUP		=  0
*START		=  39
*STOP		=  57
*STEP		=  0.01
*OFFSET		=  0.1723
*SPEED		=  29.9581
*SLIT_SPEC	=  0, 0.400mm, 0.4, 0.000000
*SLIT_SPEC	=  1, 0.400mm, 0.4, 0.000000
*SLIT_SPEC	=  2, 0.400mm, 0.4, 0.000000
*KV		=  40
*MA		=  30
*LOW		=  0.000000
*HIGH		=  0.000000
*CTEMPER	=  0, 0.000000
*CTEMPER	=  1, 0.000000
*CTEMPER	=  2, 0.000000
*PAREX		=  0, 0.000000
*PAREX		=  1, 0.000000
*PAREX		=  2, 0.000000
*PAREX		=  3, 0.000000
*PAREX		=  4, 0.000000
*PAREX		=  5, 0.000000
*PAREX		=  6, 0.000000
*PAREX		=  7, 0.000000
*PAREX		=  8, 0.000000
*PAREX		=  9, 0.000000
*PAREX		=  10, 0.000000
*PAREX		=  11, 0.000000
*PAREX		=  12, 0.000000
*PAREX		=  13, 0.000000
*PAREX		=  14, 0.000000
*PAREX		=  15, 0.000000
*FULL_SCALE	=  1428173.5
*INDEX		=  0, 0, 0
*COUNT		=  1801
6, 0.000000, 0.000000, 10
2, 2, 0.000000, 3
2, 12, 4, 2
4, 3, 2, 3
6, 2, 0.000000, 38
0.000000, 3, 0.000000, 6
6, 7, 2, 0.000000
7, 4, 2, 2
4, 2, 4, 2
5, 0.000000, 5, 0.000000
3.49445, 5.50555, 0.000000, 0.000000
4, 3, 0.000000, 2
2, 5, 0.000000, 8
0.000000, 4, 4, 0.000000
0.000000, 5.49445, 4.50555, 7
0.000000, 1, 6, 0.000000
6, 4, 8, 3
8, 3, 7, 7
6, 2, 2, 4
2, 3, 4, 5
5, 0.000000, 0.000000, 6
3, 5, 3, 31
0.000000, 2, 0.494446, 10
7.50555, 2, 2, 2
0.000000, 1, 0.000000, 3
7, 4, 0.000000, 3
7, 2, 6, 3.49445
4.50555, 2, 0.000000, 0.000000
5, 2, 0.000000, 4
0.000000, 0.000000, 0.000000, 1.49445
8.50555, 0.000000, 3, 2
2, 0.000000, 4, 2
12, 2, 0.000000, 0.000000
3, 6, 0.000000, 0.000000
0.000000, 2, 2, 5
7, 9, 6, 5
10, 11, 3, 2
5, 10.4944, 5.50555, 3
4, 2, 12.4944, 3.50555
4, 8, 0.000000, 7
5, 5, 13, 4
7, 4, 3, 3.49445
4.50555, 3.49445, 23.4944, 11.0111
6, 2, 8, 7
8, 2, 11, 4
3.49445, 15.5056, 3, 0.000000
5, 5, 4, 0.000000
14, 8, 15, 9
2, 7.49445, 9.50555, 4
7, 2, 0.000000, 4.49445
7.50555, 7, 4, 11
0.494446, 7.50555, 13, 15
8, 12, 5, 14
3, 15, 12, 2
1, 6, 8.49445, 5.50555
10.4944, 7.50555, 9, 8
6, 6, 11, 2
7, 5, 15.4944, 5.50555
7.49445, 8, 8.50555, 8
4, 8, 15, 2
10, 2, 10, 17.4944
15.5056, 4.49445, 3.50555, 11
10, 6.49445, 3.50555, 6
5, 3, 14, 7
5, 10, 13.9889, 13.5056
13.5056, 10, 4, 8.49445
5.50555, 6, 6, 7
6.98889, 5.01111, 10, 9
16, 23, 9, 3
11, 9, 15, 0.000000
9, 6, 14, 6
5, 6, 6.98889, 4.01111
4, 15, 5, 7.49445
7.50555, 0.000000, 6, 5.98889
13.0111, 7, 7, 8.49445
4.50555, 2, 8, 3
7, 7, 6, 5
6, 4, 1, 8
1, 6, 3, 7
6, 2, 3, 13
5, 1, 3, 6
9, 0.000000, 7, 0.000000
6, 6, 9, 12
5, 0.000000, 0.000000, 2
0.000000, 8, 6, 2
7, 4, 9, 0.000000
3, 4, 0.000000, 5
3, 2, 0.000000, 3
3, 2, 6, 4
6, 14, 6, 6
2, 3, 10, 7
4, 4, 8, 3
3, 6, 4, 2
13, 8, 9, 16
13, 13, 5.49445, 11.5056
7, 8, 12, 8
2, 14.4944, 14.5056, 13.9889
18.5056, 12.5056, 9.49445, 21
12.4944, 14.0111, 16, 13
25, 16.4944, 16.5056, 25
23, 13, 15, 20
7, 21.4944, 23.5056, 15.4944
23.5056, 19.9889, 15.0111, 32
30, 24.4944, 29.4833, 17.0222
17.4944, 25.5056, 18, 28.9889
36.0111, 31.4833, 27.5167, 33.9889
32.0111, 32.4833, 31.5056, 30
35, 31.5056, 40.4944, 50.0111
40.4944, 31.5056, 41, 38.4944
44, 58, 59, 66
25, 48.4944, 57.5056, 62.4944
54.0111, 55.4944, 68.4833, 77.0222
59.4944, 62.9889, 75.0111, 73.4944
85.4944, 75.5167, 58, 78.4833
94.5056, 95.4944, 65.5056, 96.0111
85.4833, 81.5167, 76.4833, 81.5056
94.0111, 78.4833, 72.0111, 92.4833
87.5167, 124, 126, 96
107.494, 111.494, 106, 120
121.989, 114, 120.517, 127.011
116.989, 101.506, 137, 99.4833
120, 132, 119.011, 129
144.483, 145.022, 123.494, 146
123, 137.483, 168, 134.506
180.022, 156.989, 139.483, 151.022
170.494, 169.989, 177.517, 159.483
192.506, 200.483, 195.517, 227.989
188.517, 210.494, 194.978, 203.033
196.494, 203.483, 211, 209.506
196.494, 193.494, 242.022, 216.978
227.517, 230, 211.989, 254.506
239.472, 228.528, 190.989, 225.033
211.956, 253.517, 253.483, 246.506
263.506, 264.517, 242.989, 250.011
264.956, 266.022, 277.506, 267.517
262.483, 325.978, 260.539, 297.989
245.978, 254.033, 290, 277.989
309.483, 302.011, 308.494, 318.517
310.461, 317.033, 352.494, 323
347.506, 329.011, 326.978, 329.494
331, 352, 345.494, 314
360.494, 351.506, 375.011, 341.494
405.528, 349.978, 339.483, 382.506
368.022, 384.967, 387.011, 402.022
316.483, 373.033, 414.944, 396.528
369.506, 367.989, 393, 408.472
413.056, 435.978, 378.989, 416.506
434.011, 401.989, 436.989, 423
399.528, 402.506, 403.428, 434.056
419.506, 429.483, 476.978, 402.011
475.989, 433.022, 458.022, 499.483
431.483, 474.506, 506.528, 454.494
456.506, 441.956, 511.494, 461.528
442.517, 441.967, 462, 452.033
491.483, 473, 465.978, 512.517
480.494, 470.506, 466.011, 510.011
483.483, 506.494, 516.011, 513
471.978, 549.539, 466.967, 520.033
485.956, 518.528, 455.506, 490.472
541.539, 573.933, 528.022, 524.011
499.978, 539.506, 516.022, 493.978
533.528, 515.967, 521.011, 547.494
540.011, 577.989, 503.506, 550.483
519.067, 501.483, 503.956, 521.011
579.517, 536.506, 579.978, 510.517
563.022, 520.967, 559.483, 559.561
587.461, 542, 542, 559.528
573.461, 573.517, 521.494, 507.517
539.911, 587.583, 533.517, 566.944
546.989, 559.044, 515.494, 568.506
558.989, 536, 517.022, 558.506
559.506, 500.011, 469.461, 538
558.967, 559.55, 617.944, 568.539
539.472, 553.528, 538.011, 587.967
606.517, 519.494, 605.517, 545.506
524.011, 565.978, 555.494, 551.978
569.506, 536.033, 539.033, 553.944
569.022, 519.989, 581.483, 524.517
540.483, 513.506, 536.483, 543.044
549.967, 594.528, 519.022, 536.483
524.483, 500.978, 541.022, 549.022
510.472, 605.033, 498.989, 572.494
514.967, 508.022, 485.539, 539.461
501.506, 548.506, 544.494, 538.506
552.517, 581.967, 538.989, 539.022
512.45, 542.55, 503.483, 528.022
474.506, 514.989, 525.506, 577.45
535.539, 523.506, 500, 488
523, 544, 521.472, 510.011
503, 550, 497.528, 533.506
539.483, 461.528, 549.978, 545.506
493.472, 458.022, 531.494, 511.494
529.022, 534.483, 507, 525.483
523.011, 496.989, 544.528, 517.011
527.989, 497.978, 484.517, 487.989
455, 534.011, 486.517, 561.461
485.517, 472.989, 538.506, 493.494
529.989, 515.044, 509.461, 549.528
508.483, 546.472, 557.056, 511.472
539.528, 552.978, 502.494, 546.494
536.517, 559.461, 520.033, 512.483
535.517, 537.011, 540.978, 597.483
577.056, 569.461, 616, 600.033
581.967, 565.506, 598.978, 563.539
598.967, 681.011, 635.45, 639.044
671, 648.461, 644.539, 580.506
709.967, 664.528, 662.506, 701
677.494, 733.528, 684.933, 772.539
784.989, 748, 784.461, 826.528
822.956, 848.056, 829.472, 882.022
860.483, 943.978, 956.033, 999.472
1064, 1053.48, 1077.53, 1085.01
1092.48, 1150.96, 1243.57, 1113.96
1225.48, 1324.51, 1419.03, 1442.94
1528.51, 1572.01, 1487.93, 1566.03
1624.51, 1743, 1829.94, 1895.04
1998.43, 2309.03, 2319.98, 2404.94
2514.53, 2787.52, 2951.37, 3155.07
3401.33, 3644.07, 4065.96, 4402.45
4918.97, 5372.83, 6033.63, 6689.7
7435.53, 8368.33, 9728.9, 11162.8
13301.8, 16385, 20355.5, 27506.8
43829.4, 144760, 129295, 106804
132154, 183232, 290776, 571784
2925341.5, 19156810, 33471802, 17025460
2561887.5, 513799, 249747, 158775
107809, 72753.6, 50911.6, 37239.7
28268.2, 21671.2, 17061.4, 14195.7
11515.9, 9288.23, 8099.54, 6905.06
5829.29, 5118.53, 4562.99, 4098.48
3600.08, 3209.61, 2902.99, 2719.99
2476.57, 2142.04, 1963.99, 1915.01
1717.53, 1569.48, 1400.55, 1367.53
1263.49, 1224.46, 1082.56, 1026.47
981.472, 879.572, 833.472, 767.011
809.506, 747.528, 675.011, 632.989
651.461, 590.517, 486.022, 553.011
468.494, 483, 454.517, 355.494
416.494, 380, 369.506, 363.022
321.494, 331, 267.967, 334.506
235.506, 256.011, 226.472, 264.528
239.494, 232.022, 199.494, 227
200.978, 201.517, 196.011, 187.506
195.506, 187.978, 160.517, 163
157.989, 149.011, 181.989, 174.517
126.483, 137, 122, 118.011
148.506, 121.989, 122.989, 122.022
109.494, 76.5056, 80.5056, 71.4833
103.506, 85, 76.5056, 69.4944
83.9889, 81.0111, 69.0111, 84
71.4944, 64.9889, 76.5056, 60
67.5056, 62.5056, 69.4944, 41.9889
58.0111, 66.5056, 43.4944, 34.5056
59, 50.9889, 43.5056, 41
41.5056, 49, 47, 39.4944
46, 46, 58.4833, 50.0222
40, 46, 33, 47
23, 46.4944, 41, 38.4944
35.0111, 27, 26, 28
32.4944, 29.5056, 24, 14
18, 47, 23.4944, 28.5056
34, 8, 30.9889, 14.0111
27.4944, 14.5056, 34, 16.4944
29, 30.5056, 28.4944, 22.9889
12.5167, 19, 28, 28
17, 25, 10, 24
13, 27, 16, 22
33, 15, 17.4944, 19.5056
19, 19.4944, 18.5056, 24.4944
23.4944, 10.5056, 16.5056, 24
16, 11.9889, 12.5056, 25.5056
4, 22.9889, 23.0111, 22.4944
7.50555, 16, 8, 18.4944
16, 12.5056, 15, 30
20.4944, 11.5056, 26, 10.4944
18.5056, 9, 21, 13.4944
12.5056, 18, 23, 9
17, 23, 19, 19.4944
15.5056, 13, 26, 22
19, 18, 8, 15.9889
15.0111, 10, 7, 22
18, 17, 12.4944, 5.50555
6, 9, 19, 11
17, 13, 6, 20
7, 16, 11, 2
7.49445, 13.5056, 0.988892, 11.0111
24, 13, 9, 15
12, 9, 18, 25
12, 10.4944, 19.5056, 14
10, 0.000000, 23, 14
12, 10, 3, 12
4.49445, 9.50555, 10, 4
5, 11, 4, 7
4, 14, 14, 12
7, 13, 6, 7
19, 0.494446, 10.5056, 7
10.4944, 2.50555, 5, 10
11, 5, 6, 4
0.000000, 5, 7, 17
4, 2, 4, 7.49445
15.5056, 10, 3, 13.9889
12.0111, 2, 3, 11
13, 3, 43, 9.49445
0.505554, 10, 4, 2
6.49445, 2.50555, 12, 0.000000
3, 2, 6, 5
6, 6, 8, 4
0.000000, 3, 8.98889, 4.01111
2, 7, 8, 12
11, 3, 7, 12
6, 9, 8, 0.000000
0.000000, 1, 6.49445, 3.50555
5, 0.494446, 6.50555, 6
8, 4, 3, 2
13, 11, 5, 2
3, 13, 9, 8
10, 2, 9, 4
3, 9, 0.000000, 11
4, 9, 7, 8
2, 5, 5, 3
4, 2, 0.000000, 0.000000
3, 4, 5, 3
3, 0.000000, 1, 7
0.000000, 7, 3, 4
2, 8, 4, 5
6, 9, 3, 8
9, 2, 0.000000, 3
3, 4, 5, 2
0.000000, 0.494446, 3.50555, 0.000000
5, 0.000000, 36, 0.000000
4, 4, 5, 5.49445
1.50555, 3, 0.000000, 3
10, 5.49445, 1.50555, 0.000000
4, 3, 3, 5
3, 10, 6, 4
8.49445, 2.50555, 5, 4.49445
3.50555, 0.000000, 0.000000, 2
0.000000, 4, 4.97778, 9.02222
7, 0.000000, 0.000000, 2
4, 0.000000, 6.49445, 3.50555
0.000000, 8, 2, 4
5, 6, 7, 4
2, 2, 11, 2
0.000000, 3, 5, 7
4, 6, 2, 6
4, 3, 0.000000, 8
7, 8, 6, 0.000000
0.000000, 6, 4.49445, 0.505554
5, 2, 8, 4
0.000000, 3, 4.49445, 10.5056
7, 3, 2, 0.000000
6, 3, 8, 10.4944
8.50555, 0.000000, 4, 0.000000
3, 3, 10, 10
7.49445, 0.505554, 0.000000, 2
4, 2, 0.000000, 4
4, 4, 9, 4
0.988892, 2.01111, 4, 3
0.000000, 3, 4, 5
4, 7, 0.000000, 0.000000
4, 7.49445, 6.50555, 4
2, 2, 2, 0.000000
1, 0.000000, 4, 1
2, 6, 4, 0.000000
5, 11, 6, 3
3, 4, 4, 2
5, 4, 4, 4
0.000000, 3.49445, 6.50555, 2
2, 5.98889, 1.01111, 9
4, 5, 2, 4
4, 11, 2, 0.000000
0.000000, 2, 0.000000, 4
4, 2, 3, 2
4, 3, 2, 0.000000
6, 3, 2, 7
3, 2, 7, 5
10, 15, 3.49445, 4.50555
2.49445, 0.505554, 6, 6
4, 5, 2, 1
0.000000, 5, 2, 10
2, 2, 4, 0.000000
7, 4, 4, 6
2, 9, 4, 0.000000
0.000000, 6, 5, 0.000000
0.000000, 3, 6, 3
6, 0.000000, 0.000000, 4
0.000000, 8, 3, 8
2, 3, 0.000000, 2
6, 3, 4, 2
0.000000, 0.000000, 0.000000, 0.000000
3, 2, 2, 2
0.000000, 0.000000, 2, 0.000000
3, 7, 11, 2
1, 3, 0.000000, 0.000000
0.000000, 6, 0.000000, 5
0.000000, 0.000000, 0.000000, 5
4, 2, 3, 7
4, 3, 4, 2
4, 3, 2, 0.000000
0.000000, 2, 3, 5
2, 2, 3, 0.000000
4, 0.000000, 5, 0.000000
0.000000, 4, 0.000000, 2
4, 6.49445, 4.50555, 5
6, 5, 0.000000, 2
2, 5, 3, 2
2, 2, 0.000000, 2
4.49445, 2.50555, 0.000000, 7
0.000000, 2, 10, 0.000000
2, 0.000000, 6, 0.000000
4, 4, 0.000000, 5
4, 6, 0.000000, 1.49445
2.50555, 3, 5, 7.49445
0.505554, 7, 0.000000, 0.000000
0.000000, 0.000000, 0.000000, 5
8, 2, 0.000000, 3
0.000000, 0.000000, 5, 0.000000
1, 5, 2, 2
6, 0.000000, 0.000000, 2
4, 2, 0.000000, 2
2, 6, 8, 4
5, 3, 5.49445, 4
1.50555, 10, 5, 2
9, 4, 9, 4
2, 4.49445, 9.50555, 7
4, 2, 5, 3
0.000000, 8.49445, 5.50555, 4
3, 2, 0.000000, 3
4, 2, 0.494446, 5.50555
4, 7, 4, 4
3, 2, 7, 0.000000
2, 0.000000, 3, 5
10, 0.000000, 4, 5
2, 0.000000, 2, 6
0.494446, 2.50555, 2, 5
57, 3, 0.000000, 4
2, 0.000000, 0.000000, 0.000000
2.49445, 4.50555, 4, 5
0.494446, 5, 3.50555, 0.000000
0.000000, 0.000000, 2, 3
2, 59, 0.000000, 7.49445
0.505554, 2, 2, 0.000000
0.000000, 2, 14, 1.49445
0.505554, 3, 4, 5
4, 6, 2, 0.000000
0.000000, 2, 4, 5
4, 2, 2, 6
4, 0.000000, 0.000000, 5
0.000000, 0.000000, 2, 3
0.000000, 0.000000, 0.000000, 3
6
*END

*EOF