File: XRD:XRR/STO/22147_STOL/22147_STOL_XRD.csv
#twotheta, yobs, ycal, bkg, diff
42.0,13.0,1.0,1.0,1.0
42.01,26.9889,1.0,1.0,1.0
42.02,11.0111,1.0,1.0,1.0
42.03,13.0,1.0,1.0,1.0
42.04,19.4944,1.0,1.0,1.0
42.05,20.5056,1.0,1.0,1.0
42.06,20.0,1.0,1.0,1.0
42.07,15.0,1.0,1.0,1.0
42.08,21.0,1.0,1.0,1.0
42.09,19.0,1.0,1.0,1.0
42.1,10.0,1.0,1.0,1.0
42.11,16.4944,1.0,1.0,1.0
42.12,24.0,1.0,1.0,1.0
42.13,19.5056,1.0,1.0,1.0
42.14,22.4944,1.0,1.0,1.0
42.15,13.0,1.0,1.0,1.0
42.16,21.4944,1.0,1.0,1.0
42.17,30.5056,1.0,1.0,1.0
42.18,10.5056,1.0,1.0,1.0
42.19,19.0,1.0,1.0,1.0
42.2,22.0,1.0,1.0,1.0
42.21,17.0,1.0,1.0,1.0
42.22,26.4944,1.0,1.0,1.0
42.23,26.0,1.0,1.0,1.0
42.24,14.5056,1.0,1.0,1.0
42.25,13.4833,1.0,1.0,1.0
42.26,16.5167,1.0,1.0,1.0
42.27,27.0,1.0,1.0,1.0
42.28,9.0,1.0,1.0,1.0
42.29,30.9889,1.0,1.0,1.0
42.3,16.0111,1.0,1.0,1.0
42.31,13.0,1.0,1.0,1.0
42.32,9.0,1.0,1.0,1.0
42.33,24.0,1.0,1.0,1.0
42.34,32.4944,1.0,1.0,1.0
42.35,17.5056,1.0,1.0,1.0
42.36,22.0,1.0,1.0,1.0
42.37,23.4944,1.0,1.0,1.0
42.38,19.5056,1.0,1.0,1.0
42.39,10.0,1.0,1.0,1.0
42.4,10.0,1.0,1.0,1.0
42.41,27.0,1.0,1.0,1.0
42.42,26.0,1.0,1.0,1.0
42.43,19.4944,1.0,1.0,1.0
42.44,22.0,1.0,1.0,1.0
42.45,12.5056,1.0,1.0,1.0
42.46,21.0,1.0,1.0,1.0
42.47,18.0,1.0,1.0,1.0
42.48,24.0,1.0,1.0,1.0
42.49,17.0,1.0,1.0,1.0
42.5,24.0,1.0,1.0,1.0
42.51,19.0,1.0,1.0,1.0
42.52,20.0,1.0,1.0,1.0
42.53,7.4944,1.0,1.0,1.0
42.54,10.5056,1.0,1.0,1.0
42.55,27.0,1.0,1.0,1.0
42.56,8.0,1.0,1.0,1.0
42.57,21.0,1.0,1.0,1.0
42.58,22.4944,1.0,1.0,1.0
42.59,11.5056,1.0,1.0,1.0
42.6,22.0,1.0,1.0,1.0
42.61,15.0,1.0,1.0,1.0
42.62,18.4944,1.0,1.0,1.0
42.63,11.5056,1.0,1.0,1.0
42.64,19.0,1.0,1.0,1.0
42.65,18.0,1.0,1.0,1.0
42.66,25.4944,1.0,1.0,1.0
42.67,16.0,1.0,1.0,1.0
42.68,20.4944,1.0,1.0,1.0
42.69,27.0,1.0,1.0,1.0
42.7,18.0111,1.0,1.0,1.0
42.71,24.0,1.0,1.0,1.0
42.72,18.4944,1.0,1.0,1.0
42.73,15.5056,1.0,1.0,1.0
42.74,32.0,1.0,1.0,1.0
42.75,29.0,1.0,1.0,1.0
42.76,10.0,1.0,1.0,1.0
42.77,20.0,1.0,1.0,1.0
42.78,13.4944,1.0,1.0,1.0
42.79,28.0,1.0,1.0,1.0
42.8,27.0,1.0,1.0,1.0
42.81,12.5056,1.0,1.0,1.0
42.82,28.0,1.0,1.0,1.0
42.83,18.0,1.0,1.0,1.0
42.84,20.0,1.0,1.0,1.0
42.85,23.4944,1.0,1.0,1.0
42.86,30.5056,1.0,1.0,1.0
42.87,31.9889,1.0,1.0,1.0
42.88,21.0,1.0,1.0,1.0
42.89,6.4944,1.0,1.0,1.0
42.9,30.5167,1.0,1.0,1.0
42.91,31.0,1.0,1.0,1.0
42.92,26.0,1.0,1.0,1.0
42.93,22.0,1.0,1.0,1.0
42.94,14.0,1.0,1.0,1.0
42.95,26.9889,1.0,1.0,1.0
42.96,24.0111,1.0,1.0,1.0
42.97,32.9889,1.0,1.0,1.0
42.98,21.0111,1.0,1.0,1.0
42.99,19.0,1.0,1.0,1.0
43.0,21.4944,1.0,1.0,1.0
43.01,18.0,1.0,1.0,1.0
43.02,25.0,1.0,1.0,1.0
43.03,27.0,1.0,1.0,1.0
43.04,22.4944,1.0,1.0,1.0
43.05,20.0111,1.0,1.0,1.0
43.06,21.9889,1.0,1.0,1.0
43.07,37.0111,1.0,1.0,1.0
43.08,13.9889,1.0,1.0,1.0
43.09,23.0111,1.0,1.0,1.0
43.1,19.0,1.0,1.0,1.0
43.11,26.4944,1.0,1.0,1.0
43.12,28.5056,1.0,1.0,1.0
43.13,11.0,1.0,1.0,1.0
43.14,13.4944,1.0,1.0,1.0
43.15,15.0,1.0,1.0,1.0
43.16,13.5056,1.0,1.0,1.0
43.17,6.0,1.0,1.0,1.0
43.18,20.4944,1.0,1.0,1.0
43.19,13.5056,1.0,1.0,1.0
43.2,20.0,1.0,1.0,1.0
43.21,8.0,1.0,1.0,1.0
43.22,16.0,1.0,1.0,1.0
43.23,22.0,1.0,1.0,1.0
43.24,19.0,1.0,1.0,1.0
43.25,13.9889,1.0,1.0,1.0
43.26,20.0111,1.0,1.0,1.0
43.27,17.0,1.0,1.0,1.0
43.28,13.0,1.0,1.0,1.0
43.29,32.0,1.0,1.0,1.0
43.3,11.4944,1.0,1.0,1.0
43.31,13.0,1.0,1.0,1.0
43.32,25.0,1.0,1.0,1.0
43.33,15.0,1.0,1.0,1.0
43.34,21.0,1.0,1.0,1.0
43.35,25.4944,1.0,1.0,1.0
43.36,15.0111,1.0,1.0,1.0
43.37,22.9889,1.0,1.0,1.0
43.38,11.0111,1.0,1.0,1.0
43.39,17.0,1.0,1.0,1.0
43.4,21.0,1.0,1.0,1.0
43.41,13.0,1.0,1.0,1.0
43.42,25.4944,1.0,1.0,1.0
43.43,26.5056,1.0,1.0,1.0
43.44,28.0,1.0,1.0,1.0
43.45,19.4944,1.0,1.0,1.0
43.46,29.0,1.0,1.0,1.0
43.47,22.5056,1.0,1.0,1.0
43.48,28.0,1.0,1.0,1.0
43.49,18.0,1.0,1.0,1.0
43.5,24.9889,1.0,1.0,1.0
43.51,49.5056,1.0,1.0,1.0
43.52,32.0,1.0,1.0,1.0
43.53,33.5056,1.0,1.0,1.0
43.54,39.4944,1.0,1.0,1.0
43.55,22.5056,1.0,1.0,1.0
43.56,41.4833,1.0,1.0,1.0
43.57,26.0111,1.0,1.0,1.0
43.58,23.5056,1.0,1.0,1.0
43.59,37.0,1.0,1.0,1.0
43.6,24.0,1.0,1.0,1.0
43.61,38.0,1.0,1.0,1.0
43.62,33.4944,1.0,1.0,1.0
43.63,27.4944,1.0,1.0,1.0
43.64,33.5056,1.0,1.0,1.0
43.65,36.0,1.0,1.0,1.0
43.66,30.5056,1.0,1.0,1.0
43.67,31.0,1.0,1.0,1.0
43.68,28.4944,1.0,1.0,1.0
43.69,54.0,1.0,1.0,1.0
43.7,50.5056,1.0,1.0,1.0
43.71,51.4944,1.0,1.0,1.0
43.72,52.9889,1.0,1.0,1.0
43.73,42.5167,1.0,1.0,1.0
43.74,32.4944,1.0,1.0,1.0
43.75,23.0,1.0,1.0,1.0
43.76,39.0,1.0,1.0,1.0
43.77,36.5056,1.0,1.0,1.0
43.78,37.9889,1.0,1.0,1.0
43.79,39.0,1.0,1.0,1.0
43.8,47.5056,1.0,1.0,1.0
43.81,29.5056,1.0,1.0,1.0
43.82,34.9889,1.0,1.0,1.0
43.83,38.0111,1.0,1.0,1.0
43.84,40.0,1.0,1.0,1.0
43.85,35.4944,1.0,1.0,1.0
43.86,40.5056,1.0,1.0,1.0
43.87,42.4944,1.0,1.0,1.0
43.88,42.5056,1.0,1.0,1.0
43.89,63.4944,1.0,1.0,1.0
43.9,57.9889,1.0,1.0,1.0
43.91,41.5167,1.0,1.0,1.0
43.92,40.0,1.0,1.0,1.0
43.93,50.4944,1.0,1.0,1.0
43.94,40.0,1.0,1.0,1.0
43.95,35.4944,1.0,1.0,1.0
43.96,31.5056,1.0,1.0,1.0
43.97,33.5056,1.0,1.0,1.0
43.98,35.0,1.0,1.0,1.0
43.99,36.4944,1.0,1.0,1.0
44.0,43.5056,1.0,1.0,1.0
44.01,37.4944,1.0,1.0,1.0
44.02,33.0,1.0,1.0,1.0
44.03,36.0,1.0,1.0,1.0
44.04,49.4944,1.0,1.0,1.0
44.05,29.9889,1.0,1.0,1.0
44.06,43.0222,1.0,1.0,1.0
44.07,45.0,1.0,1.0,1.0
44.08,29.4944,1.0,1.0,1.0
44.09,34.5056,1.0,1.0,1.0
44.1,50.4833,1.0,1.0,1.0
44.11,34.0111,1.0,1.0,1.0
44.12,39.0,1.0,1.0,1.0
44.13,32.5056,1.0,1.0,1.0
44.14,23.0,1.0,1.0,1.0
44.15,38.9778,1.0,1.0,1.0
44.16,33.5167,1.0,1.0,1.0
44.17,59.5056,1.0,1.0,1.0
44.18,24.4944,1.0,1.0,1.0
44.19,37.5056,1.0,1.0,1.0
44.2,32.4944,1.0,1.0,1.0
44.21,42.5056,1.0,1.0,1.0
44.22,41.9889,1.0,1.0,1.0
44.23,50.5056,1.0,1.0,1.0
44.24,50.5056,1.0,1.0,1.0
44.25,24.4944,1.0,1.0,1.0
44.26,38.0,1.0,1.0,1.0
44.27,46.5056,1.0,1.0,1.0
44.28,45.0,1.0,1.0,1.0
44.29,54.0,1.0,1.0,1.0
44.3,32.4944,1.0,1.0,1.0
44.31,35.0,1.0,1.0,1.0
44.32,46.0,1.0,1.0,1.0
44.33,62.0,1.0,1.0,1.0
44.34,61.4944,1.0,1.0,1.0
44.35,71.0111,1.0,1.0,1.0
44.36,75.0,1.0,1.0,1.0
44.37,86.0,1.0,1.0,1.0
44.38,49.4944,1.0,1.0,1.0
44.39,69.5056,1.0,1.0,1.0
44.4,78.0,1.0,1.0,1.0
44.41,75.9889,1.0,1.0,1.0
44.42,84.5056,1.0,1.0,1.0
44.43,106.4944,1.0,1.0,1.0
44.44,99.0111,1.0,1.0,1.0
44.45,92.4944,1.0,1.0,1.0
44.46,109.9889,1.0,1.0,1.0
44.47,100.9889,1.0,1.0,1.0
44.48,109.5278,1.0,1.0,1.0
44.49,107.9889,1.0,1.0,1.0
44.5,154.4833,1.0,1.0,1.0
44.51,149.0222,1.0,1.0,1.0
44.52,128.0,1.0,1.0,1.0
44.53,161.4833,1.0,1.0,1.0
44.54,168.0,1.0,1.0,1.0
44.55,174.5056,1.0,1.0,1.0
44.56,221.4722,1.0,1.0,1.0
44.57,174.5389,1.0,1.0,1.0
44.58,200.4722,1.0,1.0,1.0
44.59,255.5056,1.0,1.0,1.0
44.6,239.5056,1.0,1.0,1.0
44.61,224.4944,1.0,1.0,1.0
44.62,261.0,1.0,1.0,1.0
44.63,278.9778,1.0,1.0,1.0
44.64,255.0333,1.0,1.0,1.0
44.65,263.4722,1.0,1.0,1.0
44.66,300.0,1.0,1.0,1.0
44.67,282.5056,1.0,1.0,1.0
44.68,283.0,1.0,1.0,1.0
44.69,345.4833,1.0,1.0,1.0
44.7,314.0222,1.0,1.0,1.0
44.71,345.4944,1.0,1.0,1.0
44.72,338.5056,1.0,1.0,1.0
44.73,373.4944,1.0,1.0,1.0
44.74,403.0,1.0,1.0,1.0
44.75,403.4722,1.0,1.0,1.0
44.76,393.5389,1.0,1.0,1.0
44.77,437.4944,1.0,1.0,1.0
44.78,443.4944,1.0,1.0,1.0
44.79,422.0,1.0,1.0,1.0
44.8,430.4833,1.0,1.0,1.0
44.81,430.4611,1.0,1.0,1.0
44.82,486.0444,1.0,1.0,1.0
44.83,466.5056,1.0,1.0,1.0
44.84,516.9889,1.0,1.0,1.0
44.85,514.4944,1.0,1.0,1.0
44.86,487.4944,1.0,1.0,1.0
44.87,541.5056,1.0,1.0,1.0
44.88,510.0222,1.0,1.0,1.0
44.89,519.4611,1.0,1.0,1.0
44.9,583.0111,1.0,1.0,1.0
44.91,596.9778,1.0,1.0,1.0
44.92,609.0444,1.0,1.0,1.0
44.93,593.9667,1.0,1.0,1.0
44.94,605.5167,1.0,1.0,1.0
44.95,659.4944,1.0,1.0,1.0
44.96,604.4833,1.0,1.0,1.0
44.97,658.4722,1.0,1.0,1.0
44.98,642.0667,1.0,1.0,1.0
44.99,606.4722,1.0,1.0,1.0
45.0,705.4944,1.0,1.0,1.0
45.01,713.9667,1.0,1.0,1.0
45.02,762.0111,1.0,1.0,1.0
45.03,732.0222,1.0,1.0,1.0
45.04,748.0,1.0,1.0,1.0
45.05,735.4944,1.0,1.0,1.0
45.06,785.5056,1.0,1.0,1.0
45.07,779.9889,1.0,1.0,1.0
45.08,778.45,1.0,1.0,1.0
45.09,831.5278,1.0,1.0,1.0
45.1,819.5167,1.0,1.0,1.0
45.11,735.5056,1.0,1.0,1.0
45.12,818.0111,1.0,1.0,1.0
45.13,785.4389,1.0,1.0,1.0
45.14,801.5278,1.0,1.0,1.0
45.15,836.0222,1.0,1.0,1.0
45.16,843.0111,1.0,1.0,1.0
45.17,823.5389,1.0,1.0,1.0
45.18,841.9445,1.0,1.0,1.0
45.19,899.0333,1.0,1.0,1.0
45.2,817.4611,1.0,1.0,1.0
45.21,818.4944,1.0,1.0,1.0
45.22,864.0333,1.0,1.0,1.0
45.23,847.9778,1.0,1.0,1.0
45.24,851.9778,1.0,1.0,1.0
45.25,821.0222,1.0,1.0,1.0
45.26,876.4944,1.0,1.0,1.0
45.27,905.9778,1.0,1.0,1.0
45.28,806.5056,1.0,1.0,1.0
45.29,894.0222,1.0,1.0,1.0
45.3,890.0222,1.0,1.0,1.0
45.31,835.5056,1.0,1.0,1.0
45.32,872.5056,1.0,1.0,1.0
45.33,885.9445,1.0,1.0,1.0
45.34,855.0111,1.0,1.0,1.0
45.35,909.4833,1.0,1.0,1.0
45.36,941.0111,1.0,1.0,1.0
45.37,840.0111,1.0,1.0,1.0
45.38,861.0222,1.0,1.0,1.0
45.39,837.9556,1.0,1.0,1.0
45.4,834.5278,1.0,1.0,1.0
45.41,851.9667,1.0,1.0,1.0
45.42,838.5722,1.0,1.0,1.0
45.43,883.4611,1.0,1.0,1.0
45.44,819.0222,1.0,1.0,1.0
45.45,838.9445,1.0,1.0,1.0
45.46,845.0333,1.0,1.0,1.0
45.47,848.4722,1.0,1.0,1.0
45.48,844.0222,1.0,1.0,1.0
45.49,788.0333,1.0,1.0,1.0
45.5,830.4611,1.0,1.0,1.0
45.51,800.5056,1.0,1.0,1.0
45.52,874.4833,1.0,1.0,1.0
45.53,841.5278,1.0,1.0,1.0
45.54,788.5056,1.0,1.0,1.0
45.55,801.5056,1.0,1.0,1.0
45.56,800.0111,1.0,1.0,1.0
45.57,826.9889,1.0,1.0,1.0
45.58,736.9667,1.0,1.0,1.0
45.59,723.0222,1.0,1.0,1.0
45.6,770.5167,1.0,1.0,1.0
45.61,727.5278,1.0,1.0,1.0
45.62,716.9667,1.0,1.0,1.0
45.63,796.0,1.0,1.0,1.0
45.64,778.9556,1.0,1.0,1.0
45.65,721.55,1.0,1.0,1.0
45.66,748.5167,1.0,1.0,1.0
45.67,686.9667,1.0,1.0,1.0
45.68,677.4944,1.0,1.0,1.0
45.69,685.0555,1.0,1.0,1.0
45.7,679.4944,1.0,1.0,1.0
45.71,709.9556,1.0,1.0,1.0
45.72,688.4944,1.0,1.0,1.0
45.73,656.55,1.0,1.0,1.0
45.74,648.4944,1.0,1.0,1.0
45.75,696.9556,1.0,1.0,1.0
45.76,614.0444,1.0,1.0,1.0
45.77,637.4611,1.0,1.0,1.0
45.78,578.0333,1.0,1.0,1.0
45.79,610.45,1.0,1.0,1.0
45.8,566.55,1.0,1.0,1.0
45.81,601.5056,1.0,1.0,1.0
45.82,571.4833,1.0,1.0,1.0
45.83,616.0111,1.0,1.0,1.0
45.84,582.4389,1.0,1.0,1.0
45.85,590.5389,1.0,1.0,1.0
45.86,613.5167,1.0,1.0,1.0
45.87,637.0,1.0,1.0,1.0
45.88,563.0111,1.0,1.0,1.0
45.89,593.9889,1.0,1.0,1.0
45.9,528.9889,1.0,1.0,1.0
45.91,503.0,1.0,1.0,1.0
45.92,596.5056,1.0,1.0,1.0
45.93,553.5167,1.0,1.0,1.0
45.94,491.9778,1.0,1.0,1.0
45.95,535.0444,1.0,1.0,1.0
45.96,502.4722,1.0,1.0,1.0
45.97,468.9667,1.0,1.0,1.0
45.98,543.5389,1.0,1.0,1.0
45.99,536.9889,1.0,1.0,1.0
46.0,502.5278,1.0,1.0,1.0
46.01,510.9889,1.0,1.0,1.0
46.02,449.0111,1.0,1.0,1.0
46.03,493.0,1.0,1.0,1.0
46.04,430.9889,1.0,1.0,1.0
46.05,470.4944,1.0,1.0,1.0
46.06,496.0222,1.0,1.0,1.0
46.07,476.4722,1.0,1.0,1.0
46.08,503.9889,1.0,1.0,1.0
46.09,426.0222,1.0,1.0,1.0
46.1,525.0,1.0,1.0,1.0
46.11,431.0,1.0,1.0,1.0
46.12,461.5056,1.0,1.0,1.0
46.13,399.0,1.0,1.0,1.0
46.14,470.4833,1.0,1.0,1.0
46.15,426.5167,1.0,1.0,1.0
46.16,431.5167,1.0,1.0,1.0
46.17,456.45,1.0,1.0,1.0
46.18,423.0555,1.0,1.0,1.0
46.19,443.0,1.0,1.0,1.0
46.2,434.9667,1.0,1.0,1.0
46.21,400.5056,1.0,1.0,1.0
46.22,418.5056,1.0,1.0,1.0
46.23,374.0,1.0,1.0,1.0
46.24,400.0,1.0,1.0,1.0
46.25,416.0333,1.0,1.0,1.0
46.26,370.4611,1.0,1.0,1.0
46.27,384.5056,1.0,1.0,1.0
46.28,391.4944,1.0,1.0,1.0
46.29,337.4944,1.0,1.0,1.0
46.3,366.5056,1.0,1.0,1.0
46.31,339.4944,1.0,1.0,1.0
46.32,367.5278,1.0,1.0,1.0
46.33,362.5056,1.0,1.0,1.0
46.34,340.9778,1.0,1.0,1.0
46.35,319.5056,1.0,1.0,1.0
46.36,306.5278,1.0,1.0,1.0
46.37,342.4278,1.0,1.0,1.0
46.38,322.5278,1.0,1.0,1.0
46.39,332.9889,1.0,1.0,1.0
46.4,326.5389,1.0,1.0,1.0
46.41,340.9667,1.0,1.0,1.0
46.42,297.0333,1.0,1.0,1.0
46.43,316.9778,1.0,1.0,1.0
46.44,361.5056,1.0,1.0,1.0
46.45,307.5056,1.0,1.0,1.0
46.46,327.5056,1.0,1.0,1.0
46.47,306.9556,1.0,1.0,1.0
46.48,300.0111,1.0,1.0,1.0
46.49,275.0444,1.0,1.0,1.0
46.5,238.5056,1.0,1.0,1.0
46.51,270.9889,1.0,1.0,1.0
46.52,258.9778,1.0,1.0,1.0
46.53,279.5056,1.0,1.0,1.0
46.54,252.0111,1.0,1.0,1.0
46.55,262.5056,1.0,1.0,1.0
46.56,275.0111,1.0,1.0,1.0
46.57,231.9778,1.0,1.0,1.0
46.58,249.9889,1.0,1.0,1.0
46.59,241.5278,1.0,1.0,1.0
46.6,218.0111,1.0,1.0,1.0
46.61,221.9889,1.0,1.0,1.0
46.62,234.9889,1.0,1.0,1.0
46.63,190.0,1.0,1.0,1.0
46.64,236.0111,1.0,1.0,1.0
46.65,184.0,1.0,1.0,1.0
46.66,181.9889,1.0,1.0,1.0
46.67,185.0,1.0,1.0,1.0
46.68,196.0111,1.0,1.0,1.0
46.69,168.5056,1.0,1.0,1.0
46.7,172.4944,1.0,1.0,1.0
46.71,175.0,1.0,1.0,1.0
46.72,164.4944,1.0,1.0,1.0
46.73,162.0,1.0,1.0,1.0
46.74,161.0,1.0,1.0,1.0
46.75,169.0,1.0,1.0,1.0
46.76,157.5056,1.0,1.0,1.0
46.77,136.0,1.0,1.0,1.0
46.78,145.4944,1.0,1.0,1.0
46.79,134.5167,1.0,1.0,1.0
46.8,131.5056,1.0,1.0,1.0
46.81,127.4944,1.0,1.0,1.0
46.82,154.4833,1.0,1.0,1.0
46.83,141.0111,1.0,1.0,1.0
46.84,115.9889,1.0,1.0,1.0
46.85,101.0111,1.0,1.0,1.0
46.86,118.9889,1.0,1.0,1.0
46.87,126.0111,1.0,1.0,1.0
46.88,110.9889,1.0,1.0,1.0
46.89,118.5167,1.0,1.0,1.0
46.9,128.0,1.0,1.0,1.0
46.91,124.4944,1.0,1.0,1.0
46.92,104.4944,1.0,1.0,1.0
46.93,109.0111,1.0,1.0,1.0
46.94,88.4944,1.0,1.0,1.0
46.95,101.5056,1.0,1.0,1.0
46.96,102.5056,1.0,1.0,1.0
46.97,108.4833,1.0,1.0,1.0
46.98,95.0111,1.0,1.0,1.0
46.99,74.5056,1.0,1.0,1.0
47.0,111.0,1.0,1.0,1.0
47.01,122.9778,1.0,1.0,1.0
47.02,109.0222,1.0,1.0,1.0
47.03,116.4833,1.0,1.0,1.0
47.04,117.5056,1.0,1.0,1.0
47.05,111.5056,1.0,1.0,1.0
47.06,118.9778,1.0,1.0,1.0
47.07,111.0111,1.0,1.0,1.0
47.08,141.5056,1.0,1.0,1.0
47.09,136.9889,1.0,1.0,1.0
47.1,129.5167,1.0,1.0,1.0
47.11,130.0,1.0,1.0,1.0
47.12,124.4944,1.0,1.0,1.0
47.13,133.4944,1.0,1.0,1.0
47.14,155.0,1.0,1.0,1.0
47.15,130.4944,1.0,1.0,1.0
47.16,146.0111,1.0,1.0,1.0
47.17,165.4944,1.0,1.0,1.0
47.18,163.0,1.0,1.0,1.0
47.19,145.4833,1.0,1.0,1.0
47.2,140.5056,1.0,1.0,1.0
47.21,157.5167,1.0,1.0,1.0
47.22,163.4722,1.0,1.0,1.0
47.23,185.0222,1.0,1.0,1.0
47.24,151.5056,1.0,1.0,1.0
47.25,181.4833,1.0,1.0,1.0
47.26,208.5167,1.0,1.0,1.0
47.27,197.9889,1.0,1.0,1.0
47.28,223.0111,1.0,1.0,1.0
47.29,191.9667,1.0,1.0,1.0
47.3,217.0333,1.0,1.0,1.0
47.31,239.0,1.0,1.0,1.0
47.32,251.4833,1.0,1.0,1.0
47.33,256.4722,1.0,1.0,1.0
47.34,211.5056,1.0,1.0,1.0
47.35,261.0444,1.0,1.0,1.0
47.36,253.5056,1.0,1.0,1.0
47.37,251.9778,1.0,1.0,1.0
47.38,266.5056,1.0,1.0,1.0
47.39,274.4944,1.0,1.0,1.0
47.4,279.9889,1.0,1.0,1.0
47.41,300.9889,1.0,1.0,1.0
47.42,281.5167,1.0,1.0,1.0
47.43,288.4944,1.0,1.0,1.0
47.44,301.4833,1.0,1.0,1.0
47.45,353.5389,1.0,1.0,1.0
47.46,301.9889,1.0,1.0,1.0
47.47,317.9889,1.0,1.0,1.0
47.48,342.4944,1.0,1.0,1.0
47.49,356.4722,1.0,1.0,1.0
47.5,372.5278,1.0,1.0,1.0
47.51,365.4944,1.0,1.0,1.0
47.52,437.0,1.0,1.0,1.0
47.53,430.0,1.0,1.0,1.0
47.54,401.0111,1.0,1.0,1.0
47.55,491.9778,1.0,1.0,1.0
47.56,514.9778,1.0,1.0,1.0
47.57,520.0444,1.0,1.0,1.0
47.58,529.9667,1.0,1.0,1.0
47.59,509.4833,1.0,1.0,1.0
47.6,601.0222,1.0,1.0,1.0
47.61,649.9556,1.0,1.0,1.0
47.62,714.5167,1.0,1.0,1.0
47.63,762.4833,1.0,1.0,1.0
47.64,857.0,1.0,1.0,1.0
47.65,865.5056,1.0,1.0,1.0
47.66,953.0333,1.0,1.0,1.0
47.67,1062.45,1.0,1.0,1.0
47.68,1120.98,1.0,1.0,1.0
47.69,1260.96,1.0,1.0,1.0
47.7,1345.54,1.0,1.0,1.0
47.71,1531.49,1.0,1.0,1.0
47.72,1766.94,1.0,1.0,1.0
47.73,2029.47,1.0,1.0,1.0
47.74,2402.42,1.0,1.0,1.0
47.75,2806.08,1.0,1.0,1.0
47.76,3233.38,1.0,1.0,1.0
47.77,3969.82,1.0,1.0,1.0
47.78,4798.96,1.0,1.0,1.0
47.79,5851.92,1.0,1.0,1.0
47.8,7264.73,1.0,1.0,1.0
47.81,9577.79,1.0,1.0,1.0
47.82,12829.6,1.0,1.0,1.0
47.83,17131.8,1.0,1.0,1.0
47.84,25046,1.0,1.0,1.0
47.85,39917.4,1.0,1.0,1.0
47.86,70545,1.0,1.0,1.0
47.87,200847.25,1.0,1.0,1.0
47.88,929001,1.0,1.0,1.0
47.89,2178212.0,1.0,1.0,1.0
47.9,3359877.75,1.0,1.0,1.0
47.91,4782977.5,1.0,1.0,1.0
47.92,5410336.0,1.0,1.0,1.0
47.93,4809442.5,1.0,1.0,1.0
47.94,5230170.5,1.0,1.0,1.0
47.95,5214339.0,1.0,1.0,1.0
47.96,6905054.0,1.0,1.0,1.0
47.97,7980476.5,1.0,1.0,1.0
47.98,3199748.25,1.0,1.0,1.0
47.99,1110036.5,1.0,1.0,1.0
48.0,336180.125,1.0,1.0,1.0
48.01,172794,1.0,1.0,1.0
48.02,117052,1.0,1.0,1.0
48.03,82008.8,1.0,1.0,1.0
48.04,57871.7,1.0,1.0,1.0
48.05,41635.4,1.0,1.0,1.0
48.06,30378.1,1.0,1.0,1.0
48.07,22604.8,1.0,1.0,1.0
48.08,17384.6,1.0,1.0,1.0
48.09,13195.1,1.0,1.0,1.0
48.1,10451,1.0,1.0,1.0
48.11,8255.61,1.0,1.0,1.0
48.12,6718.772,1.0,1.0,1.0
48.13,5506.52,1.0,1.0,1.0
48.14,4424.69,1.0,1.0,1.0
48.15,3828.57,1.0,1.0,1.0
48.16,3185.99,1.0,1.0,1.0
48.17,2665.04,1.0,1.0,1.0
48.18,2329.01,1.0,1.0,1.0
48.19,2065.53,1.0,1.0,1.0
48.2,1758.52,1.0,1.0,1.0
48.21,1553.55,1.0,1.0,1.0
48.22,1348.51,1.0,1.0,1.0
48.23,1194.03,1.0,1.0,1.0
48.24,1096.46,1.0,1.0,1.0
48.25,933.0778,1.0,1.0,1.0
48.26,806.9778,1.0,1.0,1.0
48.27,763.0111,1.0,1.0,1.0
48.28,650.0222,1.0,1.0,1.0
48.29,621.9889,1.0,1.0,1.0
48.3,581.5278,1.0,1.0,1.0
48.31,535.9889,1.0,1.0,1.0
48.32,503.4722,1.0,1.0,1.0
48.33,420.5167,1.0,1.0,1.0
48.34,525.5167,1.0,1.0,1.0
48.35,390.4833,1.0,1.0,1.0
48.36,365.5056,1.0,1.0,1.0
48.37,326.5278,1.0,1.0,1.0
48.38,313.4833,1.0,1.0,1.0
48.39,297.5167,1.0,1.0,1.0
48.4,302.9778,1.0,1.0,1.0
48.41,280.0222,1.0,1.0,1.0
48.42,241.4833,1.0,1.0,1.0
48.43,242.0222,1.0,1.0,1.0
48.44,214.9667,1.0,1.0,1.0
48.45,222.0444,1.0,1.0,1.0
48.46,228.4833,1.0,1.0,1.0
48.47,165.0111,1.0,1.0,1.0
48.48,182.5056,1.0,1.0,1.0
48.49,148.0,1.0,1.0,1.0
48.5,152.0,1.0,1.0,1.0
48.51,160.0,1.0,1.0,1.0
48.52,156.5056,1.0,1.0,1.0
48.53,154.4944,1.0,1.0,1.0
48.54,142.0,1.0,1.0,1.0
48.55,130.4833,1.0,1.0,1.0
48.56,121.0111,1.0,1.0,1.0
48.57,111.0,1.0,1.0,1.0
48.58,119.0,1.0,1.0,1.0
48.59,139.5056,1.0,1.0,1.0
48.6,108.0,1.0,1.0,1.0
48.61,78.4833,1.0,1.0,1.0
48.62,133.0222,1.0,1.0,1.0
48.63,106.4833,1.0,1.0,1.0
48.64,104.0,1.0,1.0,1.0
48.65,90.5056,1.0,1.0,1.0
48.66,82.5167,1.0,1.0,1.0
48.67,91.0,1.0,1.0,1.0
48.68,84.9889,1.0,1.0,1.0
48.69,77.4944,1.0,1.0,1.0
48.7,80.0,1.0,1.0,1.0
48.71,101.0111,1.0,1.0,1.0
48.72,77.5056,1.0,1.0,1.0
48.73,68.0,1.0,1.0,1.0
48.74,76.9889,1.0,1.0,1.0
48.75,85.5056,1.0,1.0,1.0
48.76,65.0,1.0,1.0,1.0
48.77,56.0,1.0,1.0,1.0
48.78,51.5056,1.0,1.0,1.0
48.79,83.4944,1.0,1.0,1.0
48.8,63.5056,1.0,1.0,1.0
48.81,66.4833,1.0,1.0,1.0
48.82,69.0111,1.0,1.0,1.0
48.83,85.9889,1.0,1.0,1.0
48.84,57.0111,1.0,1.0,1.0
48.85,77.4944,1.0,1.0,1.0
48.86,55.0111,1.0,1.0,1.0
48.87,38.4833,1.0,1.0,1.0
48.88,47.0111,1.0,1.0,1.0
48.89,57.0,1.0,1.0,1.0
48.9,51.4944,1.0,1.0,1.0
48.91,57.5056,1.0,1.0,1.0
48.92,28.5056,1.0,1.0,1.0
48.93,58.0,1.0,1.0,1.0
48.94,48.9889,1.0,1.0,1.0
48.95,47.5056,1.0,1.0,1.0
48.96,51.5056,1.0,1.0,1.0
48.97,45.4944,1.0,1.0,1.0
48.98,37.5056,1.0,1.0,1.0
48.99,43.9889,1.0,1.0,1.0
49.0,34.5056,1.0,1.0,1.0
49.01,59.5056,1.0,1.0,1.0
49.02,48.4944,1.0,1.0,1.0
49.03,31.4944,1.0,1.0,1.0
49.04,39.5056,1.0,1.0,1.0
49.05,38.0,1.0,1.0,1.0
49.06,32.0,1.0,1.0,1.0
49.07,40.5056,1.0,1.0,1.0
49.08,22.0,1.0,1.0,1.0
49.09,33.4944,1.0,1.0,1.0
49.1,37.4944,1.0,1.0,1.0
49.11,35.0111,1.0,1.0,1.0
49.12,15.0,1.0,1.0,1.0
49.13,50.9778,1.0,1.0,1.0
49.14,40.0111,1.0,1.0,1.0
49.15,45.0,1.0,1.0,1.0
49.16,35.5056,1.0,1.0,1.0
49.17,44.5056,1.0,1.0,1.0
49.18,40.0,1.0,1.0,1.0
49.19,43.0,1.0,1.0,1.0
49.2,25.4944,1.0,1.0,1.0
49.21,29.4944,1.0,1.0,1.0
49.22,43.0111,1.0,1.0,1.0
49.23,30.0,1.0,1.0,1.0
49.24,27.0,1.0,1.0,1.0
49.25,29.4944,1.0,1.0,1.0
49.26,27.5056,1.0,1.0,1.0
49.27,40.0,1.0,1.0,1.0
49.28,35.0,1.0,1.0,1.0
49.29,40.4944,1.0,1.0,1.0
49.3,22.5056,1.0,1.0,1.0
49.31,37.4944,1.0,1.0,1.0
49.32,21.5056,1.0,1.0,1.0
49.33,21.0,1.0,1.0,1.0
49.34,42.0,1.0,1.0,1.0
49.35,19.0,1.0,1.0,1.0
49.36,10.0,1.0,1.0,1.0
49.37,25.0,1.0,1.0,1.0
49.38,36.4944,1.0,1.0,1.0
49.39,20.5056,1.0,1.0,1.0
49.4,19.0,1.0,1.0,1.0
49.41,22.4944,1.0,1.0,1.0
49.42,32.5056,1.0,1.0,1.0
49.43,24.0,1.0,1.0,1.0
49.44,11.0,1.0,1.0,1.0
49.45,27.0,1.0,1.0,1.0
49.46,24.0,1.0,1.0,1.0
49.47,26.9889,1.0,1.0,1.0
49.48,25.0111,1.0,1.0,1.0
49.49,14.0,1.0,1.0,1.0
49.5,28.0,1.0,1.0,1.0
49.51,18.0,1.0,1.0,1.0
49.52,12.0,1.0,1.0,1.0
49.53,20.0,1.0,1.0,1.0
49.54,20.0,1.0,1.0,1.0
49.55,17.0,1.0,1.0,1.0
49.56,23.0,1.0,1.0,1.0
49.57,26.4944,1.0,1.0,1.0
49.58,19.5056,1.0,1.0,1.0
49.59,5.0,1.0,1.0,1.0
49.6,20.0,1.0,1.0,1.0
49.61,23.0,1.0,1.0,1.0
49.62,28.4944,1.0,1.0,1.0
49.63,19.5056,1.0,1.0,1.0
49.64,15.4944,1.0,1.0,1.0
49.65,8.5056,1.0,1.0,1.0
49.66,24.0,1.0,1.0,1.0
49.67,14.0,1.0,1.0,1.0
49.68,12.0,1.0,1.0,1.0
49.69,14.0,1.0,1.0,1.0
49.7,18.0,1.0,1.0,1.0
49.71,17.4944,1.0,1.0,1.0
49.72,17.5056,1.0,1.0,1.0
49.73,19.0,1.0,1.0,1.0
49.74,14.0,1.0,1.0,1.0
49.75,9.4944,1.0,1.0,1.0
49.76,16.5056,1.0,1.0,1.0
49.77,28.0,1.0,1.0,1.0
49.78,17.4944,1.0,1.0,1.0
49.79,19.5056,1.0,1.0,1.0
49.8,14.0,1.0,1.0,1.0
49.81,21.0,1.0,1.0,1.0
49.82,26.0,1.0,1.0,1.0
49.83,7.0,1.0,1.0,1.0
49.84,13.0,1.0,1.0,1.0
49.85,20.4944,1.0,1.0,1.0
49.86,12.5056,1.0,1.0,1.0
49.87,17.0,1.0,1.0,1.0
49.88,20.0,1.0,1.0,1.0
49.89,10.0,1.0,1.0,1.0
49.9,22.0,1.0,1.0,1.0
49.91,23.0,1.0,1.0,1.0
49.92,11.0,1.0,1.0,1.0
49.93,16.4944,1.0,1.0,1.0
49.94,20.5056,1.0,1.0,1.0
49.95,22.0,1.0,1.0,1.0
49.96,9.0,1.0,1.0,1.0
49.97,19.0,1.0,1.0,1.0
49.98,17.4944,1.0,1.0,1.0
49.99,27.0,1.0,1.0,1.0
50.0,21.5056,1.0,1.0,1.0
50.01,11.0,1.0,1.0,1.0
50.02,17.0,1.0,1.0,1.0
50.03,25.4833,1.0,1.0,1.0
50.04,12.5167,1.0,1.0,1.0
50.05,11.0,1.0,1.0,1.0
50.06,19.4944,1.0,1.0,1.0
50.07,14.5056,1.0,1.0,1.0
50.08,14.0,1.0,1.0,1.0
50.09,11.0,1.0,1.0,1.0
50.1,11.0,1.0,1.0,1.0
50.11,17.0,1.0,1.0,1.0
50.12,11.0,1.0,1.0,1.0
50.13,16.0,1.0,1.0,1.0
50.14,19.0,1.0,1.0,1.0
50.15,23.0,1.0,1.0,1.0
50.16,14.0,1.0,1.0,1.0
50.17,12.0,1.0,1.0,1.0
50.18,7.0,1.0,1.0,1.0
50.19,20.0,1.0,1.0,1.0
50.2,14.0,1.0,1.0,1.0
50.21,8.4944,1.0,1.0,1.0
50.22,17.5056,1.0,1.0,1.0
50.23,11.0,1.0,1.0,1.0
50.24,12.0,1.0,1.0,1.0
50.25,10.0,1.0,1.0,1.0
50.26,15.4944,1.0,1.0,1.0
50.27,25.0,1.0,1.0,1.0
50.28,20.4944,1.0,1.0,1.0
50.29,20.0111,1.0,1.0,1.0
50.3,15.0,1.0,1.0,1.0
50.31,15.0,1.0,1.0,1.0
50.32,14.0,1.0,1.0,1.0
50.33,20.0,1.0,1.0,1.0
50.34,0.0,1.0,1.0,1.0
50.35,15.0,1.0,1.0,1.0
50.36,9.0,1.0,1.0,1.0
50.37,13.4944,1.0,1.0,1.0
50.38,11.5056,1.0,1.0,1.0
50.39,12.0,1.0,1.0,1.0
50.4,23.0,1.0,1.0,1.0
50.41,14.0,1.0,1.0,1.0
50.42,14.0,1.0,1.0,1.0
50.43,18.9889,1.0,1.0,1.0
50.44,13.0,1.0,1.0,1.0
50.45,32.0111,1.0,1.0,1.0
50.46,7.0,1.0,1.0,1.0
50.47,8.4944,1.0,1.0,1.0
50.48,12.5056,1.0,1.0,1.0
50.49,12.4944,1.0,1.0,1.0
50.5,14.5056,1.0,1.0,1.0
50.51,11.0,1.0,1.0,1.0
50.52,21.0,1.0,1.0,1.0
50.53,16.0,1.0,1.0,1.0
50.54,11.0,1.0,1.0,1.0
50.55,11.0,1.0,1.0,1.0
50.56,11.4944,1.0,1.0,1.0
50.57,12.5056,1.0,1.0,1.0
50.58,17.4944,1.0,1.0,1.0
50.59,13.4944,1.0,1.0,1.0
50.6,11.0111,1.0,1.0,1.0
50.61,15.0,1.0,1.0,1.0
50.62,24.0,1.0,1.0,1.0
50.63,21.0,1.0,1.0,1.0
50.64,9.0,1.0,1.0,1.0
50.65,8.4944,1.0,1.0,1.0
50.66,6.5056,1.0,1.0,1.0
50.67,15.0,1.0,1.0,1.0
50.68,31.0,1.0,1.0,1.0
50.69,14.0,1.0,1.0,1.0
50.7,12.0,1.0,1.0,1.0
50.71,11.0,1.0,1.0,1.0
50.72,16.0,1.0,1.0,1.0
50.73,13.0,1.0,1.0,1.0
50.74,10.0,1.0,1.0,1.0
50.75,12.0,1.0,1.0,1.0
50.76,11.0,1.0,1.0,1.0
50.77,8.4944,1.0,1.0,1.0
50.78,7.5056,1.0,1.0,1.0
50.79,17.0,1.0,1.0,1.0
50.8,15.0,1.0,1.0,1.0
50.81,7.0,1.0,1.0,1.0
50.82,10.4944,1.0,1.0,1.0
50.83,19.5056,1.0,1.0,1.0
50.84,18.0,1.0,1.0,1.0
50.85,15.0,1.0,1.0,1.0
50.86,12.4944,1.0,1.0,1.0
50.87,18.5056,1.0,1.0,1.0
50.88,13.0,1.0,1.0,1.0
50.89,15.0,1.0,1.0,1.0
50.9,10.0,1.0,1.0,1.0
50.91,15.0,1.0,1.0,1.0
50.92,4.0,1.0,1.0,1.0
50.93,19.0,1.0,1.0,1.0
50.94,13.0,1.0,1.0,1.0
50.95,21.4944,1.0,1.0,1.0
50.96,17.5056,1.0,1.0,1.0
50.97,15.0,1.0,1.0,1.0
50.98,14.0,1.0,1.0,1.0
50.99,11.0,1.0,1.0,1.0
51.0,19.0,1.0,1.0,1.0
51.01,9.0,1.0,1.0,1.0
51.02,17.0,1.0,1.0,1.0
51.03,5.0,1.0,1.0,1.0
51.04,20.0,1.0,1.0,1.0
51.05,16.0,1.0,1.0,1.0
51.06,20.0,1.0,1.0,1.0
51.07,21.9889,1.0,1.0,1.0
51.08,12.5056,1.0,1.0,1.0
51.09,6.5056,1.0,1.0,1.0
51.1,16.0,1.0,1.0,1.0
51.11,16.9889,1.0,1.0,1.0
51.12,13.0111,1.0,1.0,1.0
51.13,9.0,1.0,1.0,1.0
51.14,5.9889,1.0,1.0,1.0
51.15,11.0111,1.0,1.0,1.0
51.16,17.0,1.0,1.0,1.0
51.17,26.0,1.0,1.0,1.0
51.18,9.0,1.0,1.0,1.0
51.19,19.4944,1.0,1.0,1.0
51.2,10.5056,1.0,1.0,1.0
51.21,21.0,1.0,1.0,1.0
51.22,21.0,1.0,1.0,1.0
51.23,10.0,1.0,1.0,1.0
51.24,8.0,1.0,1.0,1.0
51.25,15.0,1.0,1.0,1.0
51.26,10.0,1.0,1.0,1.0
51.27,22.4944,1.0,1.0,1.0
51.28,17.5056,1.0,1.0,1.0
51.29,11.4944,1.0,1.0,1.0
51.3,18.5056,1.0,1.0,1.0
51.31,12.0,1.0,1.0,1.0
51.32,11.4944,1.0,1.0,1.0
51.33,18.5056,1.0,1.0,1.0
51.34,14.0,1.0,1.0,1.0
51.35,10.4944,1.0,1.0,1.0
51.36,11.5056,1.0,1.0,1.0
51.37,20.0,1.0,1.0,1.0
51.38,9.0,1.0,1.0,1.0
51.39,13.0,1.0,1.0,1.0
51.4,19.4944,1.0,1.0,1.0
51.41,8.5056,1.0,1.0,1.0
51.42,6.0,1.0,1.0,1.0
51.43,18.0,1.0,1.0,1.0
51.44,8.0,1.0,1.0,1.0
51.45,16.0,1.0,1.0,1.0
51.46,15.0,1.0,1.0,1.0
51.47,7.0,1.0,1.0,1.0
51.48,13.0,1.0,1.0,1.0
51.49,15.0,1.0,1.0,1.0
51.5,11.0,1.0,1.0,1.0
51.51,14.0,1.0,1.0,1.0
51.52,17.0,1.0,1.0,1.0
51.53,11.9889,1.0,1.0,1.0
51.54,14.0111,1.0,1.0,1.0
51.55,9.0,1.0,1.0,1.0
51.56,15.0,1.0,1.0,1.0
51.57,14.0,1.0,1.0,1.0
51.58,8.0,1.0,1.0,1.0
51.59,18.0,1.0,1.0,1.0
51.6,11.0,1.0,1.0,1.0
51.61,12.0,1.0,1.0,1.0
51.62,6.0,1.0,1.0,1.0
51.63,10.0,1.0,1.0,1.0
51.64,7.0,1.0,1.0,1.0
51.65,19.4944,1.0,1.0,1.0
51.66,16.5056,1.0,1.0,1.0
51.67,13.4944,1.0,1.0,1.0
51.68,9.5056,1.0,1.0,1.0
51.69,18.0,1.0,1.0,1.0
51.7,11.0,1.0,1.0,1.0
51.71,10.0,1.0,1.0,1.0
51.72,9.0,1.0,1.0,1.0
51.73,6.0,1.0,1.0,1.0
51.74,16.0,1.0,1.0,1.0
51.75,7.0,1.0,1.0,1.0
51.76,21.0,1.0,1.0,1.0
51.77,12.0,1.0,1.0,1.0
51.78,8.4944,1.0,1.0,1.0
51.79,16.5056,1.0,1.0,1.0
51.8,18.0,1.0,1.0,1.0
51.81,11.0,1.0,1.0,1.0
51.82,19.0,1.0,1.0,1.0
51.83,22.0,1.0,1.0,1.0
51.84,18.0,1.0,1.0,1.0
51.85,13.0,1.0,1.0,1.0
51.86,7.0,1.0,1.0,1.0
51.87,8.0,1.0,1.0,1.0
51.88,8.0,1.0,1.0,1.0
51.89,9.0,1.0,1.0,1.0
51.9,8.0,1.0,1.0,1.0
51.91,8.0,1.0,1.0,1.0
51.92,6.0,1.0,1.0,1.0
51.93,11.4944,1.0,1.0,1.0
51.94,22.5056,1.0,1.0,1.0
51.95,15.0,1.0,1.0,1.0
51.96,12.0,1.0,1.0,1.0
51.97,9.0,1.0,1.0,1.0
51.98,5.0,1.0,1.0,1.0
51.99,10.0,1.0,1.0,1.0
52.0,15.0,1.0,1.0,1.0
0.4,2209187.5,1.0,1.0,1.0
0.41,2236121.0,1.0,1.0,1.0
0.42,2263551.5,1.0,1.0,1.0
0.43,2285906.5,1.0,1.0,1.0
0.44,2307353.5,1.0,1.0,1.0
0.45,2322589.0,1.0,1.0,1.0
0.46,2336210.0,1.0,1.0,1.0
0.47,2340791.5,1.0,1.0,1.0
0.48,2341027.0,1.0,1.0,1.0
0.49,2328564.0,1.0,1.0,1.0
0.5,2306567.5,1.0,1.0,1.0
0.51,2270228.0,1.0,1.0,1.0
0.52,2215853.5,1.0,1.0,1.0
0.53,2136452.0,1.0,1.0,1.0
0.54,2027597.125,1.0,1.0,1.0
0.55,1888817.625,1.0,1.0,1.0
0.56,1719939.75,1.0,1.0,1.0
0.57,1536505.25,1.0,1.0,1.0
0.58,1341549.75,1.0,1.0,1.0
0.59,1148295.75,1.0,1.0,1.0
0.6,966077,1.0,1.0,1.0
0.61,800318.125,1.0,1.0,1.0
0.62,654928,1.0,1.0,1.0
0.63,532075.125,1.0,1.0,1.0
0.64,429409,1.0,1.0,1.0
0.65,348819,1.0,1.0,1.0
0.66,286615,1.0,1.0,1.0
0.67,239436,1.0,1.0,1.0
0.68,204556,1.0,1.0,1.0
0.69,177785,1.0,1.0,1.0
0.7,158531,1.0,1.0,1.0
0.71,144818,1.0,1.0,1.0
0.72,134286,1.0,1.0,1.0
0.73,125967,1.0,1.0,1.0
0.74,119510.0,1.0,1.0,1.0
0.75,114997,1.0,1.0,1.0
0.76,112803.0,1.0,1.0,1.0
0.77,109806.5,1.0,1.0,1.0
0.78,109199,1.0,1.0,1.0
0.79,108903.0,1.0,1.0,1.0
0.8,108758.5,1.0,1.0,1.0
0.81,108772.5,1.0,1.0,1.0
0.82,108231.5,1.0,1.0,1.0
0.83,108663.5,1.0,1.0,1.0
0.84,107755.0,1.0,1.0,1.0
0.85,106982.5,1.0,1.0,1.0
0.86,106446.5,1.0,1.0,1.0
0.87,105402.0,1.0,1.0,1.0
0.88,103506.0,1.0,1.0,1.0
0.89,102712,1.0,1.0,1.0
0.9,100557.0,1.0,1.0,1.0
0.91,98393.5,1.0,1.0,1.0
0.92,96204,1.0,1.0,1.0
0.93,93906.0,1.0,1.0,1.0
0.94,91027,1.0,1.0,1.0
0.95,88144.5,1.0,1.0,1.0
0.96,84741.5,1.0,1.0,1.0
0.97,81886.5,1.0,1.0,1.0
0.98,78971.0,1.0,1.0,1.0
0.99,76334.0,1.0,1.0,1.0
1.0,73359.5,1.0,1.0,1.0
1.01,69613,1.0,1.0,1.0
1.02,66631.0,1.0,1.0,1.0
1.03,63281.5,1.0,1.0,1.0
1.04,59859,1.0,1.0,1.0
1.05,56755.5,1.0,1.0,1.0
1.06,54086,1.0,1.0,1.0
1.07,51296,1.0,1.0,1.0
1.08,47774.5,1.0,1.0,1.0
1.09,44533,1.0,1.0,1.0
1.1,42558.5,1.0,1.0,1.0
1.11,39612.5,1.0,1.0,1.0
1.12,37038.5,1.0,1.0,1.0
1.13,34454.5,1.0,1.0,1.0
1.14,32347.5,1.0,1.0,1.0
1.15,30057.5,1.0,1.0,1.0
1.16,27955.0,1.0,1.0,1.0
1.17,26031.502,1.0,1.0,1.0
1.18,24382.502,1.0,1.0,1.0
1.19,22423.5,1.0,1.0,1.0
1.2,20658.5,1.0,1.0,1.0
1.21,19760.0,1.0,1.0,1.0
1.22,17904.002,1.0,1.0,1.0
1.23,16674.5,1.0,1.0,1.0
1.24,15545.5,1.0,1.0,1.0
1.25,14420.5,1.0,1.0,1.0
1.26,13199.5,1.0,1.0,1.0
1.27,12729.0,1.0,1.0,1.0
1.28,12012.001,1.0,1.0,1.0
1.29,11146.5,1.0,1.0,1.0
1.3,10884.501,1.0,1.0,1.0
1.31,9963.0,1.0,1.0,1.0
1.32,9665.002,1.0,1.0,1.0
1.33,9188.999,1.0,1.0,1.0
1.34,9197.501,1.0,1.0,1.0
1.35,8644.5,1.0,1.0,1.0
1.36,8657.5,1.0,1.0,1.0
1.37,8492.002,1.0,1.0,1.0
1.38,8411.499,1.0,1.0,1.0
1.39,8457.5,1.0,1.0,1.0
1.4,8351.499,1.0,1.0,1.0
1.41,8470.501,1.0,1.0,1.0
1.42,8472.501,1.0,1.0,1.0
1.43,8506.999,1.0,1.0,1.0
1.44,8750.501,1.0,1.0,1.0
1.45,8805.499,1.0,1.0,1.0
1.46,9001.5,1.0,1.0,1.0
1.47,9041.999,1.0,1.0,1.0
1.48,9039.5,1.0,1.0,1.0
1.49,9248.001,1.0,1.0,1.0
1.5,9213.5,1.0,1.0,1.0
1.51,9549.5,1.0,1.0,1.0
1.52,9602.498,1.0,1.0,1.0
1.53,9505.502,1.0,1.0,1.0
1.54,9661.5,1.0,1.0,1.0
1.55,10049.5,1.0,1.0,1.0
1.56,9994.0,1.0,1.0,1.0
1.57,10123.499,1.0,1.0,1.0
1.58,9939.501,1.0,1.0,1.0
1.59,9887.0,1.0,1.0,1.0
1.6,9811.0,1.0,1.0,1.0
1.61,9941.999,1.0,1.0,1.0
1.62,10064.0,1.0,1.0,1.0
1.63,10042.999,1.0,1.0,1.0
1.64,9868.001,1.0,1.0,1.0
1.65,9920.501,1.0,1.0,1.0
1.66,9916.498,1.0,1.0,1.0
1.67,9671.5,1.0,1.0,1.0
1.68,9607.501,1.0,1.0,1.0
1.69,9373.5,1.0,1.0,1.0
1.7,9261.001,1.0,1.0,1.0
1.71,9061.5,1.0,1.0,1.0
1.72,8882.0,1.0,1.0,1.0
1.73,8746.499,1.0,1.0,1.0
1.74,8457,1.0,1.0,1.0
1.75,8269.5,1.0,1.0,1.0
1.76,7916.5,1.0,1.0,1.0
1.77,7768,1.0,1.0,1.0
1.78,7559,1.0,1.0,1.0
1.79,7264.999,1.0,1.0,1.0
1.8,6990.5,1.0,1.0,1.0
1.81,6750.0,1.0,1.0,1.0
1.82,6514.0,1.0,1.0,1.0
1.83,6239.5,1.0,1.0,1.0
1.84,6089.499,1.0,1.0,1.0
1.85,5595,1.0,1.0,1.0
1.86,5491.5,1.0,1.0,1.0
1.87,5185.0,1.0,1.0,1.0
1.88,4940.0,1.0,1.0,1.0
1.89,4813,1.0,1.0,1.0
1.9,4493.0,1.0,1.0,1.0
1.91,4226.5,1.0,1.0,1.0
1.92,3968.5,1.0,1.0,1.0
1.93,3788.001,1.0,1.0,1.0
1.94,3487,1.0,1.0,1.0
1.95,3404.0,1.0,1.0,1.0
1.96,3265.5,1.0,1.0,1.0
1.97,3005.0,1.0,1.0,1.0
1.98,2831,1.0,1.0,1.0
1.99,2699,1.0,1.0,1.0
2.0,2654,1.0,1.0,1.0
2.01,2485,1.0,1.0,1.0
2.02,2260.5,1.0,1.0,1.0
2.03,2114.5,1.0,1.0,1.0
2.04,2045,1.0,1.0,1.0
2.05,1925,1.0,1.0,1.0
2.06,1886,1.0,1.0,1.0
2.07,1724.5,1.0,1.0,1.0
2.08,1677.5,1.0,1.0,1.0
2.09,1687.5,1.0,1.0,1.0
2.1,1685,1.0,1.0,1.0
2.11,1590.5,1.0,1.0,1.0
2.12,1539,1.0,1.0,1.0
2.13,1479,1.0,1.0,1.0
2.14,1436,1.0,1.0,1.0
2.15,1477,1.0,1.0,1.0
2.16,1463.5,1.0,1.0,1.0
2.17,1459.5,1.0,1.0,1.0
2.18,1522.5,1.0,1.0,1.0
2.19,1498,1.0,1.0,1.0
2.2,1514,1.0,1.0,1.0
2.21,1440,1.0,1.0,1.0
2.22,1466,1.0,1.0,1.0
2.23,1554,1.0,1.0,1.0
2.24,1546.5,1.0,1.0,1.0
2.25,1682.5,1.0,1.0,1.0
2.26,1626,1.0,1.0,1.0
2.27,1739.5,1.0,1.0,1.0
2.28,1710.5,1.0,1.0,1.0
2.29,1677.5,1.0,1.0,1.0
2.3,1780.5,1.0,1.0,1.0
2.31,1908.5,1.0,1.0,1.0
2.32,1849.5,1.0,1.0,1.0
2.33,1950.5,1.0,1.0,1.0
2.34,1951.5,1.0,1.0,1.0
2.35,1991,1.0,1.0,1.0
2.36,1914,1.0,1.0,1.0
2.37,1984,1.0,1.0,1.0
2.38,1971.5,1.0,1.0,1.0
2.39,2040,1.0,1.0,1.0
2.4,1960,1.0,1.0,1.0
2.41,2054,1.0,1.0,1.0
2.42,2057.5,1.0,1.0,1.0
2.43,2035,1.0,1.0,1.0
2.44,1977.0,1.0,1.0,1.0
2.45,2126.5,1.0,1.0,1.0
2.46,2015.5,1.0,1.0,1.0
2.47,2041.5,1.0,1.0,1.0
2.48,2059.0,1.0,1.0,1.0
2.49,1990,1.0,1.0,1.0
2.5,2104.499,1.0,1.0,1.0
2.51,1907.5,1.0,1.0,1.0
2.52,1975.5,1.0,1.0,1.0
2.53,1937,1.0,1.0,1.0
2.54,1896,1.0,1.0,1.0
2.55,1914,1.0,1.0,1.0
2.56,1959,1.0,1.0,1.0
2.57,1818.5,1.0,1.0,1.0
2.58,1806,1.0,1.0,1.0
2.59,1827.5,1.0,1.0,1.0
2.6,1663.5,1.0,1.0,1.0
2.61,1661,1.0,1.0,1.0
2.62,1541,1.0,1.0,1.0
2.63,1476.5,1.0,1.0,1.0
2.64,1533.5,1.0,1.0,1.0
2.65,1474.5,1.0,1.0,1.0
2.66,1379.5,1.0,1.0,1.0
2.67,1391,1.0,1.0,1.0
2.68,1408,1.0,1.0,1.0
2.69,1299,1.0,1.0,1.0
2.7,1179,1.0,1.0,1.0
2.71,1196,1.0,1.0,1.0
2.72,1145.5,1.0,1.0,1.0
2.73,1125,1.0,1.0,1.0
2.74,1065,1.0,1.0,1.0
2.75,998.0,1.0,1.0,1.0
2.76,1020.5,1.0,1.0,1.0
2.77,911.4998,1.0,1.0,1.0
2.78,973.0009,1.0,1.0,1.0
2.79,855.9996,1.0,1.0,1.0
2.8,906.5001,1.0,1.0,1.0
2.81,798.9997,1.0,1.0,1.0
2.82,796.0005,1.0,1.0,1.0
2.83,712.4998,1.0,1.0,1.0
2.84,722.5002,1.0,1.0,1.0
2.85,684.4994,1.0,1.0,1.0
2.86,667.5004,1.0,1.0,1.0
2.87,592.0002,1.0,1.0,1.0
2.88,601.0001,1.0,1.0,1.0
2.89,623.5002,1.0,1.0,1.0
2.9,516.4999,1.0,1.0,1.0
2.91,615.4998,1.0,1.0,1.0
2.92,513.5001,1.0,1.0,1.0
2.93,542.5001,1.0,1.0,1.0
2.94,550.9999,1.0,1.0,1.0
2.95,517.0001,1.0,1.0,1.0
2.96,514.9999,1.0,1.0,1.0
2.97,486.9999,1.0,1.0,1.0
2.98,537.0002,1.0,1.0,1.0
2.99,513.4998,1.0,1.0,1.0
3.0,478.4998,1.0,1.0,1.0
3.01,558.0005,1.0,1.0,1.0
3.02,527.0001,1.0,1.0,1.0
3.03,525.9995,1.0,1.0,1.0
3.04,520.0002,1.0,1.0,1.0
3.05,505.9999,1.0,1.0,1.0
3.06,526.5002,1.0,1.0,1.0
3.07,586.4999,1.0,1.0,1.0
3.08,553.9998,1.0,1.0,1.0
3.09,543.0003,1.0,1.0,1.0
3.1,613.9998,1.0,1.0,1.0
3.11,503.4998,1.0,1.0,1.0
3.12,557.0002,1.0,1.0,1.0
3.13,594.9998,1.0,1.0,1.0
3.14,595.0003,1.0,1.0,1.0
3.15,613.9999,1.0,1.0,1.0
3.16,634.9995,1.0,1.0,1.0
3.17,599.0002,1.0,1.0,1.0
3.18,649.4998,1.0,1.0,1.0
3.19,673.5005,1.0,1.0,1.0
3.2,614.0,1.0,1.0,1.0
3.21,632.4995,1.0,1.0,1.0
3.22,694.5002,1.0,1.0,1.0
3.23,695.4996,1.0,1.0,1.0
3.24,677.5002,1.0,1.0,1.0
3.25,658.0002,1.0,1.0,1.0
3.26,666.9999,1.0,1.0,1.0
3.27,695.4999,1.0,1.0,1.0
3.28,696.5004,1.0,1.0,1.0
3.29,690.4993,1.0,1.0,1.0
3.3,727.5002,1.0,1.0,1.0
3.31,717.0004,1.0,1.0,1.0
3.32,652.0,1.0,1.0,1.0
3.33,743.9999,1.0,1.0,1.0
3.34,720.4999,1.0,1.0,1.0
3.35,704.9998,1.0,1.0,1.0
3.36,751.0003,1.0,1.0,1.0
3.37,719.4998,1.0,1.0,1.0
3.38,736.4999,1.0,1.0,1.0
3.39,700.5004,1.0,1.0,1.0
3.4,638.9999,1.0,1.0,1.0
3.41,635.5002,1.0,1.0,1.0
3.42,644.9997,1.0,1.0,1.0
3.43,662.5002,1.0,1.0,1.0
3.44,719.9996,1.0,1.0,1.0
3.45,614.0002,1.0,1.0,1.0
3.46,615.5002,1.0,1.0,1.0
3.47,594.9998,1.0,1.0,1.0
3.48,601.9998,1.0,1.0,1.0
3.49,576.5005,1.0,1.0,1.0
3.5,617.4999,1.0,1.0,1.0
3.51,584.0001,1.0,1.0,1.0
3.52,612.4995,1.0,1.0,1.0
3.53,568.5004,1.0,1.0,1.0
3.54,564.4999,1.0,1.0,1.0
3.55,504.0,1.0,1.0,1.0
3.56,528.0001,1.0,1.0,1.0
3.57,527.4996,1.0,1.0,1.0
3.58,499.0002,1.0,1.0,1.0
3.59,487.0002,1.0,1.0,1.0
3.6,457.5001,1.0,1.0,1.0
3.61,459.9999,1.0,1.0,1.0
3.62,448.4998,1.0,1.0,1.0
3.63,466.4999,1.0,1.0,1.0
3.64,440.0003,1.0,1.0,1.0
3.65,387.9999,1.0,1.0,1.0
3.66,386.0001,1.0,1.0,1.0
3.67,356.0001,1.0,1.0,1.0
3.68,364.9999,1.0,1.0,1.0
3.69,351.0,1.0,1.0,1.0
3.7,355.9998,1.0,1.0,1.0
3.71,329.0001,1.0,1.0,1.0
3.72,350.4997,1.0,1.0,1.0
3.73,321.0002,1.0,1.0,1.0
3.74,317.5001,1.0,1.0,1.0
3.75,314.5002,1.0,1.0,1.0
3.76,305.9999,1.0,1.0,1.0
3.77,326.0,1.0,1.0,1.0
3.78,323.0,1.0,1.0,1.0
3.79,328.9999,1.0,1.0,1.0
3.8,284.0002,1.0,1.0,1.0
3.81,286.4999,1.0,1.0,1.0
3.82,311.4999,1.0,1.0,1.0
3.83,263.0002,1.0,1.0,1.0
3.84,297.4998,1.0,1.0,1.0
3.85,240.0001,1.0,1.0,1.0
3.86,305.4999,1.0,1.0,1.0
3.87,306.4998,1.0,1.0,1.0
3.88,304.5002,1.0,1.0,1.0
3.89,310.9999,1.0,1.0,1.0
3.9,279.5002,1.0,1.0,1.0
3.91,297.4998,1.0,1.0,1.0
3.92,274.0001,1.0,1.0,1.0
3.93,302.5002,1.0,1.0,1.0
3.94,308.9998,1.0,1.0,1.0
3.95,342.4997,1.0,1.0,1.0
3.96,332.5002,1.0,1.0,1.0
3.97,321.4998,1.0,1.0,1.0
3.98,282.5001,1.0,1.0,1.0
3.99,309.0003,1.0,1.0,1.0
4.0,316.9998,1.0,1.0,1.0
4.01,349.5002,1.0,1.0,1.0
4.02,361.5002,1.0,1.0,1.0
4.03,334.9995,1.0,1.0,1.0
4.04,394.0001,1.0,1.0,1.0
4.05,368.0002,1.0,1.0,1.0
4.06,361.0,1.0,1.0,1.0
4.07,368.0001,1.0,1.0,1.0
4.08,331.5001,1.0,1.0,1.0
4.09,350.4995,1.0,1.0,1.0
4.1,414.0002,1.0,1.0,1.0
4.11,384.5001,1.0,1.0,1.0
4.12,393.4998,1.0,1.0,1.0
4.13,337.5003,1.0,1.0,1.0
4.14,349.4997,1.0,1.0,1.0
4.15,377.0003,1.0,1.0,1.0
4.16,359.4999,1.0,1.0,1.0
4.17,376.4997,1.0,1.0,1.0
4.18,378.0003,1.0,1.0,1.0
4.19,416.4999,1.0,1.0,1.0
4.2,356.4999,1.0,1.0,1.0
4.21,374.4998,1.0,1.0,1.0
4.22,374.5002,1.0,1.0,1.0
4.23,351.4999,1.0,1.0,1.0
4.24,375.0,1.0,1.0,1.0
4.25,371.0001,1.0,1.0,1.0
4.26,369.4997,1.0,1.0,1.0
4.27,379.9999,1.0,1.0,1.0
4.28,359.5003,1.0,1.0,1.0
4.29,339.0,1.0,1.0,1.0
4.3,350.5001,1.0,1.0,1.0
4.31,342.0,1.0,1.0,1.0
4.32,329.0,1.0,1.0,1.0
4.33,307.5001,1.0,1.0,1.0
4.34,347.0001,1.0,1.0,1.0
4.35,365.4996,1.0,1.0,1.0
4.36,350.4999,1.0,1.0,1.0
4.37,298.0004,1.0,1.0,1.0
4.38,334.4996,1.0,1.0,1.0
4.39,345.4999,1.0,1.0,1.0
4.4,330.5002,1.0,1.0,1.0
4.41,322.4998,1.0,1.0,1.0
4.42,296.0003,1.0,1.0,1.0
4.43,335.4999,1.0,1.0,1.0
4.44,302.9999,1.0,1.0,1.0
4.45,291.5001,1.0,1.0,1.0
4.46,291.5002,1.0,1.0,1.0
4.47,260.9998,1.0,1.0,1.0
4.48,294.0002,1.0,1.0,1.0
4.49,283.0,1.0,1.0,1.0
4.5,282.4998,1.0,1.0,1.0