File: XRD:XRR/STO/22147_STOL/22147_STOL_XRD_2.csv
#twotheta, yobs, ycal, bkg, diff
42.0,10.4944,1.0,1.0,1.0
42.01,11.5056,1.0,1.0,1.0
42.02,6.0,1.0,1.0,1.0
42.03,5.0,1.0,1.0,1.0
42.04,8.0,1.0,1.0,1.0
42.05,75.0,1.0,1.0,1.0
42.06,2.0,1.0,1.0,1.0
42.07,4.0,1.0,1.0,1.0
42.08,8.0,1.0,1.0,1.0
42.09,5.0,1.0,1.0,1.0
42.1,2.0,1.0,1.0,1.0
42.11,5.9889,1.0,1.0,1.0
42.12,15.0111,1.0,1.0,1.0
42.13,2.0,1.0,1.0,1.0
42.14,7.0,1.0,1.0,1.0
42.15,16.0,1.0,1.0,1.0
42.16,14.0,1.0,1.0,1.0
42.17,9.0,1.0,1.0,1.0
42.18,7.0,1.0,1.0,1.0
42.19,10.0,1.0,1.0,1.0
42.2,10.0,1.0,1.0,1.0
42.21,7.0,1.0,1.0,1.0
42.22,11.0,1.0,1.0,1.0
42.23,16.0,1.0,1.0,1.0
42.24,8.0,1.0,1.0,1.0
42.25,11.0,1.0,1.0,1.0
42.26,8.0,1.0,1.0,1.0
42.27,9.0,1.0,1.0,1.0
42.28,13.0,1.0,1.0,1.0
42.29,13.0,1.0,1.0,1.0
42.3,14.0,1.0,1.0,1.0
42.31,10.0,1.0,1.0,1.0
42.32,10.0,1.0,1.0,1.0
42.33,4.0,1.0,1.0,1.0
42.34,16.0,1.0,1.0,1.0
42.35,8.0,1.0,1.0,1.0
42.36,6.0,1.0,1.0,1.0
42.37,2.0,1.0,1.0,1.0
42.38,9.0,1.0,1.0,1.0
42.39,7.0,1.0,1.0,1.0
42.4,22.4944,1.0,1.0,1.0
42.41,12.0,1.0,1.0,1.0
42.42,9.0,1.0,1.0,1.0
42.43,17.5056,1.0,1.0,1.0
42.44,10.0,1.0,1.0,1.0
42.45,7.0,1.0,1.0,1.0
42.46,5.0,1.0,1.0,1.0
42.47,16.0,1.0,1.0,1.0
42.48,6.0,1.0,1.0,1.0
42.49,15.0,1.0,1.0,1.0
42.5,13.0,1.0,1.0,1.0
42.51,11.0,1.0,1.0,1.0
42.52,6.0,1.0,1.0,1.0
42.53,2.0,1.0,1.0,1.0
42.54,8.0,1.0,1.0,1.0
42.55,12.4944,1.0,1.0,1.0
42.56,6.5056,1.0,1.0,1.0
42.57,9.0,1.0,1.0,1.0
42.58,2.4944,1.0,1.0,1.0
42.59,6.5056,1.0,1.0,1.0
42.6,9.0,1.0,1.0,1.0
42.61,11.0,1.0,1.0,1.0
42.62,15.0,1.0,1.0,1.0
42.63,12.0,1.0,1.0,1.0
42.64,5.0,1.0,1.0,1.0
42.65,11.0,1.0,1.0,1.0
42.66,13.0,1.0,1.0,1.0
42.67,10.0,1.0,1.0,1.0
42.68,16.0,1.0,1.0,1.0
42.69,11.0,1.0,1.0,1.0
42.7,2.0,1.0,1.0,1.0
42.71,11.9889,1.0,1.0,1.0
42.72,8.5056,1.0,1.0,1.0
42.73,10.5056,1.0,1.0,1.0
42.74,4.0,1.0,1.0,1.0
42.75,8.4944,1.0,1.0,1.0
42.76,24.5056,1.0,1.0,1.0
42.77,17.0,1.0,1.0,1.0
42.78,18.0,1.0,1.0,1.0
42.79,15.0,1.0,1.0,1.0
42.8,23.0,1.0,1.0,1.0
42.81,7.0,1.0,1.0,1.0
42.82,17.0,1.0,1.0,1.0
42.83,7.0,1.0,1.0,1.0
42.84,17.0,1.0,1.0,1.0
42.85,15.0,1.0,1.0,1.0
42.86,14.4944,1.0,1.0,1.0
42.87,12.5056,1.0,1.0,1.0
42.88,7.0,1.0,1.0,1.0
42.89,13.0,1.0,1.0,1.0
42.9,19.0,1.0,1.0,1.0
42.91,8.0,1.0,1.0,1.0
42.92,15.0,1.0,1.0,1.0
42.93,7.4944,1.0,1.0,1.0
42.94,11.0,1.0,1.0,1.0
42.95,10.5056,1.0,1.0,1.0
42.96,14.0,1.0,1.0,1.0
42.97,19.0,1.0,1.0,1.0
42.98,24.0,1.0,1.0,1.0
42.99,13.0,1.0,1.0,1.0
43.0,12.0,1.0,1.0,1.0
43.01,9.0,1.0,1.0,1.0
43.02,13.0,1.0,1.0,1.0
43.03,22.0,1.0,1.0,1.0
43.04,18.0,1.0,1.0,1.0
43.05,13.0,1.0,1.0,1.0
43.06,9.0,1.0,1.0,1.0
43.07,6.4944,1.0,1.0,1.0
43.08,18.0,1.0,1.0,1.0
43.09,16.4944,1.0,1.0,1.0
43.1,17.0111,1.0,1.0,1.0
43.11,12.0,1.0,1.0,1.0
43.12,20.4944,1.0,1.0,1.0
43.13,22.5056,1.0,1.0,1.0
43.14,20.0,1.0,1.0,1.0
43.15,13.0,1.0,1.0,1.0
43.16,13.0,1.0,1.0,1.0
43.17,18.0,1.0,1.0,1.0
43.18,25.0,1.0,1.0,1.0
43.19,5.0,1.0,1.0,1.0
43.2,15.0,1.0,1.0,1.0
43.21,13.0,1.0,1.0,1.0
43.22,12.0,1.0,1.0,1.0
43.23,3.0,1.0,1.0,1.0
43.24,14.0,1.0,1.0,1.0
43.25,21.4944,1.0,1.0,1.0
43.26,14.5056,1.0,1.0,1.0
43.27,4.0,1.0,1.0,1.0
43.28,8.4944,1.0,1.0,1.0
43.29,14.5056,1.0,1.0,1.0
43.3,7.4944,1.0,1.0,1.0
43.31,8.0,1.0,1.0,1.0
43.32,9.5056,1.0,1.0,1.0
43.33,19.4944,1.0,1.0,1.0
43.34,13.5056,1.0,1.0,1.0
43.35,11.4944,1.0,1.0,1.0
43.36,7.5056,1.0,1.0,1.0
43.37,12.0,1.0,1.0,1.0
43.38,7.0,1.0,1.0,1.0
43.39,14.0,1.0,1.0,1.0
43.4,2.0,1.0,1.0,1.0
43.41,15.4944,1.0,1.0,1.0
43.42,29.5056,1.0,1.0,1.0
43.43,21.4944,1.0,1.0,1.0
43.44,7.5056,1.0,1.0,1.0
43.45,7.0,1.0,1.0,1.0
43.46,7.0,1.0,1.0,1.0
43.47,14.0,1.0,1.0,1.0
43.48,15.9889,1.0,1.0,1.0
43.49,23.0111,1.0,1.0,1.0
43.5,18.4944,1.0,1.0,1.0
43.51,9.5056,1.0,1.0,1.0
43.52,16.0,1.0,1.0,1.0
43.53,14.0,1.0,1.0,1.0
43.54,20.0,1.0,1.0,1.0
43.55,33.4944,1.0,1.0,1.0
43.56,28.5056,1.0,1.0,1.0
43.57,22.9889,1.0,1.0,1.0
43.58,20.0111,1.0,1.0,1.0
43.59,20.4944,1.0,1.0,1.0
43.6,18.5056,1.0,1.0,1.0
43.61,13.0,1.0,1.0,1.0
43.62,16.4944,1.0,1.0,1.0
43.63,18.5056,1.0,1.0,1.0
43.64,24.0,1.0,1.0,1.0
43.65,26.0,1.0,1.0,1.0
43.66,28.4944,1.0,1.0,1.0
43.67,29.5056,1.0,1.0,1.0
43.68,18.4944,1.0,1.0,1.0
43.69,29.5056,1.0,1.0,1.0
43.7,28.9889,1.0,1.0,1.0
43.71,34.0111,1.0,1.0,1.0
43.72,16.0,1.0,1.0,1.0
43.73,42.4944,1.0,1.0,1.0
43.74,34.5056,1.0,1.0,1.0
43.75,29.0,1.0,1.0,1.0
43.76,31.0,1.0,1.0,1.0
43.77,34.0,1.0,1.0,1.0
43.78,22.4944,1.0,1.0,1.0
43.79,33.4833,1.0,1.0,1.0
43.8,30.5167,1.0,1.0,1.0
43.81,36.0,1.0,1.0,1.0
43.82,26.4944,1.0,1.0,1.0
43.83,40.5056,1.0,1.0,1.0
43.84,35.5056,1.0,1.0,1.0
43.85,42.4944,1.0,1.0,1.0
43.86,22.0,1.0,1.0,1.0
43.87,48.5056,1.0,1.0,1.0
43.88,50.4944,1.0,1.0,1.0
43.89,37.0,1.0,1.0,1.0
43.9,39.5056,1.0,1.0,1.0
43.91,37.4944,1.0,1.0,1.0
43.92,39.0,1.0,1.0,1.0
43.93,34.4944,1.0,1.0,1.0
43.94,30.5056,1.0,1.0,1.0
43.95,33.4944,1.0,1.0,1.0
43.96,38.0111,1.0,1.0,1.0
43.97,37.4944,1.0,1.0,1.0
43.98,46.4944,1.0,1.0,1.0
43.99,45.0111,1.0,1.0,1.0
44.0,52.0,1.0,1.0,1.0
44.01,34.9889,1.0,1.0,1.0
44.02,43.0,1.0,1.0,1.0
44.03,35.0111,1.0,1.0,1.0
44.04,32.0,1.0,1.0,1.0
44.05,28.0,1.0,1.0,1.0
44.06,41.0,1.0,1.0,1.0
44.07,34.0,1.0,1.0,1.0
44.08,40.0,1.0,1.0,1.0
44.09,41.0,1.0,1.0,1.0
44.1,32.0,1.0,1.0,1.0
44.11,34.4944,1.0,1.0,1.0
44.12,24.0,1.0,1.0,1.0
44.13,34.4944,1.0,1.0,1.0
44.14,53.0111,1.0,1.0,1.0
44.15,45.4944,1.0,1.0,1.0
44.16,40.5056,1.0,1.0,1.0
44.17,21.4944,1.0,1.0,1.0
44.18,40.0,1.0,1.0,1.0
44.19,42.0,1.0,1.0,1.0
44.2,41.5056,1.0,1.0,1.0
44.21,28.0,1.0,1.0,1.0
44.22,32.0,1.0,1.0,1.0
44.23,19.0,1.0,1.0,1.0
44.24,32.4944,1.0,1.0,1.0
44.25,41.5056,1.0,1.0,1.0
44.26,36.0,1.0,1.0,1.0
44.27,41.4944,1.0,1.0,1.0
44.28,39.5056,1.0,1.0,1.0
44.29,31.0,1.0,1.0,1.0
44.3,29.0,1.0,1.0,1.0
44.31,53.0,1.0,1.0,1.0
44.32,36.9889,1.0,1.0,1.0
44.33,50.5056,1.0,1.0,1.0
44.34,25.5056,1.0,1.0,1.0
44.35,42.0,1.0,1.0,1.0
44.36,44.0,1.0,1.0,1.0
44.37,62.4944,1.0,1.0,1.0
44.38,37.0,1.0,1.0,1.0
44.39,72.0,1.0,1.0,1.0
44.4,79.5056,1.0,1.0,1.0
44.41,67.9889,1.0,1.0,1.0
44.42,75.9889,1.0,1.0,1.0
44.43,92.5056,1.0,1.0,1.0
44.44,84.5167,1.0,1.0,1.0
44.45,81.4833,1.0,1.0,1.0
44.46,90.0111,1.0,1.0,1.0
44.47,104.4833,1.0,1.0,1.0
44.48,116.5056,1.0,1.0,1.0
44.49,117.5056,1.0,1.0,1.0
44.5,114.0,1.0,1.0,1.0
44.51,118.4944,1.0,1.0,1.0
44.52,148.0,1.0,1.0,1.0
44.53,152.5056,1.0,1.0,1.0
44.54,173.0,1.0,1.0,1.0
44.55,146.4944,1.0,1.0,1.0
44.56,157.0,1.0,1.0,1.0
44.57,167.5167,1.0,1.0,1.0
44.58,205.0,1.0,1.0,1.0
44.59,201.9778,1.0,1.0,1.0
44.6,206.0111,1.0,1.0,1.0
44.61,221.4833,1.0,1.0,1.0
44.62,219.4944,1.0,1.0,1.0
44.63,287.0,1.0,1.0,1.0
44.64,208.0222,1.0,1.0,1.0
44.65,248.4944,1.0,1.0,1.0
44.66,302.4944,1.0,1.0,1.0
44.67,298.4944,1.0,1.0,1.0
44.68,278.5056,1.0,1.0,1.0
44.69,294.0,1.0,1.0,1.0
44.7,314.4944,1.0,1.0,1.0
44.71,303.0,1.0,1.0,1.0
44.72,326.4944,1.0,1.0,1.0
44.73,379.9778,1.0,1.0,1.0
44.74,350.0333,1.0,1.0,1.0
44.75,361.4722,1.0,1.0,1.0
44.76,422.9889,1.0,1.0,1.0
44.77,449.0333,1.0,1.0,1.0
44.78,462.4944,1.0,1.0,1.0
44.79,440.9889,1.0,1.0,1.0
44.8,448.0333,1.0,1.0,1.0
44.81,472.4722,1.0,1.0,1.0
44.82,520.0,1.0,1.0,1.0
44.83,534.9556,1.0,1.0,1.0
44.84,524.5278,1.0,1.0,1.0
44.85,578.0222,1.0,1.0,1.0
44.86,574.9445,1.0,1.0,1.0
44.87,637.5278,1.0,1.0,1.0
44.88,631.5167,1.0,1.0,1.0
44.89,607.9556,1.0,1.0,1.0
44.9,634.4833,1.0,1.0,1.0
44.91,645.0444,1.0,1.0,1.0
44.92,597.5167,1.0,1.0,1.0
44.93,700.9778,1.0,1.0,1.0
44.94,727.0333,1.0,1.0,1.0
44.95,719.4278,1.0,1.0,1.0
44.96,716.5389,1.0,1.0,1.0
44.97,762.0,1.0,1.0,1.0
44.98,774.9778,1.0,1.0,1.0
44.99,714.5056,1.0,1.0,1.0
45.0,786.0222,1.0,1.0,1.0
45.01,784.9445,1.0,1.0,1.0
45.02,844.5278,1.0,1.0,1.0
45.03,813.4944,1.0,1.0,1.0
45.04,821.4833,1.0,1.0,1.0
45.05,889.9667,1.0,1.0,1.0
45.06,933.0,1.0,1.0,1.0
45.07,916.5389,1.0,1.0,1.0
45.08,903.0111,1.0,1.0,1.0
45.09,899.9778,1.0,1.0,1.0
45.1,957.0444,1.0,1.0,1.0
45.11,912.0,1.0,1.0,1.0
45.12,1012.47,1.0,1.0,1.0
45.13,977.5167,1.0,1.0,1.0
45.14,967.4944,1.0,1.0,1.0
45.15,949.9889,1.0,1.0,1.0
45.16,1039.92,1.0,1.0,1.0
45.17,961.0778,1.0,1.0,1.0
45.18,991.9667,1.0,1.0,1.0
45.19,994.5278,1.0,1.0,1.0
45.2,1077.97,1.0,1.0,1.0
45.21,1014.04,1.0,1.0,1.0
45.22,1065.47,1.0,1.0,1.0
45.23,1022.99,1.0,1.0,1.0
45.24,1062.54,1.0,1.0,1.0
45.25,1085.45,1.0,1.0,1.0
45.26,1014.01,1.0,1.0,1.0
45.27,1081.52,1.0,1.0,1.0
45.28,1062.96,1.0,1.0,1.0
45.29,1124.08,1.0,1.0,1.0
45.3,1103.48,1.0,1.0,1.0
45.31,1137.02,1.0,1.0,1.0
45.32,1061.98,1.0,1.0,1.0
45.33,1082.51,1.0,1.0,1.0
45.34,1093.48,1.0,1.0,1.0
45.35,1140.99,1.0,1.0,1.0
45.36,1057.49,1.0,1.0,1.0
45.37,1034.54,1.0,1.0,1.0
45.38,1121.92,1.0,1.0,1.0
45.39,1023.02,1.0,1.0,1.0
45.4,1086.54,1.0,1.0,1.0
45.41,1090.45,1.0,1.0,1.0
45.42,1098.98,1.0,1.0,1.0
45.43,1052.59,1.0,1.0,1.0
45.44,1094.99,1.0,1.0,1.0
45.45,1059.99,1.0,1.0,1.0
45.46,1064.48,1.0,1.0,1.0
45.47,1092.94,1.0,1.0,1.0
45.48,1046.04,1.0,1.0,1.0
45.49,1005.02,1.0,1.0,1.0
45.5,1027.03,1.0,1.0,1.0
45.51,1073.52,1.0,1.0,1.0
45.52,1057.43,1.0,1.0,1.0
45.53,1014.51,1.0,1.0,1.0
45.54,975.4722,1.0,1.0,1.0
45.55,991.55,1.0,1.0,1.0
45.56,1023.98,1.0,1.0,1.0
45.57,1033.0,1.0,1.0,1.0
45.58,966.5056,1.0,1.0,1.0
45.59,941.0222,1.0,1.0,1.0
45.6,986.4833,1.0,1.0,1.0
45.61,1001.99,1.0,1.0,1.0
45.62,976.5722,1.0,1.0,1.0
45.63,935.3945,1.0,1.0,1.0
45.64,937.55,1.0,1.0,1.0
45.65,910.5056,1.0,1.0,1.0
45.66,935.5056,1.0,1.0,1.0
45.67,898.0333,1.0,1.0,1.0
45.68,890.4944,1.0,1.0,1.0
45.69,927.9556,1.0,1.0,1.0
45.7,864.5278,1.0,1.0,1.0
45.71,933.9778,1.0,1.0,1.0
45.72,857.0111,1.0,1.0,1.0
45.73,856.5278,1.0,1.0,1.0
45.74,835.9778,1.0,1.0,1.0
45.75,828.4944,1.0,1.0,1.0
45.76,858.5056,1.0,1.0,1.0
45.77,860.4722,1.0,1.0,1.0
45.78,806.0,1.0,1.0,1.0
45.79,786.5611,1.0,1.0,1.0
45.8,773.4611,1.0,1.0,1.0
45.81,777.5278,1.0,1.0,1.0
45.82,746.0,1.0,1.0,1.0
45.83,754.4833,1.0,1.0,1.0
45.84,763.4944,1.0,1.0,1.0
45.85,752.5056,1.0,1.0,1.0
45.86,722.5167,1.0,1.0,1.0
45.87,702.5167,1.0,1.0,1.0
45.88,715.9778,1.0,1.0,1.0
45.89,726.0,1.0,1.0,1.0
45.9,689.5278,1.0,1.0,1.0
45.91,716.5167,1.0,1.0,1.0
45.92,682.4722,1.0,1.0,1.0
45.93,665.9889,1.0,1.0,1.0
45.94,693.5278,1.0,1.0,1.0
45.95,674.9667,1.0,1.0,1.0
45.96,622.0111,1.0,1.0,1.0
45.97,652.0111,1.0,1.0,1.0
45.98,654.4722,1.0,1.0,1.0
45.99,637.0,1.0,1.0,1.0
46.0,645.4944,1.0,1.0,1.0
46.01,698.0222,1.0,1.0,1.0
46.02,623.0111,1.0,1.0,1.0
46.03,597.9889,1.0,1.0,1.0
46.04,626.4944,1.0,1.0,1.0
46.05,622.0222,1.0,1.0,1.0
46.06,589.4833,1.0,1.0,1.0
46.07,601.9778,1.0,1.0,1.0
46.08,578.5167,1.0,1.0,1.0
46.09,518.5167,1.0,1.0,1.0
46.1,540.5056,1.0,1.0,1.0
46.11,558.9667,1.0,1.0,1.0
46.12,592.0,1.0,1.0,1.0
46.13,590.0444,1.0,1.0,1.0
46.14,557.0,1.0,1.0,1.0
46.15,561.4611,1.0,1.0,1.0
46.16,534.5056,1.0,1.0,1.0
46.17,565.5389,1.0,1.0,1.0
46.18,566.4611,1.0,1.0,1.0
46.19,501.4944,1.0,1.0,1.0
46.2,511.5167,1.0,1.0,1.0
46.21,501.4722,1.0,1.0,1.0
46.22,536.5056,1.0,1.0,1.0
46.23,521.55,1.0,1.0,1.0
46.24,456.4833,1.0,1.0,1.0
46.25,545.5056,1.0,1.0,1.0
46.26,512.0,1.0,1.0,1.0
46.27,466.0,1.0,1.0,1.0
46.28,428.5056,1.0,1.0,1.0
46.29,462.9778,1.0,1.0,1.0
46.3,461.4944,1.0,1.0,1.0
46.31,458.9889,1.0,1.0,1.0
46.32,455.0444,1.0,1.0,1.0
46.33,408.0,1.0,1.0,1.0
46.34,434.4722,1.0,1.0,1.0
46.35,437.0,1.0,1.0,1.0
46.36,459.0222,1.0,1.0,1.0
46.37,447.4944,1.0,1.0,1.0
46.38,400.4833,1.0,1.0,1.0
46.39,395.5056,1.0,1.0,1.0
46.4,410.0222,1.0,1.0,1.0
46.41,388.0,1.0,1.0,1.0
46.42,407.9778,1.0,1.0,1.0
46.43,388.0222,1.0,1.0,1.0
46.44,345.9889,1.0,1.0,1.0
46.45,370.9667,1.0,1.0,1.0
46.46,394.5389,1.0,1.0,1.0
46.47,388.4944,1.0,1.0,1.0
46.48,356.0222,1.0,1.0,1.0
46.49,321.9889,1.0,1.0,1.0
46.5,369.0111,1.0,1.0,1.0
46.51,370.0,1.0,1.0,1.0
46.52,282.4833,1.0,1.0,1.0
46.53,318.0,1.0,1.0,1.0
46.54,304.0,1.0,1.0,1.0
46.55,315.0222,1.0,1.0,1.0
46.56,301.4833,1.0,1.0,1.0
46.57,300.9889,1.0,1.0,1.0
46.58,284.5278,1.0,1.0,1.0
46.59,255.4833,1.0,1.0,1.0
46.6,275.0111,1.0,1.0,1.0
46.61,284.0,1.0,1.0,1.0
46.62,283.0,1.0,1.0,1.0
46.63,237.0111,1.0,1.0,1.0
46.64,259.9667,1.0,1.0,1.0
46.65,206.0333,1.0,1.0,1.0
46.66,245.4833,1.0,1.0,1.0
46.67,260.0111,1.0,1.0,1.0
46.68,205.5167,1.0,1.0,1.0
46.69,205.4722,1.0,1.0,1.0
46.7,202.9889,1.0,1.0,1.0
46.71,207.0111,1.0,1.0,1.0
46.72,186.9889,1.0,1.0,1.0
46.73,189.5167,1.0,1.0,1.0
46.74,189.9889,1.0,1.0,1.0
46.75,205.5167,1.0,1.0,1.0
46.76,192.4944,1.0,1.0,1.0
46.77,161.0222,1.0,1.0,1.0
46.78,169.9778,1.0,1.0,1.0
46.79,187.4944,1.0,1.0,1.0
46.8,152.0222,1.0,1.0,1.0
46.81,152.9889,1.0,1.0,1.0
46.82,157.0111,1.0,1.0,1.0
46.83,133.4833,1.0,1.0,1.0
46.84,168.0,1.0,1.0,1.0
46.85,120.5167,1.0,1.0,1.0
46.86,132.4833,1.0,1.0,1.0
46.87,119.0,1.0,1.0,1.0
46.88,150.0,1.0,1.0,1.0
46.89,130.5056,1.0,1.0,1.0
46.9,119.0111,1.0,1.0,1.0
46.91,109.4833,1.0,1.0,1.0
46.92,105.5056,1.0,1.0,1.0
46.93,94.0111,1.0,1.0,1.0
46.94,100.0,1.0,1.0,1.0
46.95,107.0,1.0,1.0,1.0
46.96,103.4833,1.0,1.0,1.0
46.97,109.0222,1.0,1.0,1.0
46.98,106.9889,1.0,1.0,1.0
46.99,111.4944,1.0,1.0,1.0
47.0,91.0111,1.0,1.0,1.0
47.01,117.9889,1.0,1.0,1.0
47.02,129.0111,1.0,1.0,1.0
47.03,112.5056,1.0,1.0,1.0
47.04,126.9889,1.0,1.0,1.0
47.05,126.9778,1.0,1.0,1.0
47.06,135.5278,1.0,1.0,1.0
47.07,136.4944,1.0,1.0,1.0
47.08,144.0,1.0,1.0,1.0
47.09,131.0,1.0,1.0,1.0
47.1,145.5056,1.0,1.0,1.0
47.11,120.5056,1.0,1.0,1.0
47.12,121.9778,1.0,1.0,1.0
47.13,141.5056,1.0,1.0,1.0
47.14,134.4944,1.0,1.0,1.0
47.15,161.0,1.0,1.0,1.0
47.16,138.0222,1.0,1.0,1.0
47.17,183.9889,1.0,1.0,1.0
47.18,175.4944,1.0,1.0,1.0
47.19,179.9889,1.0,1.0,1.0
47.2,168.0111,1.0,1.0,1.0
47.21,161.0111,1.0,1.0,1.0
47.22,217.4833,1.0,1.0,1.0
47.23,205.0,1.0,1.0,1.0
47.24,218.5056,1.0,1.0,1.0
47.25,203.4833,1.0,1.0,1.0
47.26,197.0111,1.0,1.0,1.0
47.27,217.9889,1.0,1.0,1.0
47.28,221.5167,1.0,1.0,1.0
47.29,225.0111,1.0,1.0,1.0
47.3,228.4722,1.0,1.0,1.0
47.31,214.5167,1.0,1.0,1.0
47.32,247.4944,1.0,1.0,1.0
47.33,242.0111,1.0,1.0,1.0
47.34,269.9778,1.0,1.0,1.0
47.35,267.5056,1.0,1.0,1.0
47.36,287.9667,1.0,1.0,1.0
47.37,283.0333,1.0,1.0,1.0
47.38,255.4833,1.0,1.0,1.0
47.39,290.0222,1.0,1.0,1.0
47.4,311.0,1.0,1.0,1.0
47.41,348.0,1.0,1.0,1.0
47.42,340.9667,1.0,1.0,1.0
47.43,328.5278,1.0,1.0,1.0
47.44,307.4722,1.0,1.0,1.0
47.45,363.5167,1.0,1.0,1.0
47.46,421.4722,1.0,1.0,1.0
47.47,334.5389,1.0,1.0,1.0
47.48,353.9889,1.0,1.0,1.0
47.49,397.4611,1.0,1.0,1.0
47.5,409.5167,1.0,1.0,1.0
47.51,428.5389,1.0,1.0,1.0
47.52,425.9556,1.0,1.0,1.0
47.53,429.0,1.0,1.0,1.0
47.54,415.0111,1.0,1.0,1.0
47.55,488.0,1.0,1.0,1.0
47.56,510.0222,1.0,1.0,1.0
47.57,487.4389,1.0,1.0,1.0
47.58,572.5722,1.0,1.0,1.0
47.59,585.4611,1.0,1.0,1.0
47.6,595.0222,1.0,1.0,1.0
47.61,652.9222,1.0,1.0,1.0
47.62,704.5056,1.0,1.0,1.0
47.63,777.5278,1.0,1.0,1.0
47.64,780.9778,1.0,1.0,1.0
47.65,811.0222,1.0,1.0,1.0
47.66,844.4722,1.0,1.0,1.0
47.67,958.0,1.0,1.0,1.0
47.68,1013.93,1.0,1.0,1.0
47.69,1088.06,1.0,1.0,1.0
47.7,1254.92,1.0,1.0,1.0
47.71,1328.61,1.0,1.0,1.0
47.72,1548.39,1.0,1.0,1.0
47.73,1707.56,1.0,1.0,1.0
47.74,1888.93,1.0,1.0,1.0
47.75,2271.439,1.0,1.0,1.0
47.76,2535.94,1.0,1.0,1.0
47.77,2991.53,1.0,1.0,1.0
47.78,3497.42,1.0,1.0,1.0
47.79,3957.439,1.0,1.0,1.0
47.8,4771.84,1.0,1.0,1.0
47.81,5984.9,1.0,1.0,1.0
47.82,7292.9,1.0,1.0,1.0
47.83,9189.06,1.0,1.0,1.0
47.84,11810.6,1.0,1.0,1.0
47.85,15560.2,1.0,1.0,1.0
47.86,20777.7,1.0,1.0,1.0
47.87,28904.5,1.0,1.0,1.0
47.88,41369.5,1.0,1.0,1.0
47.89,64813.6,1.0,1.0,1.0
47.9,105518,1.0,1.0,1.0
47.91,171441,1.0,1.0,1.0
47.92,489065,1.0,1.0,1.0
47.93,1665282.75,1.0,1.0,1.0
47.94,2232793.25,1.0,1.0,1.0
47.95,2775155.25,1.0,1.0,1.0
47.96,4593614.0,1.0,1.0,1.0
47.97,8819583.0,1.0,1.0,1.0
47.98,10478885.0,1.0,1.0,1.0
47.99,10014415.0,1.0,1.0,1.0
48.0,8011028.5,1.0,1.0,1.0
48.01,6870280.5,1.0,1.0,1.0
48.02,5563681.5,1.0,1.0,1.0
48.03,4596377.0,1.0,1.0,1.0
48.04,3050854.75,1.0,1.0,1.0
48.05,1193244.25,1.0,1.0,1.0
48.06,270471,1.0,1.0,1.0
48.07,124729,1.0,1.0,1.0
48.08,76678.5,1.0,1.0,1.0
48.09,49921.7,1.0,1.0,1.0
48.1,33386.2,1.0,1.0,1.0
48.11,23948.9,1.0,1.0,1.0
48.12,17586.5,1.0,1.0,1.0
48.13,13562.4,1.0,1.0,1.0
48.14,10604.3,1.0,1.0,1.0
48.15,8676.21,1.0,1.0,1.0
48.16,6880.74,1.0,1.0,1.0
48.17,5727.57,1.0,1.0,1.0
48.18,4835.63,1.0,1.0,1.0
48.19,4083.58,1.0,1.0,1.0
48.2,3526.47,1.0,1.0,1.0
48.21,2903.58,1.0,1.0,1.0
48.22,2509.52,1.0,1.0,1.0
48.23,2128.58,1.0,1.0,1.0
48.24,1827.02,1.0,1.0,1.0
48.25,1579.55,1.0,1.0,1.0
48.26,1450.54,1.0,1.0,1.0
48.27,1223.43,1.0,1.0,1.0
48.28,1137.0,1.0,1.0,1.0
48.29,1066.54,1.0,1.0,1.0
48.3,912.5722,1.0,1.0,1.0
48.31,810.9778,1.0,1.0,1.0
48.32,682.45,1.0,1.0,1.0
48.33,668.55,1.0,1.0,1.0
48.34,624.0333,1.0,1.0,1.0
48.35,590.0222,1.0,1.0,1.0
48.36,524.9556,1.0,1.0,1.0
48.37,491.5278,1.0,1.0,1.0
48.38,407.9778,1.0,1.0,1.0
48.39,427.0111,1.0,1.0,1.0
48.4,387.4944,1.0,1.0,1.0
48.41,387.0111,1.0,1.0,1.0
48.42,350.5056,1.0,1.0,1.0
48.43,333.4944,1.0,1.0,1.0
48.44,282.5056,1.0,1.0,1.0
48.45,335.5278,1.0,1.0,1.0
48.46,270.4833,1.0,1.0,1.0
48.47,262.5056,1.0,1.0,1.0
48.48,243.5056,1.0,1.0,1.0
48.49,252.0,1.0,1.0,1.0
48.5,222.9889,1.0,1.0,1.0
48.51,223.5167,1.0,1.0,1.0
48.52,196.9889,1.0,1.0,1.0
48.53,195.5167,1.0,1.0,1.0
48.54,164.4944,1.0,1.0,1.0
48.55,170.0,1.0,1.0,1.0
48.56,155.0,1.0,1.0,1.0
48.57,169.4944,1.0,1.0,1.0
48.58,138.0111,1.0,1.0,1.0
48.59,130.9889,1.0,1.0,1.0
48.6,146.5056,1.0,1.0,1.0
48.61,116.0,1.0,1.0,1.0
48.62,154.9889,1.0,1.0,1.0
48.63,111.0,1.0,1.0,1.0
48.64,122.5056,1.0,1.0,1.0
48.65,120.9889,1.0,1.0,1.0
48.66,116.0222,1.0,1.0,1.0
48.67,81.0,1.0,1.0,1.0
48.68,74.4833,1.0,1.0,1.0
48.69,116.5056,1.0,1.0,1.0
48.7,77.0111,1.0,1.0,1.0
48.71,91.5056,1.0,1.0,1.0
48.72,87.4833,1.0,1.0,1.0
48.73,78.5056,1.0,1.0,1.0
48.74,84.0,1.0,1.0,1.0
48.75,98.9889,1.0,1.0,1.0
48.76,68.5167,1.0,1.0,1.0
48.77,81.4944,1.0,1.0,1.0
48.78,67.0111,1.0,1.0,1.0
48.79,73.4944,1.0,1.0,1.0
48.8,59.0,1.0,1.0,1.0
48.81,74.0,1.0,1.0,1.0
48.82,56.0,1.0,1.0,1.0
48.83,76.0,1.0,1.0,1.0
48.84,59.9889,1.0,1.0,1.0
48.85,45.0111,1.0,1.0,1.0
48.86,74.9889,1.0,1.0,1.0
48.87,60.0111,1.0,1.0,1.0
48.88,67.5056,1.0,1.0,1.0
48.89,48.0,1.0,1.0,1.0
48.9,45.0,1.0,1.0,1.0
48.91,42.0,1.0,1.0,1.0
48.92,74.4944,1.0,1.0,1.0
48.93,61.4944,1.0,1.0,1.0
48.94,43.0111,1.0,1.0,1.0
48.95,51.0,1.0,1.0,1.0
48.96,44.0,1.0,1.0,1.0
48.97,31.9778,1.0,1.0,1.0
48.98,31.0222,1.0,1.0,1.0
48.99,36.0,1.0,1.0,1.0
49.0,45.9889,1.0,1.0,1.0
49.01,40.0111,1.0,1.0,1.0
49.02,32.9889,1.0,1.0,1.0
49.03,56.5056,1.0,1.0,1.0
49.04,33.0,1.0,1.0,1.0
49.05,31.5056,1.0,1.0,1.0
49.06,45.4944,1.0,1.0,1.0
49.07,38.4944,1.0,1.0,1.0
49.08,35.5056,1.0,1.0,1.0
49.09,37.4944,1.0,1.0,1.0
49.1,31.0111,1.0,1.0,1.0
49.11,50.9889,1.0,1.0,1.0
49.12,45.0111,1.0,1.0,1.0
49.13,26.0,1.0,1.0,1.0
49.14,34.0,1.0,1.0,1.0
49.15,34.0,1.0,1.0,1.0
49.16,20.0,1.0,1.0,1.0
49.17,28.0,1.0,1.0,1.0
49.18,27.9889,1.0,1.0,1.0
49.19,26.4944,1.0,1.0,1.0
49.2,34.5167,1.0,1.0,1.0
49.21,31.0,1.0,1.0,1.0
49.22,21.0,1.0,1.0,1.0
49.23,34.4944,1.0,1.0,1.0
49.24,21.5056,1.0,1.0,1.0
49.25,24.0,1.0,1.0,1.0
49.26,18.0,1.0,1.0,1.0
49.27,22.4944,1.0,1.0,1.0
49.28,22.5056,1.0,1.0,1.0
49.29,36.0,1.0,1.0,1.0
49.3,16.0,1.0,1.0,1.0
49.31,16.0,1.0,1.0,1.0
49.32,39.4944,1.0,1.0,1.0
49.33,24.5056,1.0,1.0,1.0
49.34,26.0,1.0,1.0,1.0
49.35,24.0,1.0,1.0,1.0
49.36,17.0,1.0,1.0,1.0
49.37,14.4944,1.0,1.0,1.0
49.38,27.4944,1.0,1.0,1.0
49.39,17.0111,1.0,1.0,1.0
49.4,8.4944,1.0,1.0,1.0
49.41,21.5056,1.0,1.0,1.0
49.42,10.0,1.0,1.0,1.0
49.43,13.9889,1.0,1.0,1.0
49.44,25.0111,1.0,1.0,1.0
49.45,34.0,1.0,1.0,1.0
49.46,22.0,1.0,1.0,1.0
49.47,22.9889,1.0,1.0,1.0
49.48,22.5056,1.0,1.0,1.0
49.49,17.4944,1.0,1.0,1.0
49.5,33.0111,1.0,1.0,1.0
49.51,23.0,1.0,1.0,1.0
49.52,29.9889,1.0,1.0,1.0
49.53,26.0111,1.0,1.0,1.0
49.54,13.0,1.0,1.0,1.0
49.55,24.0,1.0,1.0,1.0
49.56,15.0,1.0,1.0,1.0
49.57,18.9889,1.0,1.0,1.0
49.58,16.0111,1.0,1.0,1.0
49.59,18.0,1.0,1.0,1.0
49.6,17.4944,1.0,1.0,1.0
49.61,19.5056,1.0,1.0,1.0
49.62,51.4944,1.0,1.0,1.0
49.63,28.0,1.0,1.0,1.0
49.64,9.5056,1.0,1.0,1.0
49.65,21.4944,1.0,1.0,1.0
49.66,17.5056,1.0,1.0,1.0
49.67,18.0,1.0,1.0,1.0
49.68,15.4944,1.0,1.0,1.0
49.69,10.0,1.0,1.0,1.0
49.7,17.4944,1.0,1.0,1.0
49.71,13.0111,1.0,1.0,1.0
49.72,23.0,1.0,1.0,1.0
49.73,21.0,1.0,1.0,1.0
49.74,16.0,1.0,1.0,1.0
49.75,26.0,1.0,1.0,1.0
49.76,17.0,1.0,1.0,1.0
49.77,13.0,1.0,1.0,1.0
49.78,16.4944,1.0,1.0,1.0
49.79,21.5056,1.0,1.0,1.0
49.8,16.0,1.0,1.0,1.0
49.81,18.0,1.0,1.0,1.0
49.82,26.4944,1.0,1.0,1.0
49.83,15.5056,1.0,1.0,1.0
49.84,12.0,1.0,1.0,1.0
49.85,16.0,1.0,1.0,1.0
49.86,6.0,1.0,1.0,1.0
49.87,22.0,1.0,1.0,1.0
49.88,21.0,1.0,1.0,1.0
49.89,20.0,1.0,1.0,1.0
49.9,6.9889,1.0,1.0,1.0
49.91,19.0,1.0,1.0,1.0
49.92,14.0111,1.0,1.0,1.0
49.93,24.0,1.0,1.0,1.0
49.94,26.4944,1.0,1.0,1.0
49.95,16.4944,1.0,1.0,1.0
49.96,12.0111,1.0,1.0,1.0
49.97,17.0,1.0,1.0,1.0
49.98,12.0,1.0,1.0,1.0
49.99,22.4944,1.0,1.0,1.0
50.0,11.5056,1.0,1.0,1.0
50.01,14.4944,1.0,1.0,1.0
50.02,18.0,1.0,1.0,1.0
50.03,15.0,1.0,1.0,1.0
50.04,9.5056,1.0,1.0,1.0
50.05,21.0,1.0,1.0,1.0
50.06,9.4944,1.0,1.0,1.0
50.07,4.5056,1.0,1.0,1.0
50.08,12.0,1.0,1.0,1.0
50.09,8.0,1.0,1.0,1.0
50.1,17.0,1.0,1.0,1.0
50.11,10.0,1.0,1.0,1.0
50.12,6.0,1.0,1.0,1.0
50.13,10.0,1.0,1.0,1.0
50.14,9.0,1.0,1.0,1.0
50.15,2.0,1.0,1.0,1.0
50.16,9.0,1.0,1.0,1.0
50.17,4.0,1.0,1.0,1.0
50.18,17.0,1.0,1.0,1.0
50.19,10.0,1.0,1.0,1.0
50.2,12.0,1.0,1.0,1.0
50.21,15.0,1.0,1.0,1.0
50.22,5.0,1.0,1.0,1.0
50.23,5.4944,1.0,1.0,1.0
50.24,17.0,1.0,1.0,1.0
50.25,15.5056,1.0,1.0,1.0
50.26,7.0,1.0,1.0,1.0
50.27,6.0,1.0,1.0,1.0
50.28,15.0,1.0,1.0,1.0
50.29,10.0,1.0,1.0,1.0
50.3,8.0,1.0,1.0,1.0
50.31,10.0,1.0,1.0,1.0
50.32,11.0,1.0,1.0,1.0
50.33,14.0,1.0,1.0,1.0
50.34,9.0,1.0,1.0,1.0
50.35,11.0,1.0,1.0,1.0
50.36,14.4944,1.0,1.0,1.0
50.37,11.0,1.0,1.0,1.0
50.38,2.5056,1.0,1.0,1.0
50.39,5.0,1.0,1.0,1.0
50.4,11.0,1.0,1.0,1.0
50.41,15.0,1.0,1.0,1.0
50.42,3.0,1.0,1.0,1.0
50.43,16.0,1.0,1.0,1.0
50.44,15.0,1.0,1.0,1.0
50.45,8.0,1.0,1.0,1.0
50.46,6.0,1.0,1.0,1.0
50.47,12.0,1.0,1.0,1.0
50.48,7.0,1.0,1.0,1.0
50.49,5.0,1.0,1.0,1.0
50.5,16.0,1.0,1.0,1.0
50.51,11.0,1.0,1.0,1.0
50.52,10.4944,1.0,1.0,1.0
50.53,8.0,1.0,1.0,1.0
50.54,4.5056,1.0,1.0,1.0
50.55,12.0,1.0,1.0,1.0
50.56,9.4944,1.0,1.0,1.0
50.57,7.5056,1.0,1.0,1.0
50.58,4.0,1.0,1.0,1.0
50.59,14.4944,1.0,1.0,1.0
50.6,3.5056,1.0,1.0,1.0
50.61,19.0,1.0,1.0,1.0
50.62,7.0,1.0,1.0,1.0
50.63,2.0,1.0,1.0,1.0
50.64,15.0,1.0,1.0,1.0
50.65,10.4944,1.0,1.0,1.0
50.66,5.5056,1.0,1.0,1.0
50.67,12.0,1.0,1.0,1.0
50.68,5.0,1.0,1.0,1.0
50.69,8.0,1.0,1.0,1.0
50.7,14.4944,1.0,1.0,1.0
50.71,6.0,1.0,1.0,1.0
50.72,9.0,1.0,1.0,1.0
50.73,16.0,1.0,1.0,1.0
50.74,10.5056,1.0,1.0,1.0
50.75,9.0,1.0,1.0,1.0
50.76,9.4944,1.0,1.0,1.0
50.77,13.0,1.0,1.0,1.0
50.78,14.0,1.0,1.0,1.0
50.79,10.5056,1.0,1.0,1.0
50.8,3.0,1.0,1.0,1.0
50.81,9.0,1.0,1.0,1.0
50.82,8.0,1.0,1.0,1.0
50.83,3.0,1.0,1.0,1.0
50.84,12.0,1.0,1.0,1.0
50.85,8.0,1.0,1.0,1.0
50.86,9.0,1.0,1.0,1.0
50.87,11.9889,1.0,1.0,1.0
50.88,11.0111,1.0,1.0,1.0
50.89,8.0,1.0,1.0,1.0
50.9,6.0,1.0,1.0,1.0
50.91,4.0,1.0,1.0,1.0
50.92,8.0,1.0,1.0,1.0
50.93,14.0,1.0,1.0,1.0
50.94,12.0,1.0,1.0,1.0
50.95,12.0,1.0,1.0,1.0
50.96,8.0,1.0,1.0,1.0
50.97,12.0,1.0,1.0,1.0
50.98,12.4833,1.0,1.0,1.0
50.99,9.5167,1.0,1.0,1.0
51.0,9.0,1.0,1.0,1.0
51.01,21.0,1.0,1.0,1.0
51.02,7.0,1.0,1.0,1.0
51.03,2.0,1.0,1.0,1.0
51.04,10.0,1.0,1.0,1.0
51.05,0.0,1.0,1.0,1.0
51.06,9.0,1.0,1.0,1.0
51.07,5.0,1.0,1.0,1.0
51.08,2.0,1.0,1.0,1.0
51.09,10.0,1.0,1.0,1.0
51.1,13.0,1.0,1.0,1.0
51.11,9.0,1.0,1.0,1.0
51.12,8.0,1.0,1.0,1.0
51.13,9.0,1.0,1.0,1.0
51.14,5.0,1.0,1.0,1.0
51.15,5.9889,1.0,1.0,1.0
51.16,21.0111,1.0,1.0,1.0
51.17,13.0,1.0,1.0,1.0
51.18,5.4944,1.0,1.0,1.0
51.19,11.5056,1.0,1.0,1.0
51.2,4.0,1.0,1.0,1.0
51.21,9.0,1.0,1.0,1.0
51.22,12.0,1.0,1.0,1.0
51.23,8.0,1.0,1.0,1.0
51.24,2.0,1.0,1.0,1.0
51.25,11.4944,1.0,1.0,1.0
51.26,13.5056,1.0,1.0,1.0
51.27,10.0,1.0,1.0,1.0
51.28,5.0,1.0,1.0,1.0
51.29,34.0,1.0,1.0,1.0
51.3,5.0,1.0,1.0,1.0
51.31,3.0,1.0,1.0,1.0
51.32,7.0,1.0,1.0,1.0
51.33,7.0,1.0,1.0,1.0
51.34,3.0,1.0,1.0,1.0
51.35,4.0,1.0,1.0,1.0
51.36,9.0,1.0,1.0,1.0
51.37,6.0,1.0,1.0,1.0
51.38,13.0,1.0,1.0,1.0
51.39,10.0,1.0,1.0,1.0
51.4,9.4944,1.0,1.0,1.0
51.41,3.5056,1.0,1.0,1.0
51.42,2.0,1.0,1.0,1.0
51.43,6.0,1.0,1.0,1.0
51.44,0.0,1.0,1.0,1.0
51.45,5.0,1.0,1.0,1.0
51.46,11.0,1.0,1.0,1.0
51.47,8.4944,1.0,1.0,1.0
51.48,0.5056,1.0,1.0,1.0
51.49,14.0,1.0,1.0,1.0
51.5,5.0,1.0,1.0,1.0
51.51,14.4944,1.0,1.0,1.0
51.52,12.5056,1.0,1.0,1.0
51.53,14.0,1.0,1.0,1.0
51.54,5.0,1.0,1.0,1.0
51.55,2.4944,1.0,1.0,1.0
51.56,1.5056,1.0,1.0,1.0
51.57,3.0,1.0,1.0,1.0
51.58,10.4944,1.0,1.0,1.0
51.59,11.5056,1.0,1.0,1.0
51.6,6.0,1.0,1.0,1.0
51.61,4.0,1.0,1.0,1.0
51.62,5.0,1.0,1.0,1.0
51.63,6.0,1.0,1.0,1.0
51.64,13.9889,1.0,1.0,1.0
51.65,6.0111,1.0,1.0,1.0
51.66,0.0,1.0,1.0,1.0
51.67,16.4944,1.0,1.0,1.0
51.68,13.5056,1.0,1.0,1.0
51.69,6.0,1.0,1.0,1.0
51.7,3.0,1.0,1.0,1.0
51.71,6.4944,1.0,1.0,1.0
51.72,7.5056,1.0,1.0,1.0
51.73,4.0,1.0,1.0,1.0
51.74,10.0,1.0,1.0,1.0
51.75,10.0,1.0,1.0,1.0
51.76,5.0,1.0,1.0,1.0
51.77,17.0,1.0,1.0,1.0
51.78,4.0,1.0,1.0,1.0
51.79,5.0,1.0,1.0,1.0
51.8,10.0,1.0,1.0,1.0
51.81,7.0,1.0,1.0,1.0
51.82,0.0,1.0,1.0,1.0
51.83,6.0,1.0,1.0,1.0
51.84,15.0,1.0,1.0,1.0
51.85,4.0,1.0,1.0,1.0
51.86,0.0,1.0,1.0,1.0
51.87,13.0,1.0,1.0,1.0
51.88,2.0,1.0,1.0,1.0
51.89,4.4944,1.0,1.0,1.0
51.9,8.5056,1.0,1.0,1.0
51.91,7.0,1.0,1.0,1.0
51.92,3.0,1.0,1.0,1.0
51.93,0.0,1.0,1.0,1.0
51.94,6.4944,1.0,1.0,1.0
51.95,16.5056,1.0,1.0,1.0
51.96,4.0,1.0,1.0,1.0
51.97,12.0,1.0,1.0,1.0
51.98,7.0,1.0,1.0,1.0
51.99,3.0,1.0,1.0,1.0
52.0,7.0,1.0,1.0,1.0