File: XRD:XRR/STO/22058_STOS/22058_STOS_XRD.csv
#twotheta, yobs, ycal, bkg, diff
38.0,21.5056,1.0,1.0,1.0
38.01,35.5056,1.0,1.0,1.0
38.02,31.4944,1.0,1.0,1.0
38.03,25.5056,1.0,1.0,1.0
38.04,24.0,1.0,1.0,1.0
38.05,8.4944,1.0,1.0,1.0
38.06,28.5056,1.0,1.0,1.0
38.07,38.0,1.0,1.0,1.0
38.08,41.4944,1.0,1.0,1.0
38.09,18.0,1.0,1.0,1.0
38.1,25.5056,1.0,1.0,1.0
38.11,25.9889,1.0,1.0,1.0
38.12,39.0111,1.0,1.0,1.0
38.13,27.0,1.0,1.0,1.0
38.14,17.0,1.0,1.0,1.0
38.15,18.0,1.0,1.0,1.0
38.16,38.0,1.0,1.0,1.0
38.17,19.9889,1.0,1.0,1.0
38.18,32.0111,1.0,1.0,1.0
38.19,28.0,1.0,1.0,1.0
38.2,40.0,1.0,1.0,1.0
38.21,20.0,1.0,1.0,1.0
38.22,29.0,1.0,1.0,1.0
38.23,29.0,1.0,1.0,1.0
38.24,38.4944,1.0,1.0,1.0
38.25,46.5056,1.0,1.0,1.0
38.26,26.0,1.0,1.0,1.0
38.27,25.4944,1.0,1.0,1.0
38.28,64.4944,1.0,1.0,1.0
38.29,29.0111,1.0,1.0,1.0
38.3,21.0,1.0,1.0,1.0
38.31,32.9889,1.0,1.0,1.0
38.32,38.0,1.0,1.0,1.0
38.33,32.0111,1.0,1.0,1.0
38.34,30.0,1.0,1.0,1.0
38.35,36.4944,1.0,1.0,1.0
38.36,23.5056,1.0,1.0,1.0
38.37,38.0,1.0,1.0,1.0
38.38,41.0,1.0,1.0,1.0
38.39,36.0,1.0,1.0,1.0
38.4,28.0,1.0,1.0,1.0
38.41,32.0,1.0,1.0,1.0
38.42,30.0,1.0,1.0,1.0
38.43,25.0,1.0,1.0,1.0
38.44,19.9889,1.0,1.0,1.0
38.45,36.0,1.0,1.0,1.0
38.46,30.0111,1.0,1.0,1.0
38.47,27.9889,1.0,1.0,1.0
38.48,33.0111,1.0,1.0,1.0
38.49,35.0,1.0,1.0,1.0
38.5,23.4944,1.0,1.0,1.0
38.51,22.5056,1.0,1.0,1.0
38.52,33.0,1.0,1.0,1.0
38.53,26.9889,1.0,1.0,1.0
38.54,35.5056,1.0,1.0,1.0
38.55,28.5056,1.0,1.0,1.0
38.56,33.4944,1.0,1.0,1.0
38.57,42.0,1.0,1.0,1.0
38.58,32.4944,1.0,1.0,1.0
38.59,47.0111,1.0,1.0,1.0
38.6,39.4944,1.0,1.0,1.0
38.61,29.5056,1.0,1.0,1.0
38.62,19.9889,1.0,1.0,1.0
38.63,45.0111,1.0,1.0,1.0
38.64,31.0,1.0,1.0,1.0
38.65,39.0,1.0,1.0,1.0
38.66,30.0,1.0,1.0,1.0
38.67,38.0,1.0,1.0,1.0
38.68,45.0,1.0,1.0,1.0
38.69,23.4944,1.0,1.0,1.0
38.7,47.5056,1.0,1.0,1.0
38.71,20.4944,1.0,1.0,1.0
38.72,38.5056,1.0,1.0,1.0
38.73,46.4944,1.0,1.0,1.0
38.74,36.0,1.0,1.0,1.0
38.75,25.5056,1.0,1.0,1.0
38.76,40.9889,1.0,1.0,1.0
38.77,40.0,1.0,1.0,1.0
38.78,37.0111,1.0,1.0,1.0
38.79,26.0,1.0,1.0,1.0
38.8,37.4944,1.0,1.0,1.0
38.81,31.4944,1.0,1.0,1.0
38.82,31.0111,1.0,1.0,1.0
38.83,55.0,1.0,1.0,1.0
38.84,49.0,1.0,1.0,1.0
38.85,32.9889,1.0,1.0,1.0
38.86,31.5056,1.0,1.0,1.0
38.87,49.4944,1.0,1.0,1.0
38.88,46.0111,1.0,1.0,1.0
38.89,34.4944,1.0,1.0,1.0
38.9,31.0,1.0,1.0,1.0
38.91,22.5056,1.0,1.0,1.0
38.92,31.0,1.0,1.0,1.0
38.93,26.0,1.0,1.0,1.0
38.94,30.0,1.0,1.0,1.0
38.95,17.4944,1.0,1.0,1.0
38.96,28.0,1.0,1.0,1.0
38.97,23.5056,1.0,1.0,1.0
38.98,24.4944,1.0,1.0,1.0
38.99,26.0,1.0,1.0,1.0
39.0,31.0,1.0,1.0,1.0
39.01,36.5056,1.0,1.0,1.0
39.02,43.4944,1.0,1.0,1.0
39.03,30.5056,1.0,1.0,1.0
39.04,25.0,1.0,1.0,1.0
39.05,32.9889,1.0,1.0,1.0
39.06,40.0111,1.0,1.0,1.0
39.07,24.0,1.0,1.0,1.0
39.08,43.9889,1.0,1.0,1.0
39.09,36.0111,1.0,1.0,1.0
39.1,38.4944,1.0,1.0,1.0
39.11,78.5056,1.0,1.0,1.0
39.12,25.0,1.0,1.0,1.0
39.13,46.9889,1.0,1.0,1.0
39.14,35.5056,1.0,1.0,1.0
39.15,10.0,1.0,1.0,1.0
39.16,43.5056,1.0,1.0,1.0
39.17,24.0,1.0,1.0,1.0
39.18,24.0,1.0,1.0,1.0
39.19,15.9889,1.0,1.0,1.0
39.2,35.0111,1.0,1.0,1.0
39.21,27.0,1.0,1.0,1.0
39.22,30.0,1.0,1.0,1.0
39.23,43.0,1.0,1.0,1.0
39.24,23.0,1.0,1.0,1.0
39.25,30.0,1.0,1.0,1.0
39.26,32.4944,1.0,1.0,1.0
39.27,19.5056,1.0,1.0,1.0
39.28,17.0,1.0,1.0,1.0
39.29,28.0,1.0,1.0,1.0
39.3,33.0,1.0,1.0,1.0
39.31,23.0,1.0,1.0,1.0
39.32,27.0,1.0,1.0,1.0
39.33,31.0,1.0,1.0,1.0
39.34,30.0,1.0,1.0,1.0
39.35,36.9889,1.0,1.0,1.0
39.36,15.0111,1.0,1.0,1.0
39.37,25.0,1.0,1.0,1.0
39.38,24.0,1.0,1.0,1.0
39.39,31.0,1.0,1.0,1.0
39.4,31.0,1.0,1.0,1.0
39.41,33.0,1.0,1.0,1.0
39.42,24.9889,1.0,1.0,1.0
39.43,21.0111,1.0,1.0,1.0
39.44,24.0,1.0,1.0,1.0
39.45,21.0,1.0,1.0,1.0
39.46,49.4833,1.0,1.0,1.0
39.47,25.0111,1.0,1.0,1.0
39.48,23.0,1.0,1.0,1.0
39.49,34.4944,1.0,1.0,1.0
39.5,28.5056,1.0,1.0,1.0
39.51,30.5056,1.0,1.0,1.0
39.52,33.4944,1.0,1.0,1.0
39.53,37.4944,1.0,1.0,1.0
39.54,33.0,1.0,1.0,1.0
39.55,46.4944,1.0,1.0,1.0
39.56,25.5167,1.0,1.0,1.0
39.57,35.9889,1.0,1.0,1.0
39.58,32.0111,1.0,1.0,1.0
39.59,39.0,1.0,1.0,1.0
39.6,22.4944,1.0,1.0,1.0
39.61,40.0,1.0,1.0,1.0
39.62,49.4944,1.0,1.0,1.0
39.63,28.0111,1.0,1.0,1.0
39.64,32.0,1.0,1.0,1.0
39.65,39.0,1.0,1.0,1.0
39.66,29.0,1.0,1.0,1.0
39.67,39.9889,1.0,1.0,1.0
39.68,56.5056,1.0,1.0,1.0
39.69,84.0,1.0,1.0,1.0
39.7,53.4944,1.0,1.0,1.0
39.71,43.0111,1.0,1.0,1.0
39.72,47.0,1.0,1.0,1.0
39.73,38.9889,1.0,1.0,1.0
39.74,36.0,1.0,1.0,1.0
39.75,64.0,1.0,1.0,1.0
39.76,35.0,1.0,1.0,1.0
39.77,46.0111,1.0,1.0,1.0
39.78,48.4944,1.0,1.0,1.0
39.79,57.0,1.0,1.0,1.0
39.8,30.0,1.0,1.0,1.0
39.81,52.0,1.0,1.0,1.0
39.82,73.4944,1.0,1.0,1.0
39.83,53.0111,1.0,1.0,1.0
39.84,49.9889,1.0,1.0,1.0
39.85,52.0,1.0,1.0,1.0
39.86,70.0,1.0,1.0,1.0
39.87,55.0,1.0,1.0,1.0
39.88,60.0111,1.0,1.0,1.0
39.89,41.4944,1.0,1.0,1.0
39.9,64.0,1.0,1.0,1.0
39.91,44.4944,1.0,1.0,1.0
39.92,52.0,1.0,1.0,1.0
39.93,54.0111,1.0,1.0,1.0
39.94,57.4944,1.0,1.0,1.0
39.95,73.4944,1.0,1.0,1.0
39.96,44.5056,1.0,1.0,1.0
39.97,38.0,1.0,1.0,1.0
39.98,49.5056,1.0,1.0,1.0
39.99,52.4944,1.0,1.0,1.0
40.0,49.4833,1.0,1.0,1.0
40.01,59.0222,1.0,1.0,1.0
40.02,55.9889,1.0,1.0,1.0
40.03,36.0,1.0,1.0,1.0
40.04,60.0111,1.0,1.0,1.0
40.05,52.9889,1.0,1.0,1.0
40.06,59.0,1.0,1.0,1.0
40.07,40.0111,1.0,1.0,1.0
40.08,44.4944,1.0,1.0,1.0
40.09,43.4944,1.0,1.0,1.0
40.1,51.9889,1.0,1.0,1.0
40.11,60.5167,1.0,1.0,1.0
40.12,67.0,1.0,1.0,1.0
40.13,60.5056,1.0,1.0,1.0
40.14,38.0,1.0,1.0,1.0
40.15,48.9889,1.0,1.0,1.0
40.16,47.4944,1.0,1.0,1.0
40.17,38.5167,1.0,1.0,1.0
40.18,94.0,1.0,1.0,1.0
40.19,43.9889,1.0,1.0,1.0
40.2,57.5056,1.0,1.0,1.0
40.21,56.5056,1.0,1.0,1.0
40.22,55.0,1.0,1.0,1.0
40.23,54.4944,1.0,1.0,1.0
40.24,46.4944,1.0,1.0,1.0
40.25,51.0111,1.0,1.0,1.0
40.26,48.4944,1.0,1.0,1.0
40.27,54.5056,1.0,1.0,1.0
40.28,54.4833,1.0,1.0,1.0
40.29,60.5056,1.0,1.0,1.0
40.3,59.5056,1.0,1.0,1.0
40.31,40.5056,1.0,1.0,1.0
40.32,24.4944,1.0,1.0,1.0
40.33,43.0,1.0,1.0,1.0
40.34,31.4944,1.0,1.0,1.0
40.35,57.0,1.0,1.0,1.0
40.36,65.0111,1.0,1.0,1.0
40.37,47.4944,1.0,1.0,1.0
40.38,35.5056,1.0,1.0,1.0
40.39,52.4944,1.0,1.0,1.0
40.4,30.4944,1.0,1.0,1.0
40.41,31.0111,1.0,1.0,1.0
40.42,47.9889,1.0,1.0,1.0
40.43,49.4944,1.0,1.0,1.0
40.44,39.0111,1.0,1.0,1.0
40.45,29.5056,1.0,1.0,1.0
40.46,26.0,1.0,1.0,1.0
40.47,41.9889,1.0,1.0,1.0
40.48,35.0111,1.0,1.0,1.0
40.49,46.4944,1.0,1.0,1.0
40.5,41.5056,1.0,1.0,1.0
40.51,27.0,1.0,1.0,1.0
40.52,49.4944,1.0,1.0,1.0
40.53,35.4944,1.0,1.0,1.0
40.54,30.5056,1.0,1.0,1.0
40.55,30.5056,1.0,1.0,1.0
40.56,40.4944,1.0,1.0,1.0
40.57,29.0,1.0,1.0,1.0
40.58,33.5056,1.0,1.0,1.0
40.59,41.0,1.0,1.0,1.0
40.6,45.9778,1.0,1.0,1.0
40.61,35.0222,1.0,1.0,1.0
40.62,29.0,1.0,1.0,1.0
40.63,33.0,1.0,1.0,1.0
40.64,23.0,1.0,1.0,1.0
40.65,24.0,1.0,1.0,1.0
40.66,22.9889,1.0,1.0,1.0
40.67,38.0,1.0,1.0,1.0
40.68,39.0111,1.0,1.0,1.0
40.69,41.9889,1.0,1.0,1.0
40.7,54.0111,1.0,1.0,1.0
40.71,11.4944,1.0,1.0,1.0
40.72,38.0,1.0,1.0,1.0
40.73,37.5056,1.0,1.0,1.0
40.74,38.0,1.0,1.0,1.0
40.75,22.0,1.0,1.0,1.0
40.76,41.4944,1.0,1.0,1.0
40.77,36.4944,1.0,1.0,1.0
40.78,36.5056,1.0,1.0,1.0
40.79,49.0,1.0,1.0,1.0
40.8,20.0,1.0,1.0,1.0
40.81,35.0,1.0,1.0,1.0
40.82,52.4944,1.0,1.0,1.0
40.83,35.0111,1.0,1.0,1.0
40.84,20.0,1.0,1.0,1.0
40.85,36.0,1.0,1.0,1.0
40.86,46.4944,1.0,1.0,1.0
40.87,42.5056,1.0,1.0,1.0
40.88,51.4944,1.0,1.0,1.0
40.89,46.4833,1.0,1.0,1.0
40.9,39.5167,1.0,1.0,1.0
40.91,57.5056,1.0,1.0,1.0
40.92,41.0,1.0,1.0,1.0
40.93,62.4944,1.0,1.0,1.0
40.94,43.0,1.0,1.0,1.0
40.95,57.5056,1.0,1.0,1.0
40.96,38.0,1.0,1.0,1.0
40.97,51.0,1.0,1.0,1.0
40.98,55.4944,1.0,1.0,1.0
40.99,49.4944,1.0,1.0,1.0
41.0,54.5056,1.0,1.0,1.0
41.01,57.5056,1.0,1.0,1.0
41.02,54.0,1.0,1.0,1.0
41.03,58.4944,1.0,1.0,1.0
41.04,51.0,1.0,1.0,1.0
41.05,65.5056,1.0,1.0,1.0
41.06,57.4944,1.0,1.0,1.0
41.07,76.0,1.0,1.0,1.0
41.08,62.5056,1.0,1.0,1.0
41.09,60.0,1.0,1.0,1.0
41.1,71.4944,1.0,1.0,1.0
41.11,66.4944,1.0,1.0,1.0
41.12,63.0111,1.0,1.0,1.0
41.13,46.9889,1.0,1.0,1.0
41.14,58.0111,1.0,1.0,1.0
41.15,68.4833,1.0,1.0,1.0
41.16,79.0,1.0,1.0,1.0
41.17,105.5167,1.0,1.0,1.0
41.18,60.9889,1.0,1.0,1.0
41.19,68.0,1.0,1.0,1.0
41.2,67.0111,1.0,1.0,1.0
41.21,60.9889,1.0,1.0,1.0
41.22,75.9889,1.0,1.0,1.0
41.23,83.0222,1.0,1.0,1.0
41.24,91.4944,1.0,1.0,1.0
41.25,82.9778,1.0,1.0,1.0
41.26,104.5278,1.0,1.0,1.0
41.27,85.9889,1.0,1.0,1.0
41.28,75.5056,1.0,1.0,1.0
41.29,76.0,1.0,1.0,1.0
41.3,96.0,1.0,1.0,1.0
41.31,77.5056,1.0,1.0,1.0
41.32,90.4833,1.0,1.0,1.0
41.33,93.5167,1.0,1.0,1.0
41.34,106.4944,1.0,1.0,1.0
41.35,116.4944,1.0,1.0,1.0
41.36,73.4944,1.0,1.0,1.0
41.37,103.9889,1.0,1.0,1.0
41.38,95.0111,1.0,1.0,1.0
41.39,127.5056,1.0,1.0,1.0
41.4,83.0,1.0,1.0,1.0
41.41,96.0,1.0,1.0,1.0
41.42,96.5056,1.0,1.0,1.0
41.43,92.0,1.0,1.0,1.0
41.44,77.0,1.0,1.0,1.0
41.45,78.5056,1.0,1.0,1.0
41.46,104.4944,1.0,1.0,1.0
41.47,90.0,1.0,1.0,1.0
41.48,85.9667,1.0,1.0,1.0
41.49,79.0222,1.0,1.0,1.0
41.5,82.0111,1.0,1.0,1.0
41.51,78.9889,1.0,1.0,1.0
41.52,103.0111,1.0,1.0,1.0
41.53,117.4944,1.0,1.0,1.0
41.54,70.5056,1.0,1.0,1.0
41.55,85.4944,1.0,1.0,1.0
41.56,78.0,1.0,1.0,1.0
41.57,75.0111,1.0,1.0,1.0
41.58,85.9889,1.0,1.0,1.0
41.59,99.0111,1.0,1.0,1.0
41.6,56.4722,1.0,1.0,1.0
41.61,80.5278,1.0,1.0,1.0
41.62,85.4944,1.0,1.0,1.0
41.63,88.5056,1.0,1.0,1.0
41.64,83.0,1.0,1.0,1.0
41.65,75.9889,1.0,1.0,1.0
41.66,89.5056,1.0,1.0,1.0
41.67,92.5056,1.0,1.0,1.0
41.68,78.4944,1.0,1.0,1.0
41.69,86.5056,1.0,1.0,1.0
41.7,56.4944,1.0,1.0,1.0
41.71,82.9889,1.0,1.0,1.0
41.72,89.4944,1.0,1.0,1.0
41.73,102.0111,1.0,1.0,1.0
41.74,84.4944,1.0,1.0,1.0
41.75,50.0111,1.0,1.0,1.0
41.76,53.5056,1.0,1.0,1.0
41.77,77.9889,1.0,1.0,1.0
41.78,54.4944,1.0,1.0,1.0
41.79,49.5167,1.0,1.0,1.0
41.8,63.0,1.0,1.0,1.0
41.81,57.0,1.0,1.0,1.0
41.82,55.4944,1.0,1.0,1.0
41.83,64.5056,1.0,1.0,1.0
41.84,44.0,1.0,1.0,1.0
41.85,57.9889,1.0,1.0,1.0
41.86,52.0,1.0,1.0,1.0
41.87,31.5056,1.0,1.0,1.0
41.88,65.0,1.0,1.0,1.0
41.89,57.0,1.0,1.0,1.0
41.9,49.5056,1.0,1.0,1.0
41.91,44.0,1.0,1.0,1.0
41.92,42.0,1.0,1.0,1.0
41.93,50.0,1.0,1.0,1.0
41.94,43.4944,1.0,1.0,1.0
41.95,53.4944,1.0,1.0,1.0
41.96,49.0111,1.0,1.0,1.0
41.97,49.4944,1.0,1.0,1.0
41.98,59.0,1.0,1.0,1.0
41.99,42.4944,1.0,1.0,1.0
42.0,27.0111,1.0,1.0,1.0
42.01,37.0,1.0,1.0,1.0
42.02,38.0,1.0,1.0,1.0
42.03,42.0,1.0,1.0,1.0
42.04,20.9889,1.0,1.0,1.0
42.05,28.4944,1.0,1.0,1.0
42.06,38.5167,1.0,1.0,1.0
42.07,43.4944,1.0,1.0,1.0
42.08,43.5056,1.0,1.0,1.0
42.09,31.0,1.0,1.0,1.0
42.1,38.4944,1.0,1.0,1.0
42.11,42.0,1.0,1.0,1.0
42.12,42.5056,1.0,1.0,1.0
42.13,46.4944,1.0,1.0,1.0
42.14,41.9889,1.0,1.0,1.0
42.15,54.5167,1.0,1.0,1.0
42.16,34.9778,1.0,1.0,1.0
42.17,45.0222,1.0,1.0,1.0
42.18,64.9889,1.0,1.0,1.0
42.19,51.5056,1.0,1.0,1.0
42.2,59.0,1.0,1.0,1.0
42.21,54.4944,1.0,1.0,1.0
42.22,63.0111,1.0,1.0,1.0
42.23,52.0,1.0,1.0,1.0
42.24,73.4944,1.0,1.0,1.0
42.25,56.4944,1.0,1.0,1.0
42.26,57.5056,1.0,1.0,1.0
42.27,59.0,1.0,1.0,1.0
42.28,63.4944,1.0,1.0,1.0
42.29,58.5056,1.0,1.0,1.0
42.3,51.4833,1.0,1.0,1.0
42.31,63.0222,1.0,1.0,1.0
42.32,65.4833,1.0,1.0,1.0
42.33,83.0111,1.0,1.0,1.0
42.34,65.4944,1.0,1.0,1.0
42.35,49.0,1.0,1.0,1.0
42.36,85.0111,1.0,1.0,1.0
42.37,77.0,1.0,1.0,1.0
42.38,105.4944,1.0,1.0,1.0
42.39,95.9889,1.0,1.0,1.0
42.4,90.5056,1.0,1.0,1.0
42.41,78.9889,1.0,1.0,1.0
42.42,81.0111,1.0,1.0,1.0
42.43,104.4833,1.0,1.0,1.0
42.44,102.0111,1.0,1.0,1.0
42.45,99.5056,1.0,1.0,1.0
42.46,142.9889,1.0,1.0,1.0
42.47,131.5167,1.0,1.0,1.0
42.48,137.4944,1.0,1.0,1.0
42.49,118.0,1.0,1.0,1.0
42.5,145.0111,1.0,1.0,1.0
42.51,123.9889,1.0,1.0,1.0
42.52,130.4944,1.0,1.0,1.0
42.53,151.5056,1.0,1.0,1.0
42.54,109.5056,1.0,1.0,1.0
42.55,153.4833,1.0,1.0,1.0
42.56,123.5167,1.0,1.0,1.0
42.57,155.4944,1.0,1.0,1.0
42.58,153.4833,1.0,1.0,1.0
42.59,159.0111,1.0,1.0,1.0
42.6,136.5056,1.0,1.0,1.0
42.61,162.0,1.0,1.0,1.0
42.62,110.9667,1.0,1.0,1.0
42.63,152.5167,1.0,1.0,1.0
42.64,181.5056,1.0,1.0,1.0
42.65,146.5056,1.0,1.0,1.0
42.66,153.5056,1.0,1.0,1.0
42.67,137.4944,1.0,1.0,1.0
42.68,169.4944,1.0,1.0,1.0
42.69,170.4944,1.0,1.0,1.0
42.7,177.5167,1.0,1.0,1.0
42.71,186.9889,1.0,1.0,1.0
42.72,171.5056,1.0,1.0,1.0
42.73,177.4944,1.0,1.0,1.0
42.74,172.9889,1.0,1.0,1.0
42.75,197.5167,1.0,1.0,1.0
42.76,230.9778,1.0,1.0,1.0
42.77,201.5278,1.0,1.0,1.0
42.78,183.4944,1.0,1.0,1.0
42.79,182.5056,1.0,1.0,1.0
42.8,212.9889,1.0,1.0,1.0
42.81,163.0111,1.0,1.0,1.0
42.82,175.9778,1.0,1.0,1.0
42.83,169.5167,1.0,1.0,1.0
42.84,149.4833,1.0,1.0,1.0
42.85,165.5167,1.0,1.0,1.0
42.86,173.4944,1.0,1.0,1.0
42.87,166.0,1.0,1.0,1.0
42.88,197.5056,1.0,1.0,1.0
42.89,186.4944,1.0,1.0,1.0
42.9,185.0,1.0,1.0,1.0
42.91,197.0111,1.0,1.0,1.0
42.92,194.5056,1.0,1.0,1.0
42.93,205.9889,1.0,1.0,1.0
42.94,174.4944,1.0,1.0,1.0
42.95,165.0,1.0,1.0,1.0
42.96,138.0111,1.0,1.0,1.0
42.97,168.9889,1.0,1.0,1.0
42.98,184.5056,1.0,1.0,1.0
42.99,168.0111,1.0,1.0,1.0
43.0,166.9889,1.0,1.0,1.0
43.01,176.0,1.0,1.0,1.0
43.02,144.4944,1.0,1.0,1.0
43.03,162.0,1.0,1.0,1.0
43.04,119.0111,1.0,1.0,1.0
43.05,161.4944,1.0,1.0,1.0
43.06,140.5056,1.0,1.0,1.0
43.07,133.4944,1.0,1.0,1.0
43.08,158.5056,1.0,1.0,1.0
43.09,137.4944,1.0,1.0,1.0
43.1,151.9889,1.0,1.0,1.0
43.11,126.5167,1.0,1.0,1.0
43.12,145.4833,1.0,1.0,1.0
43.13,127.0111,1.0,1.0,1.0
43.14,139.5056,1.0,1.0,1.0
43.15,119.4722,1.0,1.0,1.0
43.16,126.5389,1.0,1.0,1.0
43.17,110.4833,1.0,1.0,1.0
43.18,103.4944,1.0,1.0,1.0
43.19,128.0111,1.0,1.0,1.0
43.2,123.4944,1.0,1.0,1.0
43.21,138.5056,1.0,1.0,1.0
43.22,108.4944,1.0,1.0,1.0
43.23,75.5167,1.0,1.0,1.0
43.24,105.4944,1.0,1.0,1.0
43.25,83.0,1.0,1.0,1.0
43.26,111.0,1.0,1.0,1.0
43.27,107.0,1.0,1.0,1.0
43.28,99.4944,1.0,1.0,1.0
43.29,71.5056,1.0,1.0,1.0
43.3,72.5056,1.0,1.0,1.0
43.31,63.9889,1.0,1.0,1.0
43.32,92.0111,1.0,1.0,1.0
43.33,82.0,1.0,1.0,1.0
43.34,70.4944,1.0,1.0,1.0
43.35,68.4833,1.0,1.0,1.0
43.36,81.5167,1.0,1.0,1.0
43.37,76.4944,1.0,1.0,1.0
43.38,81.0111,1.0,1.0,1.0
43.39,63.0,1.0,1.0,1.0
43.4,72.9889,1.0,1.0,1.0
43.41,79.4833,1.0,1.0,1.0
43.42,77.0222,1.0,1.0,1.0
43.43,89.0,1.0,1.0,1.0
43.44,70.5056,1.0,1.0,1.0
43.45,59.0,1.0,1.0,1.0
43.46,70.9889,1.0,1.0,1.0
43.47,64.4944,1.0,1.0,1.0
43.48,72.5167,1.0,1.0,1.0
43.49,70.4833,1.0,1.0,1.0
43.5,79.0111,1.0,1.0,1.0
43.51,64.5056,1.0,1.0,1.0
43.52,72.9889,1.0,1.0,1.0
43.53,85.0,1.0,1.0,1.0
43.54,72.0,1.0,1.0,1.0
43.55,83.0111,1.0,1.0,1.0
43.56,89.4944,1.0,1.0,1.0
43.57,83.0,1.0,1.0,1.0
43.58,93.4944,1.0,1.0,1.0
43.59,118.5056,1.0,1.0,1.0
43.6,114.9778,1.0,1.0,1.0
43.61,114.0222,1.0,1.0,1.0
43.62,118.4944,1.0,1.0,1.0
43.63,142.4944,1.0,1.0,1.0
43.64,127.5056,1.0,1.0,1.0
43.65,144.0,1.0,1.0,1.0
43.66,143.0,1.0,1.0,1.0
43.67,162.5056,1.0,1.0,1.0
43.68,157.0,1.0,1.0,1.0
43.69,168.9889,1.0,1.0,1.0
43.7,178.4722,1.0,1.0,1.0
43.71,166.5389,1.0,1.0,1.0
43.72,207.9778,1.0,1.0,1.0
43.73,241.5056,1.0,1.0,1.0
43.74,199.5056,1.0,1.0,1.0
43.75,189.4944,1.0,1.0,1.0
43.76,195.5167,1.0,1.0,1.0
43.77,191.4944,1.0,1.0,1.0
43.78,182.4833,1.0,1.0,1.0
43.79,266.9667,1.0,1.0,1.0
43.8,244.55,1.0,1.0,1.0
43.81,235.4944,1.0,1.0,1.0
43.82,231.5056,1.0,1.0,1.0
43.83,263.9778,1.0,1.0,1.0
43.84,244.9889,1.0,1.0,1.0
43.85,295.0111,1.0,1.0,1.0
43.86,281.4944,1.0,1.0,1.0
43.87,306.5056,1.0,1.0,1.0
43.88,285.5056,1.0,1.0,1.0
43.89,293.9889,1.0,1.0,1.0
43.9,341.5278,1.0,1.0,1.0
43.91,349.9778,1.0,1.0,1.0
43.92,291.5167,1.0,1.0,1.0
43.93,322.9778,1.0,1.0,1.0
43.94,319.0111,1.0,1.0,1.0
43.95,352.5167,1.0,1.0,1.0
43.96,379.4833,1.0,1.0,1.0
43.97,383.9667,1.0,1.0,1.0
43.98,386.0222,1.0,1.0,1.0
43.99,370.5167,1.0,1.0,1.0
44.0,393.4611,1.0,1.0,1.0
44.01,384.5278,1.0,1.0,1.0
44.02,417.9778,1.0,1.0,1.0
44.03,406.4833,1.0,1.0,1.0
44.04,444.0333,1.0,1.0,1.0
44.05,449.5056,1.0,1.0,1.0
44.06,476.9667,1.0,1.0,1.0
44.07,465.0555,1.0,1.0,1.0
44.08,432.9667,1.0,1.0,1.0
44.09,449.4833,1.0,1.0,1.0
44.1,453.5389,1.0,1.0,1.0
44.11,489.9889,1.0,1.0,1.0
44.12,445.4833,1.0,1.0,1.0
44.13,496.0111,1.0,1.0,1.0
44.14,480.9778,1.0,1.0,1.0
44.15,538.9889,1.0,1.0,1.0
44.16,508.5056,1.0,1.0,1.0
44.17,464.5389,1.0,1.0,1.0
44.18,415.4611,1.0,1.0,1.0
44.19,469.0111,1.0,1.0,1.0
44.2,509.4944,1.0,1.0,1.0
44.21,472.5056,1.0,1.0,1.0
44.22,458.0111,1.0,1.0,1.0
44.23,499.9889,1.0,1.0,1.0
44.24,482.0,1.0,1.0,1.0
44.25,506.0111,1.0,1.0,1.0
44.26,443.4722,1.0,1.0,1.0
44.27,469.0333,1.0,1.0,1.0
44.28,515.9667,1.0,1.0,1.0
44.29,476.0444,1.0,1.0,1.0
44.3,444.5167,1.0,1.0,1.0
44.31,449.9556,1.0,1.0,1.0
44.32,501.4611,1.0,1.0,1.0
44.33,410.0555,1.0,1.0,1.0
44.34,437.0,1.0,1.0,1.0
44.35,465.9667,1.0,1.0,1.0
44.36,437.5278,1.0,1.0,1.0
44.37,372.4833,1.0,1.0,1.0
44.38,426.5278,1.0,1.0,1.0
44.39,422.4944,1.0,1.0,1.0
44.4,427.4944,1.0,1.0,1.0
44.41,390.0111,1.0,1.0,1.0
44.42,377.4833,1.0,1.0,1.0
44.43,363.0111,1.0,1.0,1.0
44.44,371.0,1.0,1.0,1.0
44.45,376.5056,1.0,1.0,1.0
44.46,376.9889,1.0,1.0,1.0
44.47,350.5056,1.0,1.0,1.0
44.48,453.0333,1.0,1.0,1.0
44.49,299.9778,1.0,1.0,1.0
44.5,316.4833,1.0,1.0,1.0
44.51,338.0111,1.0,1.0,1.0
44.52,325.4944,1.0,1.0,1.0
44.53,322.4944,1.0,1.0,1.0
44.54,302.5167,1.0,1.0,1.0
44.55,291.9778,1.0,1.0,1.0
44.56,280.5167,1.0,1.0,1.0
44.57,282.4833,1.0,1.0,1.0
44.58,267.5167,1.0,1.0,1.0
44.59,284.4944,1.0,1.0,1.0
44.6,258.5056,1.0,1.0,1.0
44.61,235.5167,1.0,1.0,1.0
44.62,233.4944,1.0,1.0,1.0
44.63,247.4944,1.0,1.0,1.0
44.64,265.4944,1.0,1.0,1.0
44.65,289.5056,1.0,1.0,1.0
44.66,244.0111,1.0,1.0,1.0
44.67,274.9778,1.0,1.0,1.0
44.68,246.0222,1.0,1.0,1.0
44.69,219.9889,1.0,1.0,1.0
44.7,267.4833,1.0,1.0,1.0
44.71,223.0,1.0,1.0,1.0
44.72,230.4944,1.0,1.0,1.0
44.73,261.0222,1.0,1.0,1.0
44.74,244.4944,1.0,1.0,1.0
44.75,273.5278,1.0,1.0,1.0
44.76,265.9778,1.0,1.0,1.0
44.77,298.5167,1.0,1.0,1.0
44.78,298.4722,1.0,1.0,1.0
44.79,340.0,1.0,1.0,1.0
44.8,331.9889,1.0,1.0,1.0
44.81,375.5056,1.0,1.0,1.0
44.82,368.4944,1.0,1.0,1.0
44.83,424.9889,1.0,1.0,1.0
44.84,388.4833,1.0,1.0,1.0
44.85,414.0222,1.0,1.0,1.0
44.86,499.0222,1.0,1.0,1.0
44.87,488.9778,1.0,1.0,1.0
44.88,532.0111,1.0,1.0,1.0
44.89,543.9889,1.0,1.0,1.0
44.9,618.0111,1.0,1.0,1.0
44.91,592.9889,1.0,1.0,1.0
44.92,603.4944,1.0,1.0,1.0
44.93,704.5056,1.0,1.0,1.0
44.94,717.9889,1.0,1.0,1.0
44.95,964.45,1.0,1.0,1.0
44.96,784.4833,1.0,1.0,1.0
44.97,876.0444,1.0,1.0,1.0
44.98,908.9778,1.0,1.0,1.0
44.99,1026.99,1.0,1.0,1.0
45.0,1023.46,1.0,1.0,1.0
45.01,1093.53,1.0,1.0,1.0
45.02,1149.04,1.0,1.0,1.0
45.03,1101.46,1.0,1.0,1.0
45.04,1282.52,1.0,1.0,1.0
45.05,1293.47,1.0,1.0,1.0
45.06,1396.54,1.0,1.0,1.0
45.07,1420.93,1.0,1.0,1.0
45.08,1613.51,1.0,1.0,1.0
45.09,1640.43,1.0,1.0,1.0
45.1,1785.52,1.0,1.0,1.0
45.11,1810.43,1.0,1.0,1.0
45.12,1873.02,1.0,1.0,1.0
45.13,2129.03,1.0,1.0,1.0
45.14,2108.51,1.0,1.0,1.0
45.15,2238.46,1.0,1.0,1.0
45.16,2315.561,1.0,1.0,1.0
45.17,2533.38,1.0,1.0,1.0
45.18,2492.54,1.0,1.0,1.0
45.19,2703.74,1.0,1.0,1.0
45.2,2772.26,1.0,1.0,1.0
45.21,2815.38,1.0,1.0,1.0
45.22,3037.09,1.0,1.0,1.0
45.23,3104.9,1.0,1.0,1.0
45.24,3265.09,1.0,1.0,1.0
45.25,3344.02,1.0,1.0,1.0
45.26,3539.33,1.0,1.0,1.0
45.27,3621.561,1.0,1.0,1.0
45.28,3809.03,1.0,1.0,1.0
45.29,3920.89,1.0,1.0,1.0
45.3,4144.08,1.0,1.0,1.0
45.31,4158.38,1.0,1.0,1.0
45.32,4375.25,1.0,1.0,1.0
45.33,4534.23,1.0,1.0,1.0
45.34,4721.01,1.0,1.0,1.0
45.35,4956.45,1.0,1.0,1.0
45.36,5081.51,1.0,1.0,1.0
45.37,5181.561,1.0,1.0,1.0
45.38,5340.45,1.0,1.0,1.0
45.39,5488.42,1.0,1.0,1.0
45.4,5602.57,1.0,1.0,1.0
45.41,5819.92,1.0,1.0,1.0
45.42,6037.46,1.0,1.0,1.0
45.43,6288.04,1.0,1.0,1.0
45.44,6529.37,1.0,1.0,1.0
45.45,6684.57,1.0,1.0,1.0
45.46,6780.94,1.0,1.0,1.0
45.47,6834.55,1.0,1.0,1.0
45.48,7169.28,1.0,1.0,1.0
45.49,7417.65,1.0,1.0,1.0
45.5,7698.92,1.0,1.0,1.0
45.51,7766.87,1.0,1.0,1.0
45.52,7929.1,1.0,1.0,1.0
45.53,8241.06,1.0,1.0,1.0
45.54,8568.85,1.0,1.0,1.0
45.55,8513.89,1.0,1.0,1.0
45.56,8865.167,1.0,1.0,1.0
45.57,9058.87,1.0,1.0,1.0
45.58,9144.55,1.0,1.0,1.0
45.59,9319.32,1.0,1.0,1.0
45.6,9649.44,1.0,1.0,1.0
45.61,9757.77,1.0,1.0,1.0
45.62,10082.9,1.0,1.0,1.0
45.63,10466.5,1.0,1.0,1.0
45.64,10385.4,1.0,1.0,1.0
45.65,10618,1.0,1.0,1.0
45.66,11029.4,1.0,1.0,1.0
45.67,11039.5,1.0,1.0,1.0
45.68,11283.6,1.0,1.0,1.0
45.69,11477.8,1.0,1.0,1.0
45.7,11644.6,1.0,1.0,1.0
45.71,11874.3,1.0,1.0,1.0
45.72,12156.417,1.0,1.0,1.0
45.73,12461.7,1.0,1.0,1.0
45.74,12743.5,1.0,1.0,1.0
45.75,12925,1.0,1.0,1.0
45.76,13252.8,1.0,1.0,1.0
45.77,13110.6,1.0,1.0,1.0
45.78,13494.8,1.0,1.0,1.0
45.79,13734.1,1.0,1.0,1.0
45.8,13679.6,1.0,1.0,1.0
45.81,13915.8,1.0,1.0,1.0
45.82,14241.6,1.0,1.0,1.0
45.83,14227.5,1.0,1.0,1.0
45.84,14656.9,1.0,1.0,1.0
45.85,15289.4,1.0,1.0,1.0
45.86,14959.5,1.0,1.0,1.0
45.87,15186,1.0,1.0,1.0
45.88,15449.583,1.0,1.0,1.0
45.89,15515,1.0,1.0,1.0
45.9,15854,1.0,1.0,1.0
45.91,16040.4,1.0,1.0,1.0
45.92,16118.9,1.0,1.0,1.0
45.93,16589.8,1.0,1.0,1.0
45.94,16632.9,1.0,1.0,1.0
45.95,16641.4,1.0,1.0,1.0
45.96,17096.0,1.0,1.0,1.0
45.97,17294.7,1.0,1.0,1.0
45.98,17463.9,1.0,1.0,1.0
45.99,17567.8,1.0,1.0,1.0
46.0,17852.1,1.0,1.0,1.0
46.01,18074.3,1.0,1.0,1.0
46.02,17889.584,1.0,1.0,1.0
46.03,18195.6,1.0,1.0,1.0
46.04,18616.373,1.0,1.0,1.0
46.05,18482.3,1.0,1.0,1.0
46.06,18507.8,1.0,1.0,1.0
46.07,18892,1.0,1.0,1.0
46.08,19007.8,1.0,1.0,1.0
46.09,19097.5,1.0,1.0,1.0
46.1,19617.9,1.0,1.0,1.0
46.11,19437.2,1.0,1.0,1.0
46.12,19533.1,1.0,1.0,1.0
46.13,19579.2,1.0,1.0,1.0
46.14,19765,1.0,1.0,1.0
46.15,19967,1.0,1.0,1.0
46.16,20065.4,1.0,1.0,1.0
46.17,20051,1.0,1.0,1.0
46.18,20399.8,1.0,1.0,1.0
46.19,20623,1.0,1.0,1.0
46.2,20728.3,1.0,1.0,1.0
46.21,20918.3,1.0,1.0,1.0
46.22,20886.9,1.0,1.0,1.0
46.23,21142.2,1.0,1.0,1.0
46.24,21222.9,1.0,1.0,1.0
46.25,21156.4,1.0,1.0,1.0
46.26,21627.6,1.0,1.0,1.0
46.27,21503.8,1.0,1.0,1.0
46.28,21590.3,1.0,1.0,1.0
46.29,21864.2,1.0,1.0,1.0
46.3,21754.7,1.0,1.0,1.0
46.31,21753.4,1.0,1.0,1.0
46.32,21793.4,1.0,1.0,1.0
46.33,22191,1.0,1.0,1.0
46.34,22061.1,1.0,1.0,1.0
46.35,22336.2,1.0,1.0,1.0
46.36,22533.7,1.0,1.0,1.0
46.37,22572,1.0,1.0,1.0
46.38,22598,1.0,1.0,1.0
46.39,23036.6,1.0,1.0,1.0
46.4,23133.3,1.0,1.0,1.0
46.41,22967.5,1.0,1.0,1.0
46.42,23067.1,1.0,1.0,1.0
46.43,23550.6,1.0,1.0,1.0
46.44,23431.377,1.0,1.0,1.0
46.45,23630.4,1.0,1.0,1.0
46.46,23413.3,1.0,1.0,1.0
46.47,24287.166,1.0,1.0,1.0
46.48,24161.25,1.0,1.0,1.0
46.49,24631.3,1.0,1.0,1.0
46.5,24527.8,1.0,1.0,1.0
46.51,25082.3,1.0,1.0,1.0
46.52,25056.7,1.0,1.0,1.0
46.53,25450.25,1.0,1.0,1.0
46.54,25769.7,1.0,1.0,1.0
46.55,25835.7,1.0,1.0,1.0
46.56,26494.6,1.0,1.0,1.0
46.57,26492.3,1.0,1.0,1.0
46.58,27116.6,1.0,1.0,1.0
46.59,27906.9,1.0,1.0,1.0
46.6,28048.3,1.0,1.0,1.0
46.61,28758.2,1.0,1.0,1.0
46.62,29241.2,1.0,1.0,1.0
46.63,30124.5,1.0,1.0,1.0
46.64,31023.373,1.0,1.0,1.0
46.65,31570,1.0,1.0,1.0
46.66,32615.5,1.0,1.0,1.0
46.67,33715.9,1.0,1.0,1.0
46.68,35700.668,1.0,1.0,1.0
46.69,36203.1,1.0,1.0,1.0
46.7,38043.7,1.0,1.0,1.0
46.71,39639.8,1.0,1.0,1.0
46.72,42490.4,1.0,1.0,1.0
46.73,44548.9,1.0,1.0,1.0
46.74,47590.8,1.0,1.0,1.0
46.75,51064.6,1.0,1.0,1.0
46.76,54746.6,1.0,1.0,1.0
46.77,59510.5,1.0,1.0,1.0
46.78,66057.5,1.0,1.0,1.0
46.79,73976.9,1.0,1.0,1.0
46.8,83338,1.0,1.0,1.0
46.81,96696.1,1.0,1.0,1.0
46.82,112450,1.0,1.0,1.0
46.83,134604,1.0,1.0,1.0
46.84,162949.875,1.0,1.0,1.0
46.85,203987,1.0,1.0,1.0
46.86,261773,1.0,1.0,1.0
46.87,349047,1.0,1.0,1.0
46.88,492759,1.0,1.0,1.0
46.89,749543.0,1.0,1.0,1.0
46.9,1264528.875,1.0,1.0,1.0
46.91,2569918.75,1.0,1.0,1.0
46.92,16524417.0,1.0,1.0,1.0
46.93,150813552.0,1.0,1.0,1.0
46.94,135615904.0,1.0,1.0,1.0
46.95,67401184.0,1.0,1.0,1.0
46.96,15132415.0,1.0,1.0,1.0
46.97,2169883.25,1.0,1.0,1.0
46.98,846377,1.0,1.0,1.0
46.99,519484,1.0,1.0,1.0
47.0,345454,1.0,1.0,1.0
47.01,232072,1.0,1.0,1.0
47.02,164638,1.0,1.0,1.0
47.03,126279,1.0,1.0,1.0
47.04,98999.4,1.0,1.0,1.0
47.05,79948.5,1.0,1.0,1.0
47.06,65260.4,1.0,1.0,1.0
47.07,54306.4,1.0,1.0,1.0
47.08,46797,1.0,1.0,1.0
47.09,41000.4,1.0,1.0,1.0
47.1,36058.9,1.0,1.0,1.0
47.11,32033.7,1.0,1.0,1.0
47.12,28573.5,1.0,1.0,1.0
47.13,25860.7,1.0,1.0,1.0
47.14,23140,1.0,1.0,1.0
47.15,21167.9,1.0,1.0,1.0
47.16,19477.6,1.0,1.0,1.0
47.17,17831.7,1.0,1.0,1.0
47.18,16294.1,1.0,1.0,1.0
47.19,15061.6,1.0,1.0,1.0
47.2,14072.7,1.0,1.0,1.0
47.21,12886.4,1.0,1.0,1.0
47.22,12143.8,1.0,1.0,1.0
47.23,11427.1,1.0,1.0,1.0
47.24,10614.75,1.0,1.0,1.0
47.25,9995.04,1.0,1.0,1.0
47.26,9393.02,1.0,1.0,1.0
47.27,8799.57,1.0,1.0,1.0
47.28,8299.12,1.0,1.0,1.0
47.29,7822.41,1.0,1.0,1.0
47.3,7322.11,1.0,1.0,1.0
47.31,6922.08,1.0,1.0,1.0
47.32,6342.55,1.0,1.0,1.0
47.33,5944.52,1.0,1.0,1.0
47.34,5767.49,1.0,1.0,1.0
47.35,5457.01,1.0,1.0,1.0
47.36,5152.01,1.0,1.0,1.0
47.37,4738.69,1.0,1.0,1.0
47.38,4502.92,1.0,1.0,1.0
47.39,4444.06,1.0,1.0,1.0
47.4,4054.03,1.0,1.0,1.0
47.41,3829.04,1.0,1.0,1.0
47.42,3585.51,1.0,1.0,1.0
47.43,3580.48,1.0,1.0,1.0
47.44,3344.97,1.0,1.0,1.0
47.45,3074.561,1.0,1.0,1.0
47.46,2943.61,1.0,1.0,1.0
47.47,2796.33,1.0,1.0,1.0
47.48,2646.69,1.0,1.0,1.0
47.49,2503.439,1.0,1.0,1.0
47.5,2382.57,1.0,1.0,1.0
47.51,2207.439,1.0,1.0,1.0
47.52,2164.07,1.0,1.0,1.0
47.53,2063.06,1.0,1.0,1.0
47.54,1853.49,1.0,1.0,1.0
47.55,1746.06,1.0,1.0,1.0
47.56,1642.94,1.0,1.0,1.0
47.57,1628.47,1.0,1.0,1.0
47.58,1473.03,1.0,1.0,1.0
47.59,1389.99,1.0,1.0,1.0
47.6,1315.54,1.0,1.0,1.0
47.61,1320.51,1.0,1.0,1.0
47.62,1198.02,1.0,1.0,1.0
47.63,1091.53,1.0,1.0,1.0
47.64,1037.02,1.0,1.0,1.0
47.65,986.4056,1.0,1.0,1.0
47.66,945.0444,1.0,1.0,1.0
47.67,837.0333,1.0,1.0,1.0
47.68,800.5278,1.0,1.0,1.0
47.69,765.9667,1.0,1.0,1.0
47.7,705.5056,1.0,1.0,1.0
47.71,653.5278,1.0,1.0,1.0
47.72,562.4833,1.0,1.0,1.0
47.73,588.5389,1.0,1.0,1.0
47.74,571.4944,1.0,1.0,1.0
47.75,512.4944,1.0,1.0,1.0
47.76,500.0,1.0,1.0,1.0
47.77,454.0,1.0,1.0,1.0
47.78,416.5056,1.0,1.0,1.0
47.79,402.0111,1.0,1.0,1.0
47.8,366.0,1.0,1.0,1.0
47.81,387.9889,1.0,1.0,1.0
47.82,321.5056,1.0,1.0,1.0
47.83,352.5056,1.0,1.0,1.0
47.84,280.0222,1.0,1.0,1.0
47.85,279.9556,1.0,1.0,1.0
47.86,290.5389,1.0,1.0,1.0
47.87,276.9889,1.0,1.0,1.0
47.88,278.0111,1.0,1.0,1.0
47.89,221.5056,1.0,1.0,1.0
47.9,219.4722,1.0,1.0,1.0
47.91,252.5056,1.0,1.0,1.0
47.92,223.0111,1.0,1.0,1.0
47.93,186.0111,1.0,1.0,1.0
47.94,205.0,1.0,1.0,1.0
47.95,207.4944,1.0,1.0,1.0
47.96,218.9778,1.0,1.0,1.0
47.97,216.5278,1.0,1.0,1.0
47.98,205.9889,1.0,1.0,1.0
47.99,207.0,1.0,1.0,1.0
48.0,226.0,1.0,1.0,1.0
48.01,200.0111,1.0,1.0,1.0
48.02,191.4833,1.0,1.0,1.0
48.03,216.0111,1.0,1.0,1.0
48.04,215.9889,1.0,1.0,1.0
48.05,210.4944,1.0,1.0,1.0
48.06,217.5056,1.0,1.0,1.0
48.07,216.4944,1.0,1.0,1.0
48.08,196.0111,1.0,1.0,1.0
48.09,210.5056,1.0,1.0,1.0
48.1,193.0,1.0,1.0,1.0
48.11,207.5056,1.0,1.0,1.0
48.12,229.9889,1.0,1.0,1.0
48.13,249.9778,1.0,1.0,1.0
48.14,244.4944,1.0,1.0,1.0
48.15,290.5056,1.0,1.0,1.0
48.16,244.9889,1.0,1.0,1.0
48.17,240.5389,1.0,1.0,1.0
48.18,263.9778,1.0,1.0,1.0
48.19,262.5278,1.0,1.0,1.0
48.2,263.0,1.0,1.0,1.0
48.21,252.9778,1.0,1.0,1.0
48.22,260.4944,1.0,1.0,1.0
48.23,282.4944,1.0,1.0,1.0
48.24,317.0,1.0,1.0,1.0
48.25,295.5278,1.0,1.0,1.0
48.26,276.9778,1.0,1.0,1.0
48.27,294.4833,1.0,1.0,1.0
48.28,300.4833,1.0,1.0,1.0
48.29,314.0667,1.0,1.0,1.0
48.3,294.4611,1.0,1.0,1.0
48.31,293.4944,1.0,1.0,1.0
48.32,279.5167,1.0,1.0,1.0
48.33,289.5167,1.0,1.0,1.0
48.34,315.0,1.0,1.0,1.0
48.35,285.9778,1.0,1.0,1.0
48.36,334.5056,1.0,1.0,1.0
48.37,308.5056,1.0,1.0,1.0
48.38,334.4722,1.0,1.0,1.0
48.39,321.5278,1.0,1.0,1.0
48.4,315.9889,1.0,1.0,1.0
48.41,307.4833,1.0,1.0,1.0
48.42,323.0111,1.0,1.0,1.0
48.43,324.0111,1.0,1.0,1.0
48.44,362.0222,1.0,1.0,1.0
48.45,308.4611,1.0,1.0,1.0
48.46,324.0111,1.0,1.0,1.0
48.47,336.5056,1.0,1.0,1.0
48.48,341.0,1.0,1.0,1.0
48.49,318.0,1.0,1.0,1.0
48.5,340.4944,1.0,1.0,1.0
48.51,304.0111,1.0,1.0,1.0
48.52,333.0111,1.0,1.0,1.0
48.53,343.45,1.0,1.0,1.0
48.54,311.5278,1.0,1.0,1.0
48.55,334.5056,1.0,1.0,1.0
48.56,299.4944,1.0,1.0,1.0
48.57,295.0333,1.0,1.0,1.0
48.58,316.4611,1.0,1.0,1.0
48.59,312.0,1.0,1.0,1.0
48.6,306.5056,1.0,1.0,1.0
48.61,291.9889,1.0,1.0,1.0
48.62,319.0111,1.0,1.0,1.0
48.63,270.5056,1.0,1.0,1.0
48.64,331.4944,1.0,1.0,1.0
48.65,308.4944,1.0,1.0,1.0
48.66,266.0111,1.0,1.0,1.0
48.67,257.9889,1.0,1.0,1.0
48.68,279.0111,1.0,1.0,1.0
48.69,285.9889,1.0,1.0,1.0
48.7,281.0111,1.0,1.0,1.0
48.71,249.4944,1.0,1.0,1.0
48.72,212.0,1.0,1.0,1.0
48.73,233.9889,1.0,1.0,1.0
48.74,248.0222,1.0,1.0,1.0
48.75,231.0111,1.0,1.0,1.0
48.76,221.9889,1.0,1.0,1.0
48.77,227.0,1.0,1.0,1.0
48.78,236.0111,1.0,1.0,1.0
48.79,220.4944,1.0,1.0,1.0
48.8,212.0,1.0,1.0,1.0
48.81,216.4944,1.0,1.0,1.0
48.82,207.5167,1.0,1.0,1.0
48.83,197.9889,1.0,1.0,1.0
48.84,198.0111,1.0,1.0,1.0
48.85,176.4833,1.0,1.0,1.0
48.86,168.0222,1.0,1.0,1.0
48.87,188.0,1.0,1.0,1.0
48.88,183.9778,1.0,1.0,1.0
48.89,151.5056,1.0,1.0,1.0
48.9,151.0111,1.0,1.0,1.0
48.91,151.0,1.0,1.0,1.0
48.92,136.5056,1.0,1.0,1.0
48.93,140.4944,1.0,1.0,1.0
48.94,157.9889,1.0,1.0,1.0
48.95,144.0,1.0,1.0,1.0
48.96,123.5056,1.0,1.0,1.0
48.97,124.0,1.0,1.0,1.0
48.98,117.9889,1.0,1.0,1.0
48.99,120.5167,1.0,1.0,1.0
49.0,107.5056,1.0,1.0,1.0
49.01,113.0,1.0,1.0,1.0
49.02,103.4833,1.0,1.0,1.0
49.03,108.9889,1.0,1.0,1.0
49.04,104.0222,1.0,1.0,1.0
49.05,96.0111,1.0,1.0,1.0
49.06,61.9889,1.0,1.0,1.0
49.07,89.0111,1.0,1.0,1.0
49.08,86.4722,1.0,1.0,1.0
49.09,63.0222,1.0,1.0,1.0
49.1,86.4833,1.0,1.0,1.0
49.11,80.5056,1.0,1.0,1.0
49.12,74.4944,1.0,1.0,1.0
49.13,57.0111,1.0,1.0,1.0
49.14,63.5056,1.0,1.0,1.0
49.15,67.5056,1.0,1.0,1.0
49.16,69.9889,1.0,1.0,1.0
49.17,69.4944,1.0,1.0,1.0
49.18,48.5167,1.0,1.0,1.0
49.19,39.0,1.0,1.0,1.0
49.2,63.0,1.0,1.0,1.0
49.21,44.0,1.0,1.0,1.0
49.22,51.0,1.0,1.0,1.0
49.23,54.4944,1.0,1.0,1.0
49.24,44.0,1.0,1.0,1.0
49.25,28.9889,1.0,1.0,1.0
49.26,42.5167,1.0,1.0,1.0
49.27,34.9889,1.0,1.0,1.0
49.28,20.0111,1.0,1.0,1.0
49.29,32.0,1.0,1.0,1.0
49.3,24.4944,1.0,1.0,1.0
49.31,37.5056,1.0,1.0,1.0
49.32,37.0,1.0,1.0,1.0
49.33,28.0,1.0,1.0,1.0
49.34,36.9889,1.0,1.0,1.0
49.35,46.5056,1.0,1.0,1.0
49.36,41.0,1.0,1.0,1.0
49.37,50.5056,1.0,1.0,1.0
49.38,26.4944,1.0,1.0,1.0
49.39,31.4944,1.0,1.0,1.0
49.4,44.0111,1.0,1.0,1.0
49.41,31.0,1.0,1.0,1.0
49.42,36.0,1.0,1.0,1.0
49.43,43.9889,1.0,1.0,1.0
49.44,49.0111,1.0,1.0,1.0
49.45,59.0,1.0,1.0,1.0
49.46,29.4944,1.0,1.0,1.0
49.47,44.0,1.0,1.0,1.0
49.48,66.9889,1.0,1.0,1.0
49.49,34.0111,1.0,1.0,1.0
49.5,48.0,1.0,1.0,1.0
49.51,56.5056,1.0,1.0,1.0
49.52,52.0,1.0,1.0,1.0
49.53,48.9889,1.0,1.0,1.0
49.54,37.5056,1.0,1.0,1.0
49.55,52.4944,1.0,1.0,1.0
49.56,57.0111,1.0,1.0,1.0
49.57,48.4944,1.0,1.0,1.0
49.58,50.0,1.0,1.0,1.0
49.59,47.5056,1.0,1.0,1.0
49.6,53.4944,1.0,1.0,1.0
49.61,55.4944,1.0,1.0,1.0
49.62,71.5056,1.0,1.0,1.0
49.63,56.4944,1.0,1.0,1.0
49.64,44.4944,1.0,1.0,1.0
49.65,90.4944,1.0,1.0,1.0
49.66,55.0222,1.0,1.0,1.0
49.67,50.0,1.0,1.0,1.0
49.68,32.0,1.0,1.0,1.0
49.69,40.4944,1.0,1.0,1.0
49.7,49.4944,1.0,1.0,1.0
49.71,62.5056,1.0,1.0,1.0
49.72,56.4944,1.0,1.0,1.0
49.73,60.0111,1.0,1.0,1.0
49.74,52.9889,1.0,1.0,1.0
49.75,54.0111,1.0,1.0,1.0
49.76,64.4833,1.0,1.0,1.0
49.77,77.9889,1.0,1.0,1.0
49.78,59.0111,1.0,1.0,1.0
49.79,70.0,1.0,1.0,1.0
49.8,56.5056,1.0,1.0,1.0
49.81,53.0111,1.0,1.0,1.0
49.82,47.4944,1.0,1.0,1.0
49.83,65.5056,1.0,1.0,1.0
49.84,69.4833,1.0,1.0,1.0
49.85,44.5056,1.0,1.0,1.0
49.86,74.5056,1.0,1.0,1.0
49.87,64.4944,1.0,1.0,1.0
49.88,76.0,1.0,1.0,1.0
49.89,54.4944,1.0,1.0,1.0
49.9,81.5167,1.0,1.0,1.0
49.91,71.4944,1.0,1.0,1.0
49.92,50.5056,1.0,1.0,1.0
49.93,74.0,1.0,1.0,1.0
49.94,53.0,1.0,1.0,1.0
49.95,74.4944,1.0,1.0,1.0
49.96,50.5056,1.0,1.0,1.0
49.97,77.9889,1.0,1.0,1.0
49.98,82.0,1.0,1.0,1.0
49.99,81.0111,1.0,1.0,1.0
50.0,65.4833,1.0,1.0,1.0
50.01,63.0111,1.0,1.0,1.0
50.02,59.5056,1.0,1.0,1.0
50.03,59.9889,1.0,1.0,1.0
50.04,69.0111,1.0,1.0,1.0
50.05,65.4944,1.0,1.0,1.0
50.06,66.0,1.0,1.0,1.0
50.07,75.5056,1.0,1.0,1.0
50.08,70.0,1.0,1.0,1.0
50.09,56.9889,1.0,1.0,1.0
50.1,64.5056,1.0,1.0,1.0
50.11,71.4944,1.0,1.0,1.0
50.12,74.4944,1.0,1.0,1.0
50.13,67.5056,1.0,1.0,1.0
50.14,65.5056,1.0,1.0,1.0
50.15,57.0,1.0,1.0,1.0
50.16,61.4944,1.0,1.0,1.0
50.17,70.0,1.0,1.0,1.0
50.18,51.0,1.0,1.0,1.0
50.19,47.0111,1.0,1.0,1.0
50.2,90.9889,1.0,1.0,1.0
50.21,50.4944,1.0,1.0,1.0
50.22,61.0111,1.0,1.0,1.0
50.23,32.4944,1.0,1.0,1.0
50.24,39.0,1.0,1.0,1.0
50.25,55.0,1.0,1.0,1.0
50.26,43.0111,1.0,1.0,1.0
50.27,54.9889,1.0,1.0,1.0
50.28,61.0,1.0,1.0,1.0
50.29,46.0111,1.0,1.0,1.0
50.3,52.0,1.0,1.0,1.0
50.31,56.4944,1.0,1.0,1.0
50.32,43.0,1.0,1.0,1.0
50.33,41.0,1.0,1.0,1.0
50.34,33.5056,1.0,1.0,1.0
50.35,50.9778,1.0,1.0,1.0
50.36,49.5167,1.0,1.0,1.0
50.37,27.5056,1.0,1.0,1.0
50.38,26.0,1.0,1.0,1.0
50.39,44.4944,1.0,1.0,1.0
50.4,44.4944,1.0,1.0,1.0
50.41,46.4944,1.0,1.0,1.0
50.42,25.0111,1.0,1.0,1.0
50.43,40.5056,1.0,1.0,1.0
50.44,28.0,1.0,1.0,1.0
50.45,44.0,1.0,1.0,1.0
50.46,33.4944,1.0,1.0,1.0
50.47,39.5056,1.0,1.0,1.0
50.48,42.0,1.0,1.0,1.0
50.49,30.0,1.0,1.0,1.0
50.5,34.9889,1.0,1.0,1.0
50.51,45.5056,1.0,1.0,1.0
50.52,38.5056,1.0,1.0,1.0
50.53,31.0,1.0,1.0,1.0
50.54,23.4944,1.0,1.0,1.0
50.55,39.5056,1.0,1.0,1.0
50.56,20.0,1.0,1.0,1.0
50.57,14.4944,1.0,1.0,1.0
50.58,42.0,1.0,1.0,1.0
50.59,21.5056,1.0,1.0,1.0
50.6,25.0,1.0,1.0,1.0
50.61,45.0,1.0,1.0,1.0
50.62,31.0,1.0,1.0,1.0
50.63,10.0,1.0,1.0,1.0
50.64,25.4944,1.0,1.0,1.0
50.65,29.5056,1.0,1.0,1.0
50.66,29.0,1.0,1.0,1.0
50.67,13.0,1.0,1.0,1.0
50.68,22.0,1.0,1.0,1.0
50.69,8.0,1.0,1.0,1.0
50.7,21.0,1.0,1.0,1.0
50.71,31.0,1.0,1.0,1.0
50.72,28.0,1.0,1.0,1.0
50.73,22.0,1.0,1.0,1.0
50.74,26.0,1.0,1.0,1.0
50.75,21.0,1.0,1.0,1.0
50.76,18.4944,1.0,1.0,1.0
50.77,29.5056,1.0,1.0,1.0
50.78,17.4944,1.0,1.0,1.0
50.79,28.5056,1.0,1.0,1.0
50.8,16.0,1.0,1.0,1.0
50.81,14.0,1.0,1.0,1.0
50.82,18.0,1.0,1.0,1.0
50.83,17.0,1.0,1.0,1.0
50.84,12.4944,1.0,1.0,1.0
50.85,21.5056,1.0,1.0,1.0
50.86,24.4944,1.0,1.0,1.0
50.87,22.0,1.0,1.0,1.0
50.88,21.4944,1.0,1.0,1.0
50.89,35.0111,1.0,1.0,1.0
50.9,17.0,1.0,1.0,1.0
50.91,22.9889,1.0,1.0,1.0
50.92,22.5056,1.0,1.0,1.0
50.93,34.5056,1.0,1.0,1.0
50.94,38.0,1.0,1.0,1.0
50.95,18.0,1.0,1.0,1.0
50.96,38.4944,1.0,1.0,1.0
50.97,26.4944,1.0,1.0,1.0
50.98,31.5056,1.0,1.0,1.0
50.99,18.5056,1.0,1.0,1.0
51.0,33.0,1.0,1.0,1.0
51.01,23.9889,1.0,1.0,1.0
51.02,33.5056,1.0,1.0,1.0
51.03,31.5056,1.0,1.0,1.0
51.04,20.4944,1.0,1.0,1.0
51.05,26.0,1.0,1.0,1.0
51.06,22.5056,1.0,1.0,1.0
51.07,13.0,1.0,1.0,1.0
51.08,24.0,1.0,1.0,1.0
51.09,49.0,1.0,1.0,1.0
51.1,18.4944,1.0,1.0,1.0
51.11,22.4944,1.0,1.0,1.0
51.12,18.0111,1.0,1.0,1.0
51.13,23.0,1.0,1.0,1.0
51.14,20.4944,1.0,1.0,1.0
51.15,37.5056,1.0,1.0,1.0
51.16,14.4944,1.0,1.0,1.0
51.17,23.5056,1.0,1.0,1.0
51.18,16.4944,1.0,1.0,1.0
51.19,22.5056,1.0,1.0,1.0
51.2,27.0,1.0,1.0,1.0
51.21,23.0,1.0,1.0,1.0
51.22,24.0,1.0,1.0,1.0
51.23,29.9889,1.0,1.0,1.0
51.24,31.0111,1.0,1.0,1.0
51.25,28.4944,1.0,1.0,1.0
51.26,16.0,1.0,1.0,1.0
51.27,29.0,1.0,1.0,1.0
51.28,29.5056,1.0,1.0,1.0
51.29,32.4833,1.0,1.0,1.0
51.3,28.5056,1.0,1.0,1.0
51.31,20.0111,1.0,1.0,1.0
51.32,27.4944,1.0,1.0,1.0
51.33,30.4944,1.0,1.0,1.0
51.34,32.0111,1.0,1.0,1.0
51.35,11.0,1.0,1.0,1.0
51.36,29.9889,1.0,1.0,1.0
51.37,24.0,1.0,1.0,1.0
51.38,17.5056,1.0,1.0,1.0
51.39,22.0,1.0,1.0,1.0
51.4,17.0,1.0,1.0,1.0
51.41,19.0,1.0,1.0,1.0
51.42,38.5056,1.0,1.0,1.0
51.43,19.0,1.0,1.0,1.0
51.44,25.0,1.0,1.0,1.0
51.45,27.9889,1.0,1.0,1.0
51.46,28.0111,1.0,1.0,1.0
51.47,31.0,1.0,1.0,1.0
51.48,38.4944,1.0,1.0,1.0
51.49,24.5056,1.0,1.0,1.0
51.5,30.4944,1.0,1.0,1.0
51.51,32.5056,1.0,1.0,1.0
51.52,35.4833,1.0,1.0,1.0
51.53,40.0111,1.0,1.0,1.0
51.54,28.5056,1.0,1.0,1.0
51.55,26.0,1.0,1.0,1.0
51.56,25.0,1.0,1.0,1.0
51.57,24.4944,1.0,1.0,1.0
51.58,22.0,1.0,1.0,1.0
51.59,13.5056,1.0,1.0,1.0
51.6,26.4944,1.0,1.0,1.0
51.61,37.0,1.0,1.0,1.0
51.62,21.0,1.0,1.0,1.0
51.63,41.0,1.0,1.0,1.0
51.64,24.5056,1.0,1.0,1.0
51.65,24.0,1.0,1.0,1.0
51.66,23.4944,1.0,1.0,1.0
51.67,28.5056,1.0,1.0,1.0
51.68,20.0,1.0,1.0,1.0
51.69,21.0,1.0,1.0,1.0
51.7,33.4944,1.0,1.0,1.0
51.71,23.5056,1.0,1.0,1.0
51.72,22.4944,1.0,1.0,1.0
51.73,26.5056,1.0,1.0,1.0
51.74,26.0,1.0,1.0,1.0
51.75,29.9889,1.0,1.0,1.0
51.76,23.0111,1.0,1.0,1.0
51.77,17.0,1.0,1.0,1.0
51.78,17.0,1.0,1.0,1.0
51.79,21.4944,1.0,1.0,1.0
51.8,18.4944,1.0,1.0,1.0
51.81,22.4944,1.0,1.0,1.0
51.82,30.5167,1.0,1.0,1.0
51.83,18.0,1.0,1.0,1.0
51.84,17.0,1.0,1.0,1.0
51.85,20.0,1.0,1.0,1.0
51.86,12.4944,1.0,1.0,1.0
51.87,25.0,1.0,1.0,1.0
51.88,20.5056,1.0,1.0,1.0
51.89,27.4944,1.0,1.0,1.0
51.9,31.4944,1.0,1.0,1.0
51.91,16.0111,1.0,1.0,1.0
51.92,21.0,1.0,1.0,1.0
51.93,12.4944,1.0,1.0,1.0
51.94,14.5056,1.0,1.0,1.0
51.95,28.0,1.0,1.0,1.0
51.96,21.4944,1.0,1.0,1.0
51.97,28.4944,1.0,1.0,1.0
51.98,28.0111,1.0,1.0,1.0
51.99,12.0,1.0,1.0,1.0
52.0,18.4944,1.0,1.0,1.0