File: XRD:XRR/LCO/22130_LCOA/22130_LCOA_XRD_002.csv
#twotheta, yobs, ycal, bkg, diff
42.0,20.0,1.0,1.0,1.0
42.01,17.0,1.0,1.0,1.0
42.02,25.0,1.0,1.0,1.0
42.03,10.0,1.0,1.0,1.0
42.04,15.0,1.0,1.0,1.0
42.05,19.0,1.0,1.0,1.0
42.06,21.4944,1.0,1.0,1.0
42.07,18.5056,1.0,1.0,1.0
42.08,20.0,1.0,1.0,1.0
42.09,35.4944,1.0,1.0,1.0
42.1,7.5056,1.0,1.0,1.0
42.11,14.4944,1.0,1.0,1.0
42.12,12.5056,1.0,1.0,1.0
42.13,32.0,1.0,1.0,1.0
42.14,52.4944,1.0,1.0,1.0
42.15,21.0,1.0,1.0,1.0
42.16,22.5056,1.0,1.0,1.0
42.17,16.9889,1.0,1.0,1.0
42.18,32.0111,1.0,1.0,1.0
42.19,0.0,1.0,1.0,1.0
42.2,21.0,1.0,1.0,1.0
42.21,15.4944,1.0,1.0,1.0
42.22,21.5056,1.0,1.0,1.0
42.23,21.0,1.0,1.0,1.0
42.24,30.0,1.0,1.0,1.0
42.25,19.0,1.0,1.0,1.0
42.26,30.0,1.0,1.0,1.0
42.27,26.4944,1.0,1.0,1.0
42.28,20.5056,1.0,1.0,1.0
42.29,24.0,1.0,1.0,1.0
42.3,10.4944,1.0,1.0,1.0
42.31,27.5056,1.0,1.0,1.0
42.32,17.0,1.0,1.0,1.0
42.33,26.4944,1.0,1.0,1.0
42.34,26.5056,1.0,1.0,1.0
42.35,12.0,1.0,1.0,1.0
42.36,20.0,1.0,1.0,1.0
42.37,20.0,1.0,1.0,1.0
42.38,20.0,1.0,1.0,1.0
42.39,20.0,1.0,1.0,1.0
42.4,16.9778,1.0,1.0,1.0
42.41,30.5167,1.0,1.0,1.0
42.42,27.5056,1.0,1.0,1.0
42.43,26.4944,1.0,1.0,1.0
42.44,20.5056,1.0,1.0,1.0
42.45,17.0,1.0,1.0,1.0
42.46,23.0,1.0,1.0,1.0
42.47,23.4944,1.0,1.0,1.0
42.48,21.0,1.0,1.0,1.0
42.49,21.5056,1.0,1.0,1.0
42.5,24.0,1.0,1.0,1.0
42.51,15.0,1.0,1.0,1.0
42.52,25.0,1.0,1.0,1.0
42.53,26.0,1.0,1.0,1.0
42.54,25.0,1.0,1.0,1.0
42.55,37.4944,1.0,1.0,1.0
42.56,30.5056,1.0,1.0,1.0
42.57,28.4833,1.0,1.0,1.0
42.58,37.5167,1.0,1.0,1.0
42.59,23.0,1.0,1.0,1.0
42.6,20.0,1.0,1.0,1.0
42.61,21.0,1.0,1.0,1.0
42.62,18.0,1.0,1.0,1.0
42.63,28.4944,1.0,1.0,1.0
42.64,32.0,1.0,1.0,1.0
42.65,10.5056,1.0,1.0,1.0
42.66,24.4833,1.0,1.0,1.0
42.67,35.5056,1.0,1.0,1.0
42.68,27.5056,1.0,1.0,1.0
42.69,30.5056,1.0,1.0,1.0
42.7,31.0,1.0,1.0,1.0
42.71,23.4944,1.0,1.0,1.0
42.72,28.4944,1.0,1.0,1.0
42.73,22.0111,1.0,1.0,1.0
42.74,25.0,1.0,1.0,1.0
42.75,22.4944,1.0,1.0,1.0
42.76,18.5056,1.0,1.0,1.0
42.77,31.0,1.0,1.0,1.0
42.78,48.0,1.0,1.0,1.0
42.79,39.0,1.0,1.0,1.0
42.8,24.0,1.0,1.0,1.0
42.81,32.0,1.0,1.0,1.0
42.82,14.4944,1.0,1.0,1.0
42.83,12.5056,1.0,1.0,1.0
42.84,16.4944,1.0,1.0,1.0
42.85,18.5056,1.0,1.0,1.0
42.86,17.4944,1.0,1.0,1.0
42.87,7.5056,1.0,1.0,1.0
42.88,13.0,1.0,1.0,1.0
42.89,29.0,1.0,1.0,1.0
42.9,22.0,1.0,1.0,1.0
42.91,37.9889,1.0,1.0,1.0
42.92,14.0111,1.0,1.0,1.0
42.93,32.0,1.0,1.0,1.0
42.94,19.0,1.0,1.0,1.0
42.95,20.0,1.0,1.0,1.0
42.96,22.0,1.0,1.0,1.0
42.97,13.0,1.0,1.0,1.0
42.98,21.0,1.0,1.0,1.0
42.99,18.4944,1.0,1.0,1.0
43.0,15.0,1.0,1.0,1.0
43.01,19.5056,1.0,1.0,1.0
43.02,20.0,1.0,1.0,1.0
43.03,16.9889,1.0,1.0,1.0
43.04,27.5056,1.0,1.0,1.0
43.05,24.5056,1.0,1.0,1.0
43.06,21.0,1.0,1.0,1.0
43.07,17.0,1.0,1.0,1.0
43.08,18.4944,1.0,1.0,1.0
43.09,17.0,1.0,1.0,1.0
43.1,25.5056,1.0,1.0,1.0
43.11,6.0,1.0,1.0,1.0
43.12,28.4944,1.0,1.0,1.0
43.13,27.5056,1.0,1.0,1.0
43.14,20.0,1.0,1.0,1.0
43.15,31.0,1.0,1.0,1.0
43.16,30.0,1.0,1.0,1.0
43.17,28.0,1.0,1.0,1.0
43.18,23.4944,1.0,1.0,1.0
43.19,36.0,1.0,1.0,1.0
43.2,12.5056,1.0,1.0,1.0
43.21,12.0,1.0,1.0,1.0
43.22,33.4944,1.0,1.0,1.0
43.23,44.0,1.0,1.0,1.0
43.24,22.5056,1.0,1.0,1.0
43.25,32.9889,1.0,1.0,1.0
43.26,31.5056,1.0,1.0,1.0
43.27,31.0,1.0,1.0,1.0
43.28,41.9889,1.0,1.0,1.0
43.29,29.5056,1.0,1.0,1.0
43.3,40.0111,1.0,1.0,1.0
43.31,19.4944,1.0,1.0,1.0
43.32,35.5056,1.0,1.0,1.0
43.33,21.0,1.0,1.0,1.0
43.34,22.4944,1.0,1.0,1.0
43.35,32.5056,1.0,1.0,1.0
43.36,47.4944,1.0,1.0,1.0
43.37,23.5056,1.0,1.0,1.0
43.38,20.0,1.0,1.0,1.0
43.39,23.0,1.0,1.0,1.0
43.4,17.0,1.0,1.0,1.0
43.41,33.0,1.0,1.0,1.0
43.42,32.0,1.0,1.0,1.0
43.43,34.4944,1.0,1.0,1.0
43.44,27.5056,1.0,1.0,1.0
43.45,36.0,1.0,1.0,1.0
43.46,26.0,1.0,1.0,1.0
43.47,19.4944,1.0,1.0,1.0
43.48,20.5056,1.0,1.0,1.0
43.49,19.0,1.0,1.0,1.0
43.5,27.0,1.0,1.0,1.0
43.51,27.9889,1.0,1.0,1.0
43.52,32.5056,1.0,1.0,1.0
43.53,20.4944,1.0,1.0,1.0
43.54,22.0111,1.0,1.0,1.0
43.55,27.0,1.0,1.0,1.0
43.56,23.0,1.0,1.0,1.0
43.57,23.4944,1.0,1.0,1.0
43.58,29.5056,1.0,1.0,1.0
43.59,25.4944,1.0,1.0,1.0
43.6,32.5056,1.0,1.0,1.0
43.61,23.4944,1.0,1.0,1.0
43.62,27.5056,1.0,1.0,1.0
43.63,25.0,1.0,1.0,1.0
43.64,43.0,1.0,1.0,1.0
43.65,25.4944,1.0,1.0,1.0
43.66,25.5056,1.0,1.0,1.0
43.67,25.0,1.0,1.0,1.0
43.68,23.0,1.0,1.0,1.0
43.69,22.4944,1.0,1.0,1.0
43.7,40.0,1.0,1.0,1.0
43.71,36.5056,1.0,1.0,1.0
43.72,26.4944,1.0,1.0,1.0
43.73,28.0,1.0,1.0,1.0
43.74,25.5056,1.0,1.0,1.0
43.75,12.0,1.0,1.0,1.0
43.76,26.0,1.0,1.0,1.0
43.77,29.0,1.0,1.0,1.0
43.78,19.9889,1.0,1.0,1.0
43.79,24.0111,1.0,1.0,1.0
43.8,29.0,1.0,1.0,1.0
43.81,20.0,1.0,1.0,1.0
43.82,21.0,1.0,1.0,1.0
43.83,33.4944,1.0,1.0,1.0
43.84,26.5056,1.0,1.0,1.0
43.85,30.4944,1.0,1.0,1.0
43.86,31.5056,1.0,1.0,1.0
43.87,25.4944,1.0,1.0,1.0
43.88,22.5056,1.0,1.0,1.0
43.89,23.4944,1.0,1.0,1.0
43.9,41.5056,1.0,1.0,1.0
43.91,47.4944,1.0,1.0,1.0
43.92,26.5056,1.0,1.0,1.0
43.93,34.4944,1.0,1.0,1.0
43.94,28.0,1.0,1.0,1.0
43.95,38.0,1.0,1.0,1.0
43.96,46.5056,1.0,1.0,1.0
43.97,42.0,1.0,1.0,1.0
43.98,24.4944,1.0,1.0,1.0
43.99,40.5056,1.0,1.0,1.0
44.0,44.4944,1.0,1.0,1.0
44.01,59.5056,1.0,1.0,1.0
44.02,45.9889,1.0,1.0,1.0
44.03,51.0,1.0,1.0,1.0
44.04,47.5056,1.0,1.0,1.0
44.05,37.5056,1.0,1.0,1.0
44.06,48.4944,1.0,1.0,1.0
44.07,46.5056,1.0,1.0,1.0
44.08,32.0,1.0,1.0,1.0
44.09,46.0,1.0,1.0,1.0
44.1,40.0,1.0,1.0,1.0
44.11,44.0,1.0,1.0,1.0
44.12,41.9889,1.0,1.0,1.0
44.13,41.5056,1.0,1.0,1.0
44.14,31.5056,1.0,1.0,1.0
44.15,39.4944,1.0,1.0,1.0
44.16,26.4944,1.0,1.0,1.0
44.17,47.0111,1.0,1.0,1.0
44.18,35.0,1.0,1.0,1.0
44.19,43.9889,1.0,1.0,1.0
44.2,27.0111,1.0,1.0,1.0
44.21,25.0,1.0,1.0,1.0
44.22,28.0,1.0,1.0,1.0
44.23,36.4833,1.0,1.0,1.0
44.24,45.5056,1.0,1.0,1.0
44.25,35.5056,1.0,1.0,1.0
44.26,36.0,1.0,1.0,1.0
44.27,20.5056,1.0,1.0,1.0
44.28,29.4944,1.0,1.0,1.0
44.29,17.5056,1.0,1.0,1.0
44.3,33.4944,1.0,1.0,1.0
44.31,26.5056,1.0,1.0,1.0
44.32,20.9889,1.0,1.0,1.0
44.33,29.0111,1.0,1.0,1.0
44.34,27.0,1.0,1.0,1.0
44.35,34.4944,1.0,1.0,1.0
44.36,36.0,1.0,1.0,1.0
44.37,38.0,1.0,1.0,1.0
44.38,34.5056,1.0,1.0,1.0
44.39,16.0,1.0,1.0,1.0
44.4,34.0,1.0,1.0,1.0
44.41,19.9889,1.0,1.0,1.0
44.42,19.0,1.0,1.0,1.0
44.43,30.5056,1.0,1.0,1.0
44.44,38.5056,1.0,1.0,1.0
44.45,26.4944,1.0,1.0,1.0
44.46,29.4944,1.0,1.0,1.0
44.47,45.0,1.0,1.0,1.0
44.48,26.5056,1.0,1.0,1.0
44.49,45.4944,1.0,1.0,1.0
44.5,34.5056,1.0,1.0,1.0
44.51,38.0,1.0,1.0,1.0
44.52,32.0,1.0,1.0,1.0
44.53,28.5056,1.0,1.0,1.0
44.54,45.4944,1.0,1.0,1.0
44.55,32.0,1.0,1.0,1.0
44.56,45.5056,1.0,1.0,1.0
44.57,64.0,1.0,1.0,1.0
44.58,44.0,1.0,1.0,1.0
44.59,38.9889,1.0,1.0,1.0
44.6,41.5056,1.0,1.0,1.0
44.61,44.5056,1.0,1.0,1.0
44.62,53.4944,1.0,1.0,1.0
44.63,38.0,1.0,1.0,1.0
44.64,48.5056,1.0,1.0,1.0
44.65,50.4944,1.0,1.0,1.0
44.66,42.0,1.0,1.0,1.0
44.67,76.0,1.0,1.0,1.0
44.68,43.0,1.0,1.0,1.0
44.69,75.0,1.0,1.0,1.0
44.7,61.5056,1.0,1.0,1.0
44.71,68.0,1.0,1.0,1.0
44.72,55.0,1.0,1.0,1.0
44.73,67.9889,1.0,1.0,1.0
44.74,49.0111,1.0,1.0,1.0
44.75,70.0,1.0,1.0,1.0
44.76,55.0,1.0,1.0,1.0
44.77,44.4944,1.0,1.0,1.0
44.78,79.5056,1.0,1.0,1.0
44.79,61.0,1.0,1.0,1.0
44.8,57.9889,1.0,1.0,1.0
44.81,61.5056,1.0,1.0,1.0
44.82,54.0,1.0,1.0,1.0
44.83,63.5056,1.0,1.0,1.0
44.84,47.0,1.0,1.0,1.0
44.85,55.0,1.0,1.0,1.0
44.86,44.0,1.0,1.0,1.0
44.87,42.0,1.0,1.0,1.0
44.88,41.0,1.0,1.0,1.0
44.89,49.0,1.0,1.0,1.0
44.9,53.0,1.0,1.0,1.0
44.91,46.4944,1.0,1.0,1.0
44.92,36.0,1.0,1.0,1.0
44.93,34.5056,1.0,1.0,1.0
44.94,27.0,1.0,1.0,1.0
44.95,35.9889,1.0,1.0,1.0
44.96,32.5056,1.0,1.0,1.0
44.97,37.4944,1.0,1.0,1.0
44.98,33.9889,1.0,1.0,1.0
44.99,38.5167,1.0,1.0,1.0
45.0,25.5056,1.0,1.0,1.0
45.01,39.0,1.0,1.0,1.0
45.02,34.4944,1.0,1.0,1.0
45.03,34.5056,1.0,1.0,1.0
45.04,20.4944,1.0,1.0,1.0
45.05,49.0,1.0,1.0,1.0
45.06,36.4944,1.0,1.0,1.0
45.07,42.0111,1.0,1.0,1.0
45.08,31.4944,1.0,1.0,1.0
45.09,52.9889,1.0,1.0,1.0
45.1,32.0111,1.0,1.0,1.0
45.11,44.5056,1.0,1.0,1.0
45.12,37.0,1.0,1.0,1.0
45.13,51.0,1.0,1.0,1.0
45.14,37.4944,1.0,1.0,1.0
45.15,56.5056,1.0,1.0,1.0
45.16,51.0,1.0,1.0,1.0
45.17,69.4944,1.0,1.0,1.0
45.18,68.5056,1.0,1.0,1.0
45.19,63.0,1.0,1.0,1.0
45.2,80.4944,1.0,1.0,1.0
45.21,74.5056,1.0,1.0,1.0
45.22,59.4722,1.0,1.0,1.0
45.23,82.5056,1.0,1.0,1.0
45.24,94.5167,1.0,1.0,1.0
45.25,80.4944,1.0,1.0,1.0
45.26,68.5056,1.0,1.0,1.0
45.27,109.4833,1.0,1.0,1.0
45.28,115.0111,1.0,1.0,1.0
45.29,114.9889,1.0,1.0,1.0
45.3,101.5167,1.0,1.0,1.0
45.31,110.9778,1.0,1.0,1.0
45.32,113.0222,1.0,1.0,1.0
45.33,126.4722,1.0,1.0,1.0
45.34,102.5167,1.0,1.0,1.0
45.35,113.0,1.0,1.0,1.0
45.36,139.4944,1.0,1.0,1.0
45.37,112.0111,1.0,1.0,1.0
45.38,146.0111,1.0,1.0,1.0
45.39,136.4722,1.0,1.0,1.0
45.4,165.0222,1.0,1.0,1.0
45.41,130.9889,1.0,1.0,1.0
45.42,128.0,1.0,1.0,1.0
45.43,132.5167,1.0,1.0,1.0
45.44,126.4833,1.0,1.0,1.0
45.45,137.9889,1.0,1.0,1.0
45.46,137.0111,1.0,1.0,1.0
45.47,157.4944,1.0,1.0,1.0
45.48,136.5056,1.0,1.0,1.0
45.49,158.0,1.0,1.0,1.0
45.5,166.0,1.0,1.0,1.0
45.51,136.0,1.0,1.0,1.0
45.52,122.4944,1.0,1.0,1.0
45.53,107.0,1.0,1.0,1.0
45.54,141.0111,1.0,1.0,1.0
45.55,134.9889,1.0,1.0,1.0
45.56,117.0222,1.0,1.0,1.0
45.57,107.4944,1.0,1.0,1.0
45.58,98.0,1.0,1.0,1.0
45.59,111.4944,1.0,1.0,1.0
45.6,89.0,1.0,1.0,1.0
45.61,102.0111,1.0,1.0,1.0
45.62,90.4833,1.0,1.0,1.0
45.63,74.5167,1.0,1.0,1.0
45.64,80.9889,1.0,1.0,1.0
45.65,91.0,1.0,1.0,1.0
45.66,90.0,1.0,1.0,1.0
45.67,101.5056,1.0,1.0,1.0
45.68,69.5056,1.0,1.0,1.0
45.69,89.9778,1.0,1.0,1.0
45.7,93.0222,1.0,1.0,1.0
45.71,78.4833,1.0,1.0,1.0
45.72,72.0,1.0,1.0,1.0
45.73,100.4944,1.0,1.0,1.0
45.74,107.0111,1.0,1.0,1.0
45.75,109.5056,1.0,1.0,1.0
45.76,134.0,1.0,1.0,1.0
45.77,119.4944,1.0,1.0,1.0
45.78,135.0,1.0,1.0,1.0
45.79,156.9778,1.0,1.0,1.0
45.8,157.5056,1.0,1.0,1.0
45.81,170.4944,1.0,1.0,1.0
45.82,207.5056,1.0,1.0,1.0
45.83,211.0111,1.0,1.0,1.0
45.84,239.4611,1.0,1.0,1.0
45.85,278.5389,1.0,1.0,1.0
45.86,308.4722,1.0,1.0,1.0
45.87,370.0222,1.0,1.0,1.0
45.88,351.4833,1.0,1.0,1.0
45.89,422.0111,1.0,1.0,1.0
45.9,467.9556,1.0,1.0,1.0
45.91,512.4833,1.0,1.0,1.0
45.92,494.0333,1.0,1.0,1.0
45.93,583.0,1.0,1.0,1.0
45.94,583.9889,1.0,1.0,1.0
45.95,682.4944,1.0,1.0,1.0
45.96,675.4833,1.0,1.0,1.0
45.97,749.5278,1.0,1.0,1.0
45.98,874.45,1.0,1.0,1.0
45.99,782.5389,1.0,1.0,1.0
46.0,927.9445,1.0,1.0,1.0
46.01,953.5278,1.0,1.0,1.0
46.02,1047.97,1.0,1.0,1.0
46.03,1107.53,1.0,1.0,1.0
46.04,1123.97,1.0,1.0,1.0
46.05,1201.49,1.0,1.0,1.0
46.06,1376.45,1.0,1.0,1.0
46.07,1393.02,1.0,1.0,1.0
46.08,1378.52,1.0,1.0,1.0
46.09,1495.52,1.0,1.0,1.0
46.1,1630.41,1.0,1.0,1.0
46.11,1765.99,1.0,1.0,1.0
46.12,1763.57,1.0,1.0,1.0
46.13,1908.97,1.0,1.0,1.0
46.14,1872.47,1.0,1.0,1.0
46.15,1996.53,1.0,1.0,1.0
46.16,2087.97,1.0,1.0,1.0
46.17,2073.46,1.0,1.0,1.0
46.18,2103.07,1.0,1.0,1.0
46.19,2106.53,1.0,1.0,1.0
46.2,2236.45,1.0,1.0,1.0
46.21,2388.97,1.0,1.0,1.0
46.22,2393.08,1.0,1.0,1.0
46.23,2446.49,1.0,1.0,1.0
46.24,2412.93,1.0,1.0,1.0
46.25,2595.94,1.0,1.0,1.0
46.26,2662.09,1.0,1.0,1.0
46.27,2632.43,1.0,1.0,1.0
46.28,2742.51,1.0,1.0,1.0
46.29,2724.9,1.0,1.0,1.0
46.3,2666.07,1.0,1.0,1.0
46.31,2793.52,1.0,1.0,1.0
46.32,2843.92,1.0,1.0,1.0
46.33,2824.52,1.0,1.0,1.0
46.34,2832.61,1.0,1.0,1.0
46.35,2780.97,1.0,1.0,1.0
46.36,2926.48,1.0,1.0,1.0
46.37,2977.98,1.0,1.0,1.0
46.38,2968.07,1.0,1.0,1.0
46.39,2943.48,1.0,1.0,1.0
46.4,2862.43,1.0,1.0,1.0
46.41,2903.07,1.0,1.0,1.0
46.42,2866.96,1.0,1.0,1.0
46.43,2922.57,1.0,1.0,1.0
46.44,2828.45,1.0,1.0,1.0
46.45,2844.0,1.0,1.0,1.0
46.46,2818.0,1.0,1.0,1.0
46.47,2765.08,1.0,1.0,1.0
46.48,2796.51,1.0,1.0,1.0
46.49,2743.45,1.0,1.0,1.0
46.5,2642.53,1.0,1.0,1.0
46.51,2583.46,1.0,1.0,1.0
46.52,2585.51,1.0,1.0,1.0
46.53,2476.99,1.0,1.0,1.0
46.54,2473.55,1.0,1.0,1.0
46.55,2434.46,1.0,1.0,1.0
46.56,2296.53,1.0,1.0,1.0
46.57,2320.51,1.0,1.0,1.0
46.58,2235.48,1.0,1.0,1.0
46.59,2145.53,1.0,1.0,1.0
46.6,2039.47,1.0,1.0,1.0
46.61,2045.52,1.0,1.0,1.0
46.62,1966.55,1.0,1.0,1.0
46.63,1955.48,1.0,1.0,1.0
46.64,1779.51,1.0,1.0,1.0
46.65,1746.42,1.0,1.0,1.0
46.66,1624.18,1.0,1.0,1.0
46.67,1548.99,1.0,1.0,1.0
46.68,1525.42,1.0,1.0,1.0
46.69,1423.08,1.0,1.0,1.0
46.7,1388.51,1.0,1.0,1.0
46.71,1302.01,1.0,1.0,1.0
46.72,1259.98,1.0,1.0,1.0
46.73,1148.06,1.0,1.0,1.0
46.74,1167.96,1.0,1.0,1.0
46.75,1096.55,1.0,1.0,1.0
46.76,992.0,1.0,1.0,1.0
46.77,933.9778,1.0,1.0,1.0
46.78,848.5056,1.0,1.0,1.0
46.79,853.4833,1.0,1.0,1.0
46.8,793.5167,1.0,1.0,1.0
46.81,710.0333,1.0,1.0,1.0
46.82,643.4833,1.0,1.0,1.0
46.83,631.5167,1.0,1.0,1.0
46.84,656.5278,1.0,1.0,1.0
46.85,493.4833,1.0,1.0,1.0
46.86,495.0,1.0,1.0,1.0
46.87,396.0333,1.0,1.0,1.0
46.88,402.0,1.0,1.0,1.0
46.89,348.4833,1.0,1.0,1.0
46.9,288.9889,1.0,1.0,1.0
46.91,318.0333,1.0,1.0,1.0
46.92,264.9889,1.0,1.0,1.0
46.93,242.5167,1.0,1.0,1.0
46.94,205.0,1.0,1.0,1.0
46.95,197.5056,1.0,1.0,1.0
46.96,143.5056,1.0,1.0,1.0
46.97,125.9667,1.0,1.0,1.0
46.98,158.5167,1.0,1.0,1.0
46.99,136.4833,1.0,1.0,1.0
47.0,127.5167,1.0,1.0,1.0
47.01,119.5167,1.0,1.0,1.0
47.02,112.9889,1.0,1.0,1.0
47.03,122.4944,1.0,1.0,1.0
47.04,135.0,1.0,1.0,1.0
47.05,109.4944,1.0,1.0,1.0
47.06,144.5167,1.0,1.0,1.0
47.07,139.0,1.0,1.0,1.0
47.08,154.9778,1.0,1.0,1.0
47.09,140.5167,1.0,1.0,1.0
47.1,161.5056,1.0,1.0,1.0
47.11,134.4944,1.0,1.0,1.0
47.12,167.9889,1.0,1.0,1.0
47.13,169.0,1.0,1.0,1.0
47.14,156.9889,1.0,1.0,1.0
47.15,163.0222,1.0,1.0,1.0
47.16,171.9889,1.0,1.0,1.0
47.17,221.0,1.0,1.0,1.0
47.18,174.5056,1.0,1.0,1.0
47.19,200.0111,1.0,1.0,1.0
47.2,191.4833,1.0,1.0,1.0
47.21,230.4944,1.0,1.0,1.0
47.22,236.5167,1.0,1.0,1.0
47.23,322.9778,1.0,1.0,1.0
47.24,257.5056,1.0,1.0,1.0
47.25,246.5167,1.0,1.0,1.0
47.26,270.4833,1.0,1.0,1.0
47.27,231.4944,1.0,1.0,1.0
47.28,256.0,1.0,1.0,1.0
47.29,250.0111,1.0,1.0,1.0
47.3,283.4944,1.0,1.0,1.0
47.31,303.0,1.0,1.0,1.0
47.32,291.4944,1.0,1.0,1.0
47.33,308.0,1.0,1.0,1.0
47.34,268.0,1.0,1.0,1.0
47.35,267.9778,1.0,1.0,1.0
47.36,252.0444,1.0,1.0,1.0
47.37,264.9778,1.0,1.0,1.0
47.38,220.5167,1.0,1.0,1.0
47.39,247.9889,1.0,1.0,1.0
47.4,241.4944,1.0,1.0,1.0
47.41,256.5278,1.0,1.0,1.0
47.42,240.4833,1.0,1.0,1.0
47.43,234.0111,1.0,1.0,1.0
47.44,242.4833,1.0,1.0,1.0
47.45,246.4833,1.0,1.0,1.0
47.46,218.0333,1.0,1.0,1.0
47.47,221.4833,1.0,1.0,1.0
47.48,234.5056,1.0,1.0,1.0
47.49,217.5056,1.0,1.0,1.0
47.5,206.9889,1.0,1.0,1.0
47.51,179.5167,1.0,1.0,1.0
47.52,201.4944,1.0,1.0,1.0
47.53,189.0,1.0,1.0,1.0
47.54,203.0,1.0,1.0,1.0
47.55,179.4833,1.0,1.0,1.0
47.56,214.0,1.0,1.0,1.0
47.57,175.5167,1.0,1.0,1.0
47.58,146.4944,1.0,1.0,1.0
47.59,171.5056,1.0,1.0,1.0
47.6,159.4833,1.0,1.0,1.0
47.61,145.0333,1.0,1.0,1.0
47.62,147.9889,1.0,1.0,1.0
47.63,144.5056,1.0,1.0,1.0
47.64,151.0,1.0,1.0,1.0
47.65,152.4944,1.0,1.0,1.0
47.66,173.4944,1.0,1.0,1.0
47.67,161.0,1.0,1.0,1.0
47.68,150.4833,1.0,1.0,1.0
47.69,189.5167,1.0,1.0,1.0
47.7,151.9889,1.0,1.0,1.0
47.71,184.0111,1.0,1.0,1.0
47.72,152.0,1.0,1.0,1.0
47.73,185.5056,1.0,1.0,1.0
47.74,178.4944,1.0,1.0,1.0
47.75,176.4833,1.0,1.0,1.0
47.76,219.5167,1.0,1.0,1.0
47.77,221.9889,1.0,1.0,1.0
47.78,225.4833,1.0,1.0,1.0
47.79,221.5056,1.0,1.0,1.0
47.8,244.5278,1.0,1.0,1.0
47.81,239.0,1.0,1.0,1.0
47.82,235.4944,1.0,1.0,1.0
47.83,218.4944,1.0,1.0,1.0
47.84,232.9778,1.0,1.0,1.0
47.85,296.0111,1.0,1.0,1.0
47.86,297.4944,1.0,1.0,1.0
47.87,324.5056,1.0,1.0,1.0
47.88,299.5056,1.0,1.0,1.0
47.89,310.9778,1.0,1.0,1.0
47.9,343.5167,1.0,1.0,1.0
47.91,369.4944,1.0,1.0,1.0
47.92,358.0111,1.0,1.0,1.0
47.93,361.4944,1.0,1.0,1.0
47.94,412.4944,1.0,1.0,1.0
47.95,393.9889,1.0,1.0,1.0
47.96,429.0,1.0,1.0,1.0
47.97,454.0,1.0,1.0,1.0
47.98,462.4944,1.0,1.0,1.0
47.99,454.4833,1.0,1.0,1.0
48.0,484.5056,1.0,1.0,1.0
48.01,539.0333,1.0,1.0,1.0
48.02,509.9667,1.0,1.0,1.0
48.03,538.0111,1.0,1.0,1.0
48.04,542.9778,1.0,1.0,1.0
48.05,561.0222,1.0,1.0,1.0
48.06,596.9889,1.0,1.0,1.0
48.07,652.9778,1.0,1.0,1.0
48.08,617.0333,1.0,1.0,1.0
48.09,686.0,1.0,1.0,1.0
48.1,711.5167,1.0,1.0,1.0
48.11,685.4278,1.0,1.0,1.0
48.12,668.0444,1.0,1.0,1.0
48.13,712.9889,1.0,1.0,1.0
48.14,734.9889,1.0,1.0,1.0
48.15,794.5278,1.0,1.0,1.0
48.16,804.9667,1.0,1.0,1.0
48.17,903.4833,1.0,1.0,1.0
48.18,943.4278,1.0,1.0,1.0
48.19,984.1111,1.0,1.0,1.0
48.2,974.4722,1.0,1.0,1.0
48.21,1077.97,1.0,1.0,1.0
48.22,1086.51,1.0,1.0,1.0
48.23,1174.99,1.0,1.0,1.0
48.24,1243.48,1.0,1.0,1.0
48.25,1421.49,1.0,1.0,1.0
48.26,1494.04,1.0,1.0,1.0
48.27,1625.43,1.0,1.0,1.0
48.28,1740.99,1.0,1.0,1.0
48.29,1894.01,1.0,1.0,1.0
48.3,2092.97,1.0,1.0,1.0
48.31,2377.45,1.0,1.0,1.0
48.32,2527.57,1.0,1.0,1.0
48.33,2953.811,1.0,1.0,1.0
48.34,3458.99,1.0,1.0,1.0
48.35,4006.86,1.0,1.0,1.0
48.36,4723.99,1.0,1.0,1.0
48.37,5680.89,1.0,1.0,1.0
48.38,6938.79,1.0,1.0,1.0
48.39,8512.86,1.0,1.0,1.0
48.4,11428.1,1.0,1.0,1.0
48.41,16567.0,1.0,1.0,1.0
48.42,32068.5,1.0,1.0,1.0
48.43,75394.6,1.0,1.0,1.0
48.44,161734,1.0,1.0,1.0
48.45,258674.875,1.0,1.0,1.0
48.46,397159,1.0,1.0,1.0
48.47,664628.875,1.0,1.0,1.0
48.48,1276837.75,1.0,1.0,1.0
48.49,2843726.5,1.0,1.0,1.0
48.5,5751971.5,1.0,1.0,1.0
48.51,7082459.0,1.0,1.0,1.0
48.52,4578938.0,1.0,1.0,1.0
48.53,2090137.5,1.0,1.0,1.0
48.54,1045023.75,1.0,1.0,1.0
48.55,879895.25,1.0,1.0,1.0
48.56,772920,1.0,1.0,1.0
48.57,695220.0,1.0,1.0,1.0
48.58,663105,1.0,1.0,1.0
48.59,428017,1.0,1.0,1.0
48.6,170935,1.0,1.0,1.0
48.61,52173.1,1.0,1.0,1.0
48.62,22633.4,1.0,1.0,1.0
48.63,13330.5,1.0,1.0,1.0
48.64,9073.87,1.0,1.0,1.0
48.65,6818.71,1.0,1.0,1.0
48.66,5174.17,1.0,1.0,1.0
48.67,4133.99,1.0,1.0,1.0
48.68,3474.12,1.0,1.0,1.0
48.69,2831.08,1.0,1.0,1.0
48.7,2473.439,1.0,1.0,1.0
48.71,2090.09,1.0,1.0,1.0
48.72,1846.54,1.0,1.0,1.0
48.73,1645.0,1.0,1.0,1.0
48.74,1458.55,1.0,1.0,1.0
48.75,1264.49,1.0,1.0,1.0
48.76,1105.02,1.0,1.0,1.0
48.77,1040.02,1.0,1.0,1.0
48.78,923.5056,1.0,1.0,1.0
48.79,872.4944,1.0,1.0,1.0
48.8,809.5167,1.0,1.0,1.0
48.81,747.9333,1.0,1.0,1.0
48.82,649.0889,1.0,1.0,1.0
48.83,598.4833,1.0,1.0,1.0
48.84,626.5167,1.0,1.0,1.0
48.85,506.0444,1.0,1.0,1.0
48.86,440.0,1.0,1.0,1.0
48.87,456.4611,1.0,1.0,1.0
48.88,478.9778,1.0,1.0,1.0
48.89,435.0555,1.0,1.0,1.0
48.9,407.4722,1.0,1.0,1.0
48.91,371.0333,1.0,1.0,1.0
48.92,343.4944,1.0,1.0,1.0
48.93,327.9667,1.0,1.0,1.0
48.94,306.5167,1.0,1.0,1.0
48.95,298.0222,1.0,1.0,1.0
48.96,307.4944,1.0,1.0,1.0
48.97,271.5167,1.0,1.0,1.0
48.98,225.4611,1.0,1.0,1.0
48.99,248.5278,1.0,1.0,1.0
49.0,253.4833,1.0,1.0,1.0
49.01,207.4944,1.0,1.0,1.0
49.02,218.5056,1.0,1.0,1.0
49.03,192.0,1.0,1.0,1.0
49.04,157.0111,1.0,1.0,1.0
49.05,221.5056,1.0,1.0,1.0
49.06,142.9889,1.0,1.0,1.0
49.07,172.5056,1.0,1.0,1.0
49.08,143.0111,1.0,1.0,1.0
49.09,143.0,1.0,1.0,1.0
49.1,130.4944,1.0,1.0,1.0
49.11,129.0111,1.0,1.0,1.0
49.12,108.9778,1.0,1.0,1.0
49.13,108.0111,1.0,1.0,1.0
49.14,87.4944,1.0,1.0,1.0
49.15,137.0111,1.0,1.0,1.0
49.16,91.9889,1.0,1.0,1.0
49.17,120.5167,1.0,1.0,1.0
49.18,89.9889,1.0,1.0,1.0
49.19,71.0111,1.0,1.0,1.0
49.2,83.5056,1.0,1.0,1.0
49.21,100.4833,1.0,1.0,1.0
49.22,90.5056,1.0,1.0,1.0
49.23,74.0,1.0,1.0,1.0
49.24,69.4944,1.0,1.0,1.0
49.25,86.4944,1.0,1.0,1.0
49.26,66.0,1.0,1.0,1.0
49.27,95.0111,1.0,1.0,1.0
49.28,51.0,1.0,1.0,1.0
49.29,55.0111,1.0,1.0,1.0
49.3,60.9889,1.0,1.0,1.0
49.31,60.0111,1.0,1.0,1.0
49.32,75.4833,1.0,1.0,1.0
49.33,59.0111,1.0,1.0,1.0
49.34,57.5056,1.0,1.0,1.0
49.35,44.9889,1.0,1.0,1.0
49.36,48.5056,1.0,1.0,1.0
49.37,49.4944,1.0,1.0,1.0
49.38,46.5056,1.0,1.0,1.0
49.39,58.5056,1.0,1.0,1.0
49.4,48.0,1.0,1.0,1.0
49.41,30.4944,1.0,1.0,1.0
49.42,44.5056,1.0,1.0,1.0
49.43,36.4944,1.0,1.0,1.0
49.44,39.0,1.0,1.0,1.0
49.45,47.0,1.0,1.0,1.0
49.46,42.5056,1.0,1.0,1.0
49.47,43.4944,1.0,1.0,1.0
49.48,42.0,1.0,1.0,1.0
49.49,54.5056,1.0,1.0,1.0
49.5,46.9889,1.0,1.0,1.0
49.51,26.0111,1.0,1.0,1.0
49.52,56.0,1.0,1.0,1.0
49.53,38.0,1.0,1.0,1.0
49.54,24.0,1.0,1.0,1.0
49.55,71.9889,1.0,1.0,1.0
49.56,38.5056,1.0,1.0,1.0
49.57,32.0,1.0,1.0,1.0
49.58,45.5056,1.0,1.0,1.0
49.59,28.4944,1.0,1.0,1.0
49.6,57.0,1.0,1.0,1.0
49.61,36.4944,1.0,1.0,1.0
49.62,46.5056,1.0,1.0,1.0
49.63,46.5056,1.0,1.0,1.0
49.64,27.4944,1.0,1.0,1.0
49.65,46.0,1.0,1.0,1.0
49.66,34.4944,1.0,1.0,1.0
49.67,38.0111,1.0,1.0,1.0
49.68,36.0,1.0,1.0,1.0
49.69,30.4944,1.0,1.0,1.0
49.7,52.0,1.0,1.0,1.0
49.71,41.0,1.0,1.0,1.0
49.72,59.5056,1.0,1.0,1.0
49.73,42.4944,1.0,1.0,1.0
49.74,28.5056,1.0,1.0,1.0
49.75,23.4944,1.0,1.0,1.0
49.76,34.9889,1.0,1.0,1.0
49.77,48.0111,1.0,1.0,1.0
49.78,45.0,1.0,1.0,1.0
49.79,35.0,1.0,1.0,1.0
49.8,40.4944,1.0,1.0,1.0
49.81,33.0111,1.0,1.0,1.0
49.82,30.4833,1.0,1.0,1.0
49.83,35.5167,1.0,1.0,1.0
49.84,38.4944,1.0,1.0,1.0
49.85,27.5056,1.0,1.0,1.0
49.86,39.0,1.0,1.0,1.0
49.87,44.4944,1.0,1.0,1.0
49.88,27.9889,1.0,1.0,1.0
49.89,27.5167,1.0,1.0,1.0
49.9,31.9889,1.0,1.0,1.0
49.91,36.0111,1.0,1.0,1.0
49.92,41.4944,1.0,1.0,1.0
49.93,28.5056,1.0,1.0,1.0
49.94,32.4944,1.0,1.0,1.0
49.95,19.9889,1.0,1.0,1.0
49.96,30.5167,1.0,1.0,1.0
49.97,35.0,1.0,1.0,1.0
49.98,36.0,1.0,1.0,1.0
49.99,36.0,1.0,1.0,1.0
50.0,21.4944,1.0,1.0,1.0
50.01,35.0,1.0,1.0,1.0
50.02,22.5056,1.0,1.0,1.0
50.03,23.0,1.0,1.0,1.0
50.04,23.0,1.0,1.0,1.0
50.05,24.0,1.0,1.0,1.0
50.06,28.9889,1.0,1.0,1.0
50.07,35.0111,1.0,1.0,1.0
50.08,30.0,1.0,1.0,1.0
50.09,28.9889,1.0,1.0,1.0
50.1,25.0111,1.0,1.0,1.0
50.11,22.0,1.0,1.0,1.0
50.12,24.0,1.0,1.0,1.0
50.13,23.0,1.0,1.0,1.0
50.14,32.9889,1.0,1.0,1.0
50.15,21.0111,1.0,1.0,1.0
50.16,21.0,1.0,1.0,1.0
50.17,19.4944,1.0,1.0,1.0
50.18,22.5056,1.0,1.0,1.0
50.19,29.4944,1.0,1.0,1.0
50.2,19.5056,1.0,1.0,1.0
50.21,25.0,1.0,1.0,1.0
50.22,36.4944,1.0,1.0,1.0
50.23,22.5056,1.0,1.0,1.0
50.24,24.4944,1.0,1.0,1.0
50.25,26.5056,1.0,1.0,1.0
50.26,24.4944,1.0,1.0,1.0
50.27,42.5056,1.0,1.0,1.0
50.28,29.4833,1.0,1.0,1.0
50.29,31.0111,1.0,1.0,1.0
50.3,26.5056,1.0,1.0,1.0
50.31,22.0,1.0,1.0,1.0
50.32,33.4944,1.0,1.0,1.0
50.33,19.4944,1.0,1.0,1.0
50.34,22.5056,1.0,1.0,1.0
50.35,23.5056,1.0,1.0,1.0
50.36,31.0,1.0,1.0,1.0
50.37,24.4944,1.0,1.0,1.0
50.38,23.5056,1.0,1.0,1.0
50.39,17.9889,1.0,1.0,1.0
50.4,22.0111,1.0,1.0,1.0
50.41,27.0,1.0,1.0,1.0
50.42,20.0,1.0,1.0,1.0
50.43,27.0,1.0,1.0,1.0
50.44,24.0,1.0,1.0,1.0
50.45,41.4944,1.0,1.0,1.0
50.46,20.5056,1.0,1.0,1.0
50.47,29.4944,1.0,1.0,1.0
50.48,30.5056,1.0,1.0,1.0
50.49,24.0,1.0,1.0,1.0
50.5,26.4944,1.0,1.0,1.0
50.51,14.0,1.0,1.0,1.0
50.52,12.5056,1.0,1.0,1.0
50.53,26.0,1.0,1.0,1.0
50.54,19.0,1.0,1.0,1.0
50.55,31.9889,1.0,1.0,1.0
50.56,33.5056,1.0,1.0,1.0
50.57,18.5056,1.0,1.0,1.0
50.58,21.0,1.0,1.0,1.0
50.59,31.0,1.0,1.0,1.0
50.6,22.0,1.0,1.0,1.0
50.61,22.4944,1.0,1.0,1.0
50.62,28.0,1.0,1.0,1.0
50.63,14.4944,1.0,1.0,1.0
50.64,17.0111,1.0,1.0,1.0
50.65,24.0,1.0,1.0,1.0
50.66,27.4944,1.0,1.0,1.0
50.67,24.0,1.0,1.0,1.0
50.68,20.5056,1.0,1.0,1.0
50.69,15.0,1.0,1.0,1.0
50.7,18.0,1.0,1.0,1.0
50.71,16.4944,1.0,1.0,1.0
50.72,31.5056,1.0,1.0,1.0
50.73,23.0,1.0,1.0,1.0
50.74,13.0,1.0,1.0,1.0
50.75,18.0,1.0,1.0,1.0
50.76,24.0,1.0,1.0,1.0
50.77,19.0,1.0,1.0,1.0
50.78,12.0,1.0,1.0,1.0
50.79,8.0,1.0,1.0,1.0
50.8,17.0,1.0,1.0,1.0
50.81,17.4944,1.0,1.0,1.0
50.82,18.5056,1.0,1.0,1.0
50.83,19.0,1.0,1.0,1.0
50.84,23.0,1.0,1.0,1.0
50.85,20.0,1.0,1.0,1.0
50.86,17.0,1.0,1.0,1.0
50.87,23.0,1.0,1.0,1.0
50.88,22.0,1.0,1.0,1.0
50.89,16.9889,1.0,1.0,1.0
50.9,19.0111,1.0,1.0,1.0
50.91,23.0,1.0,1.0,1.0
50.92,24.9889,1.0,1.0,1.0
50.93,22.5056,1.0,1.0,1.0
50.94,31.4944,1.0,1.0,1.0
50.95,31.5056,1.0,1.0,1.0
50.96,17.0,1.0,1.0,1.0
50.97,18.5056,1.0,1.0,1.0
50.98,16.0,1.0,1.0,1.0
50.99,15.0,1.0,1.0,1.0
51.0,32.0,1.0,1.0,1.0
51.01,20.0,1.0,1.0,1.0
51.02,28.0,1.0,1.0,1.0
51.03,18.9889,1.0,1.0,1.0
51.04,24.0111,1.0,1.0,1.0
51.05,24.4944,1.0,1.0,1.0
51.06,23.5056,1.0,1.0,1.0
51.07,23.9889,1.0,1.0,1.0
51.08,20.0111,1.0,1.0,1.0
51.09,24.0,1.0,1.0,1.0
51.1,20.0,1.0,1.0,1.0
51.11,25.0,1.0,1.0,1.0
51.12,11.0,1.0,1.0,1.0
51.13,18.0,1.0,1.0,1.0
51.14,7.4944,1.0,1.0,1.0
51.15,18.0,1.0,1.0,1.0
51.16,18.5056,1.0,1.0,1.0
51.17,5.0,1.0,1.0,1.0
51.18,32.0,1.0,1.0,1.0
51.19,21.0,1.0,1.0,1.0
51.2,22.0,1.0,1.0,1.0
51.21,22.4944,1.0,1.0,1.0
51.22,21.4833,1.0,1.0,1.0
51.23,21.0222,1.0,1.0,1.0
51.24,17.0,1.0,1.0,1.0
51.25,26.0,1.0,1.0,1.0
51.26,5.4944,1.0,1.0,1.0
51.27,39.5056,1.0,1.0,1.0
51.28,21.0,1.0,1.0,1.0
51.29,12.0,1.0,1.0,1.0
51.3,33.9889,1.0,1.0,1.0
51.31,21.0111,1.0,1.0,1.0
51.32,31.4944,1.0,1.0,1.0
51.33,30.5056,1.0,1.0,1.0
51.34,18.0,1.0,1.0,1.0
51.35,8.4944,1.0,1.0,1.0
51.36,11.5056,1.0,1.0,1.0
51.37,17.4944,1.0,1.0,1.0
51.38,28.5056,1.0,1.0,1.0
51.39,24.4944,1.0,1.0,1.0
51.4,23.4944,1.0,1.0,1.0
51.41,28.5056,1.0,1.0,1.0
51.42,12.4944,1.0,1.0,1.0
51.43,9.0111,1.0,1.0,1.0
51.44,23.4944,1.0,1.0,1.0
51.45,15.0,1.0,1.0,1.0
51.46,18.5056,1.0,1.0,1.0
51.47,30.0,1.0,1.0,1.0
51.48,21.0,1.0,1.0,1.0
51.49,18.0,1.0,1.0,1.0
51.5,9.0,1.0,1.0,1.0
51.51,25.0,1.0,1.0,1.0
51.52,23.9889,1.0,1.0,1.0
51.53,26.0111,1.0,1.0,1.0
51.54,20.4944,1.0,1.0,1.0
51.55,24.0,1.0,1.0,1.0
51.56,20.0,1.0,1.0,1.0
51.57,36.0,1.0,1.0,1.0
51.58,16.5056,1.0,1.0,1.0
51.59,26.0,1.0,1.0,1.0
51.6,14.4944,1.0,1.0,1.0
51.61,10.5056,1.0,1.0,1.0
51.62,31.0,1.0,1.0,1.0
51.63,14.0,1.0,1.0,1.0
51.64,16.0,1.0,1.0,1.0
51.65,6.0,1.0,1.0,1.0
51.66,18.0,1.0,1.0,1.0
51.67,20.4944,1.0,1.0,1.0
51.68,18.5056,1.0,1.0,1.0
51.69,23.4944,1.0,1.0,1.0
51.7,24.5056,1.0,1.0,1.0
51.71,20.0,1.0,1.0,1.0
51.72,19.0,1.0,1.0,1.0
51.73,26.4944,1.0,1.0,1.0
51.74,21.5056,1.0,1.0,1.0
51.75,15.0,1.0,1.0,1.0
51.76,22.9889,1.0,1.0,1.0
51.77,38.5056,1.0,1.0,1.0
51.78,15.5056,1.0,1.0,1.0
51.79,24.0,1.0,1.0,1.0
51.8,16.9889,1.0,1.0,1.0
51.81,18.0111,1.0,1.0,1.0
51.82,24.4944,1.0,1.0,1.0
51.83,22.0,1.0,1.0,1.0
51.84,11.5056,1.0,1.0,1.0
51.85,9.0,1.0,1.0,1.0
51.86,16.0,1.0,1.0,1.0
51.87,15.0,1.0,1.0,1.0
51.88,17.9889,1.0,1.0,1.0
51.89,18.0111,1.0,1.0,1.0
51.9,7.0,1.0,1.0,1.0
51.91,16.9889,1.0,1.0,1.0
51.92,18.0111,1.0,1.0,1.0
51.93,19.0,1.0,1.0,1.0
51.94,13.0,1.0,1.0,1.0
51.95,21.0,1.0,1.0,1.0
51.96,17.0,1.0,1.0,1.0
51.97,13.0,1.0,1.0,1.0
51.98,9.4944,1.0,1.0,1.0
51.99,24.5056,1.0,1.0,1.0
52.0,20.0,1.0,1.0,1.0