File: XRD:XRR/LCO/22157a_LCOL/22157a_LCOL_XRD.csv
#twotheta, yobs, ycal, bkg, diff
42.0,28.0,1.0,1.0,1.0
42.01,30.0,1.0,1.0,1.0
42.02,26.0,1.0,1.0,1.0
42.03,22.4944,1.0,1.0,1.0
42.04,12.5056,1.0,1.0,1.0
42.05,25.4944,1.0,1.0,1.0
42.06,28.0,1.0,1.0,1.0
42.07,20.5056,1.0,1.0,1.0
42.08,21.0,1.0,1.0,1.0
42.09,24.0,1.0,1.0,1.0
42.1,13.4944,1.0,1.0,1.0
42.11,23.0,1.0,1.0,1.0
42.12,24.5056,1.0,1.0,1.0
42.13,4.0,1.0,1.0,1.0
42.14,18.4944,1.0,1.0,1.0
42.15,7.5056,1.0,1.0,1.0
42.16,23.4944,1.0,1.0,1.0
42.17,29.5056,1.0,1.0,1.0
42.18,17.0,1.0,1.0,1.0
42.19,11.4944,1.0,1.0,1.0
42.2,31.0,1.0,1.0,1.0
42.21,25.0,1.0,1.0,1.0
42.22,28.0,1.0,1.0,1.0
42.23,21.5056,1.0,1.0,1.0
42.24,29.0,1.0,1.0,1.0
42.25,19.9889,1.0,1.0,1.0
42.26,11.5056,1.0,1.0,1.0
42.27,21.5056,1.0,1.0,1.0
42.28,19.0,1.0,1.0,1.0
42.29,22.0,1.0,1.0,1.0
42.3,33.0,1.0,1.0,1.0
42.31,19.0,1.0,1.0,1.0
42.32,24.9889,1.0,1.0,1.0
42.33,22.0111,1.0,1.0,1.0
42.34,35.0,1.0,1.0,1.0
42.35,26.4944,1.0,1.0,1.0
42.36,39.0,1.0,1.0,1.0
42.37,27.0,1.0,1.0,1.0
42.38,32.0,1.0,1.0,1.0
42.39,41.5056,1.0,1.0,1.0
42.4,30.9889,1.0,1.0,1.0
42.41,43.0111,1.0,1.0,1.0
42.42,30.0,1.0,1.0,1.0
42.43,56.4944,1.0,1.0,1.0
42.44,38.5056,1.0,1.0,1.0
42.45,40.4944,1.0,1.0,1.0
42.46,37.5056,1.0,1.0,1.0
42.47,33.4944,1.0,1.0,1.0
42.48,33.5056,1.0,1.0,1.0
42.49,37.4944,1.0,1.0,1.0
42.5,34.5056,1.0,1.0,1.0
42.51,48.0,1.0,1.0,1.0
42.52,44.4944,1.0,1.0,1.0
42.53,55.0,1.0,1.0,1.0
42.54,43.0,1.0,1.0,1.0
42.55,42.9889,1.0,1.0,1.0
42.56,38.5167,1.0,1.0,1.0
42.57,24.4944,1.0,1.0,1.0
42.58,41.5056,1.0,1.0,1.0
42.59,28.0,1.0,1.0,1.0
42.6,39.0,1.0,1.0,1.0
42.61,48.4944,1.0,1.0,1.0
42.62,36.5056,1.0,1.0,1.0
42.63,26.4944,1.0,1.0,1.0
42.64,22.0,1.0,1.0,1.0
42.65,42.0,1.0,1.0,1.0
42.66,49.4944,1.0,1.0,1.0
42.67,37.0111,1.0,1.0,1.0
42.68,20.0,1.0,1.0,1.0
42.69,26.0,1.0,1.0,1.0
42.7,41.0,1.0,1.0,1.0
42.71,17.4944,1.0,1.0,1.0
42.72,45.5056,1.0,1.0,1.0
42.73,22.0,1.0,1.0,1.0
42.74,21.0,1.0,1.0,1.0
42.75,32.4944,1.0,1.0,1.0
42.76,29.5056,1.0,1.0,1.0
42.77,23.0,1.0,1.0,1.0
42.78,17.9889,1.0,1.0,1.0
42.79,29.0111,1.0,1.0,1.0
42.8,14.4944,1.0,1.0,1.0
42.81,25.5056,1.0,1.0,1.0
42.82,42.0,1.0,1.0,1.0
42.83,13.0,1.0,1.0,1.0
42.84,30.0,1.0,1.0,1.0
42.85,19.0,1.0,1.0,1.0
42.86,22.4944,1.0,1.0,1.0
42.87,38.5056,1.0,1.0,1.0
42.88,31.0,1.0,1.0,1.0
42.89,21.9889,1.0,1.0,1.0
42.9,32.0111,1.0,1.0,1.0
42.91,12.0,1.0,1.0,1.0
42.92,17.0,1.0,1.0,1.0
42.93,9.0,1.0,1.0,1.0
42.94,21.4944,1.0,1.0,1.0
42.95,36.0,1.0,1.0,1.0
42.96,21.5056,1.0,1.0,1.0
42.97,29.0,1.0,1.0,1.0
42.98,20.0,1.0,1.0,1.0
42.99,27.4944,1.0,1.0,1.0
43.0,26.5056,1.0,1.0,1.0
43.01,23.4944,1.0,1.0,1.0
43.02,20.5056,1.0,1.0,1.0
43.03,56.0,1.0,1.0,1.0
43.04,54.0,1.0,1.0,1.0
43.05,34.4833,1.0,1.0,1.0
43.06,31.5167,1.0,1.0,1.0
43.07,47.0,1.0,1.0,1.0
43.08,42.0,1.0,1.0,1.0
43.09,39.0,1.0,1.0,1.0
43.1,55.0,1.0,1.0,1.0
43.11,42.0,1.0,1.0,1.0
43.12,64.9889,1.0,1.0,1.0
43.13,67.5056,1.0,1.0,1.0
43.14,38.5056,1.0,1.0,1.0
43.15,51.0,1.0,1.0,1.0
43.16,56.4833,1.0,1.0,1.0
43.17,55.5167,1.0,1.0,1.0
43.18,63.0,1.0,1.0,1.0
43.19,51.0,1.0,1.0,1.0
43.2,51.4944,1.0,1.0,1.0
43.21,52.9889,1.0,1.0,1.0
43.22,61.5056,1.0,1.0,1.0
43.23,58.5056,1.0,1.0,1.0
43.24,60.0,1.0,1.0,1.0
43.25,43.5056,1.0,1.0,1.0
43.26,64.0,1.0,1.0,1.0
43.27,72.4944,1.0,1.0,1.0
43.28,81.4944,1.0,1.0,1.0
43.29,75.5056,1.0,1.0,1.0
43.3,87.4944,1.0,1.0,1.0
43.31,79.4944,1.0,1.0,1.0
43.32,71.0,1.0,1.0,1.0
43.33,81.5167,1.0,1.0,1.0
43.34,67.0,1.0,1.0,1.0
43.35,82.4944,1.0,1.0,1.0
43.36,82.0,1.0,1.0,1.0
43.37,53.5056,1.0,1.0,1.0
43.38,61.4944,1.0,1.0,1.0
43.39,63.0,1.0,1.0,1.0
43.4,64.5056,1.0,1.0,1.0
43.41,53.9778,1.0,1.0,1.0
43.42,38.5167,1.0,1.0,1.0
43.43,75.0,1.0,1.0,1.0
43.44,48.5056,1.0,1.0,1.0
43.45,46.0,1.0,1.0,1.0
43.46,28.0,1.0,1.0,1.0
43.47,50.4944,1.0,1.0,1.0
43.48,62.5056,1.0,1.0,1.0
43.49,56.0,1.0,1.0,1.0
43.5,45.4944,1.0,1.0,1.0
43.51,28.5056,1.0,1.0,1.0
43.52,25.0,1.0,1.0,1.0
43.53,29.4944,1.0,1.0,1.0
43.54,30.0,1.0,1.0,1.0
43.55,19.4944,1.0,1.0,1.0
43.56,35.0111,1.0,1.0,1.0
43.57,34.0,1.0,1.0,1.0
43.58,43.0,1.0,1.0,1.0
43.59,28.0,1.0,1.0,1.0
43.6,25.0,1.0,1.0,1.0
43.61,26.0,1.0,1.0,1.0
43.62,43.0,1.0,1.0,1.0
43.63,18.0,1.0,1.0,1.0
43.64,25.9889,1.0,1.0,1.0
43.65,21.5056,1.0,1.0,1.0
43.66,30.4944,1.0,1.0,1.0
43.67,38.5056,1.0,1.0,1.0
43.68,34.5056,1.0,1.0,1.0
43.69,15.0,1.0,1.0,1.0
43.7,34.9889,1.0,1.0,1.0
43.71,48.0111,1.0,1.0,1.0
43.72,42.9889,1.0,1.0,1.0
43.73,41.0111,1.0,1.0,1.0
43.74,47.0,1.0,1.0,1.0
43.75,44.4944,1.0,1.0,1.0
43.76,51.0,1.0,1.0,1.0
43.77,52.5056,1.0,1.0,1.0
43.78,58.9778,1.0,1.0,1.0
43.79,72.0,1.0,1.0,1.0
43.8,65.5167,1.0,1.0,1.0
43.81,62.0,1.0,1.0,1.0
43.82,63.0,1.0,1.0,1.0
43.83,80.0,1.0,1.0,1.0
43.84,73.4944,1.0,1.0,1.0
43.85,85.0,1.0,1.0,1.0
43.86,84.4944,1.0,1.0,1.0
43.87,121.0111,1.0,1.0,1.0
43.88,113.4833,1.0,1.0,1.0
43.89,82.0222,1.0,1.0,1.0
43.9,101.9778,1.0,1.0,1.0
43.91,127.5167,1.0,1.0,1.0
43.92,108.4944,1.0,1.0,1.0
43.93,99.4944,1.0,1.0,1.0
43.94,165.4944,1.0,1.0,1.0
43.95,118.0111,1.0,1.0,1.0
43.96,133.0,1.0,1.0,1.0
43.97,119.5056,1.0,1.0,1.0
43.98,140.9889,1.0,1.0,1.0
43.99,128.0,1.0,1.0,1.0
44.0,158.0,1.0,1.0,1.0
44.01,144.0,1.0,1.0,1.0
44.02,176.5056,1.0,1.0,1.0
44.03,134.4944,1.0,1.0,1.0
44.04,165.0111,1.0,1.0,1.0
44.05,148.9889,1.0,1.0,1.0
44.06,160.4944,1.0,1.0,1.0
44.07,160.9778,1.0,1.0,1.0
44.08,167.0333,1.0,1.0,1.0
44.09,130.4944,1.0,1.0,1.0
44.1,137.5056,1.0,1.0,1.0
44.11,178.4833,1.0,1.0,1.0
44.12,148.5167,1.0,1.0,1.0
44.13,111.5056,1.0,1.0,1.0
44.14,133.4833,1.0,1.0,1.0
44.15,113.5167,1.0,1.0,1.0
44.16,138.4944,1.0,1.0,1.0
44.17,118.4833,1.0,1.0,1.0
44.18,130.5278,1.0,1.0,1.0
44.19,102.9889,1.0,1.0,1.0
44.2,103.9889,1.0,1.0,1.0
44.21,94.0111,1.0,1.0,1.0
44.22,102.5056,1.0,1.0,1.0
44.23,85.5056,1.0,1.0,1.0
44.24,78.9889,1.0,1.0,1.0
44.25,67.5056,1.0,1.0,1.0
44.26,52.5056,1.0,1.0,1.0
44.27,79.0,1.0,1.0,1.0
44.28,55.0,1.0,1.0,1.0
44.29,63.4944,1.0,1.0,1.0
44.3,50.0,1.0,1.0,1.0
44.31,66.0,1.0,1.0,1.0
44.32,41.0,1.0,1.0,1.0
44.33,44.5056,1.0,1.0,1.0
44.34,38.4944,1.0,1.0,1.0
44.35,50.4944,1.0,1.0,1.0
44.36,38.5056,1.0,1.0,1.0
44.37,32.0,1.0,1.0,1.0
44.38,22.5056,1.0,1.0,1.0
44.39,32.0,1.0,1.0,1.0
44.4,31.4944,1.0,1.0,1.0
44.41,46.4944,1.0,1.0,1.0
44.42,55.5056,1.0,1.0,1.0
44.43,67.0,1.0,1.0,1.0
44.44,71.0,1.0,1.0,1.0
44.45,55.5056,1.0,1.0,1.0
44.46,69.4833,1.0,1.0,1.0
44.47,35.5167,1.0,1.0,1.0
44.48,67.4944,1.0,1.0,1.0
44.49,84.4833,1.0,1.0,1.0
44.5,102.4944,1.0,1.0,1.0
44.51,146.0222,1.0,1.0,1.0
44.52,125.4944,1.0,1.0,1.0
44.53,140.5056,1.0,1.0,1.0
44.54,153.4944,1.0,1.0,1.0
44.55,162.9889,1.0,1.0,1.0
44.56,167.9889,1.0,1.0,1.0
44.57,198.0222,1.0,1.0,1.0
44.58,224.9889,1.0,1.0,1.0
44.59,221.4833,1.0,1.0,1.0
44.6,244.5167,1.0,1.0,1.0
44.61,315.0,1.0,1.0,1.0
44.62,306.9889,1.0,1.0,1.0
44.63,312.0,1.0,1.0,1.0
44.64,319.0111,1.0,1.0,1.0
44.65,324.4611,1.0,1.0,1.0
44.66,383.0333,1.0,1.0,1.0
44.67,358.5056,1.0,1.0,1.0
44.68,381.4833,1.0,1.0,1.0
44.69,415.9778,1.0,1.0,1.0
44.7,435.0,1.0,1.0,1.0
44.71,436.0222,1.0,1.0,1.0
44.72,439.4833,1.0,1.0,1.0
44.73,427.9889,1.0,1.0,1.0
44.74,466.0111,1.0,1.0,1.0
44.75,468.0333,1.0,1.0,1.0
44.76,530.45,1.0,1.0,1.0
44.77,480.0222,1.0,1.0,1.0
44.78,492.5056,1.0,1.0,1.0
44.79,502.4833,1.0,1.0,1.0
44.8,509.0333,1.0,1.0,1.0
44.81,452.9445,1.0,1.0,1.0
44.82,487.0444,1.0,1.0,1.0
44.83,475.45,1.0,1.0,1.0
44.84,528.0333,1.0,1.0,1.0
44.85,454.5278,1.0,1.0,1.0
44.86,463.45,1.0,1.0,1.0
44.87,444.0555,1.0,1.0,1.0
44.88,438.4722,1.0,1.0,1.0
44.89,484.0,1.0,1.0,1.0
44.9,433.4944,1.0,1.0,1.0
44.91,435.0111,1.0,1.0,1.0
44.92,393.9778,1.0,1.0,1.0
44.93,387.0333,1.0,1.0,1.0
44.94,369.4944,1.0,1.0,1.0
44.95,342.0,1.0,1.0,1.0
44.96,329.0111,1.0,1.0,1.0
44.97,293.5056,1.0,1.0,1.0
44.98,302.4722,1.0,1.0,1.0
44.99,267.0111,1.0,1.0,1.0
45.0,221.0,1.0,1.0,1.0
45.01,168.5278,1.0,1.0,1.0
45.02,200.5056,1.0,1.0,1.0
45.03,143.4833,1.0,1.0,1.0
45.04,178.5056,1.0,1.0,1.0
45.05,166.0,1.0,1.0,1.0
45.06,118.5167,1.0,1.0,1.0
45.07,98.9889,1.0,1.0,1.0
45.08,107.9889,1.0,1.0,1.0
45.09,90.0222,1.0,1.0,1.0
45.1,75.9889,1.0,1.0,1.0
45.11,71.5056,1.0,1.0,1.0
45.12,80.5056,1.0,1.0,1.0
45.13,72.4833,1.0,1.0,1.0
45.14,120.5056,1.0,1.0,1.0
45.15,105.5056,1.0,1.0,1.0
45.16,153.4944,1.0,1.0,1.0
45.17,197.4944,1.0,1.0,1.0
45.18,177.5056,1.0,1.0,1.0
45.19,241.0,1.0,1.0,1.0
45.2,257.4722,1.0,1.0,1.0
45.21,293.0222,1.0,1.0,1.0
45.22,361.4722,1.0,1.0,1.0
45.23,452.0111,1.0,1.0,1.0
45.24,544.5056,1.0,1.0,1.0
45.25,582.9667,1.0,1.0,1.0
45.26,721.4722,1.0,1.0,1.0
45.27,788.9889,1.0,1.0,1.0
45.28,915.9667,1.0,1.0,1.0
45.29,1065.51,1.0,1.0,1.0
45.3,1195.47,1.0,1.0,1.0
45.31,1251.51,1.0,1.0,1.0
45.32,1447.93,1.0,1.0,1.0
45.33,1648.01,1.0,1.0,1.0
45.34,1750.51,1.0,1.0,1.0
45.35,2012.87,1.0,1.0,1.0
45.36,2201.1,1.0,1.0,1.0
45.37,2294.46,1.0,1.0,1.0
45.38,2539.48,1.0,1.0,1.0
45.39,2831.96,1.0,1.0,1.0
45.4,3031.46,1.0,1.0,1.0
45.41,3322.55,1.0,1.0,1.0
45.42,3568.41,1.0,1.0,1.0
45.43,3820.01,1.0,1.0,1.0
45.44,4056.39,1.0,1.0,1.0
45.45,4349.04,1.0,1.0,1.0
45.46,4608.89,1.0,1.0,1.0
45.47,5062.93,1.0,1.0,1.0
45.48,5306.52,1.0,1.0,1.0
45.49,5511.51,1.0,1.0,1.0
45.5,6017.98,1.0,1.0,1.0
45.51,6154.9,1.0,1.0,1.0
45.52,6716.42,1.0,1.0,1.0
45.53,6902.04,1.0,1.0,1.0
45.54,7191.32,1.0,1.0,1.0
45.55,7705.16,1.0,1.0,1.0
45.56,8036.47,1.0,1.0,1.0
45.57,8189.82,1.0,1.0,1.0
45.58,8783.51,1.0,1.0,1.0
45.59,8933.08,1.0,1.0,1.0
45.6,9436.96,1.0,1.0,1.0
45.61,9775.79,1.0,1.0,1.0
45.62,10120.1,1.0,1.0,1.0
45.63,10423.8,1.0,1.0,1.0
45.64,10793.5,1.0,1.0,1.0
45.65,11292.1,1.0,1.0,1.0
45.66,11458.5,1.0,1.0,1.0
45.67,12049.2,1.0,1.0,1.0
45.68,12131.2,1.0,1.0,1.0
45.69,12557.3,1.0,1.0,1.0
45.7,12950.1,1.0,1.0,1.0
45.71,13169,1.0,1.0,1.0
45.72,13385.4,1.0,1.0,1.0
45.73,13940.3,1.0,1.0,1.0
45.74,14244.9,1.0,1.0,1.0
45.75,14373,1.0,1.0,1.0
45.76,14416.5,1.0,1.0,1.0
45.77,15045.1,1.0,1.0,1.0
45.78,15235,1.0,1.0,1.0
45.79,15390.5,1.0,1.0,1.0
45.8,15775.4,1.0,1.0,1.0
45.81,15840.5,1.0,1.0,1.0
45.82,16035.4,1.0,1.0,1.0
45.83,16252.3,1.0,1.0,1.0
45.84,16270.8,1.0,1.0,1.0
45.85,16288.1,1.0,1.0,1.0
45.86,16660.8,1.0,1.0,1.0
45.87,16688.4,1.0,1.0,1.0
45.88,16765.5,1.0,1.0,1.0
45.89,16701.6,1.0,1.0,1.0
45.9,17111.6,1.0,1.0,1.0
45.91,16874,1.0,1.0,1.0
45.92,16891.7,1.0,1.0,1.0
45.93,16755.7,1.0,1.0,1.0
45.94,16563.9,1.0,1.0,1.0
45.95,16718.0,1.0,1.0,1.0
45.96,16650.2,1.0,1.0,1.0
45.97,16502,1.0,1.0,1.0
45.98,16514.416,1.0,1.0,1.0
45.99,16343.7,1.0,1.0,1.0
46.0,16561.8,1.0,1.0,1.0
46.01,16120.7,1.0,1.0,1.0
46.02,16127.3,1.0,1.0,1.0
46.03,15633.7,1.0,1.0,1.0
46.04,15386.3,1.0,1.0,1.0
46.05,15473.3,1.0,1.0,1.0
46.06,15166.9,1.0,1.0,1.0
46.07,14812.4,1.0,1.0,1.0
46.08,14373.5,1.0,1.0,1.0
46.09,14150.8,1.0,1.0,1.0
46.1,14010.5,1.0,1.0,1.0
46.11,13648.9,1.0,1.0,1.0
46.12,13210.6,1.0,1.0,1.0
46.13,13140.5,1.0,1.0,1.0
46.14,12541.583,1.0,1.0,1.0
46.15,12353.5,1.0,1.0,1.0
46.16,12161.4,1.0,1.0,1.0
46.17,11438.1,1.0,1.0,1.0
46.18,11181.4,1.0,1.0,1.0
46.19,10848.6,1.0,1.0,1.0
46.2,10498.1,1.0,1.0,1.0
46.21,10074.1,1.0,1.0,1.0
46.22,9797.53,1.0,1.0,1.0
46.23,9426.0,1.0,1.0,1.0
46.24,8820.19,1.0,1.0,1.0
46.25,8519.34,1.0,1.0,1.0
46.26,8172.53,1.0,1.0,1.0
46.27,7901.26,1.0,1.0,1.0
46.28,7522.28,1.0,1.0,1.0
46.29,7001.06,1.0,1.0,1.0
46.3,6749.09,1.0,1.0,1.0
46.31,6368.73,1.0,1.0,1.0
46.32,5919.98,1.0,1.0,1.0
46.33,5617.45,1.0,1.0,1.0
46.34,5373.49,1.0,1.0,1.0
46.35,4946.07,1.0,1.0,1.0
46.36,4711.02,1.0,1.0,1.0
46.37,4404.03,1.0,1.0,1.0
46.38,4011.561,1.0,1.0,1.0
46.39,3706.94,1.0,1.0,1.0
46.4,3618.67,1.0,1.0,1.0
46.41,3149.43,1.0,1.0,1.0
46.42,2955.61,1.0,1.0,1.0
46.43,2750.57,1.0,1.0,1.0
46.44,2445.47,1.0,1.0,1.0
46.45,2287.01,1.0,1.0,1.0
46.46,2091.97,1.0,1.0,1.0
46.47,1889.09,1.0,1.0,1.0
46.48,1670.99,1.0,1.0,1.0
46.49,1517.52,1.0,1.0,1.0
46.5,1360.49,1.0,1.0,1.0
46.51,1153.08,1.0,1.0,1.0
46.52,1064.47,1.0,1.0,1.0
46.53,951.0111,1.0,1.0,1.0
46.54,802.5167,1.0,1.0,1.0
46.55,699.55,1.0,1.0,1.0
46.56,617.4611,1.0,1.0,1.0
46.57,557.5056,1.0,1.0,1.0
46.58,509.5278,1.0,1.0,1.0
46.59,456.0222,1.0,1.0,1.0
46.6,418.5056,1.0,1.0,1.0
46.61,384.4944,1.0,1.0,1.0
46.62,348.4944,1.0,1.0,1.0
46.63,348.9667,1.0,1.0,1.0
46.64,352.0111,1.0,1.0,1.0
46.65,368.5056,1.0,1.0,1.0
46.66,367.9778,1.0,1.0,1.0
46.67,452.0111,1.0,1.0,1.0
46.68,442.5389,1.0,1.0,1.0
46.69,494.4722,1.0,1.0,1.0
46.7,535.4833,1.0,1.0,1.0
46.71,556.9667,1.0,1.0,1.0
46.72,619.5278,1.0,1.0,1.0
46.73,645.9889,1.0,1.0,1.0
46.74,703.4611,1.0,1.0,1.0
46.75,719.5389,1.0,1.0,1.0
46.76,874.9667,1.0,1.0,1.0
46.77,943.0,1.0,1.0,1.0
46.78,949.9778,1.0,1.0,1.0
46.79,1074.03,1.0,1.0,1.0
46.8,1118.94,1.0,1.0,1.0
46.81,1166.06,1.0,1.0,1.0
46.82,1239.93,1.0,1.0,1.0
46.83,1288.49,1.0,1.0,1.0
46.84,1413.53,1.0,1.0,1.0
46.85,1441.52,1.0,1.0,1.0
46.86,1513.94,1.0,1.0,1.0
46.87,1501.99,1.0,1.0,1.0
46.88,1542.97,1.0,1.0,1.0
46.89,1685.08,1.0,1.0,1.0
46.9,1752.46,1.0,1.0,1.0
46.91,1733.99,1.0,1.0,1.0
46.92,1819.97,1.0,1.0,1.0
46.93,1741.06,1.0,1.0,1.0
46.94,1880.46,1.0,1.0,1.0
46.95,1927.99,1.0,1.0,1.0
46.96,1874.54,1.0,1.0,1.0
46.97,1917.02,1.0,1.0,1.0
46.98,1921.43,1.0,1.0,1.0
46.99,1907.48,1.0,1.0,1.0
47.0,1881.53,1.0,1.0,1.0
47.01,1873.99,1.0,1.0,1.0
47.02,1975.55,1.0,1.0,1.0
47.03,1859.02,1.0,1.0,1.0
47.04,1839.44,1.0,1.0,1.0
47.05,1984.53,1.0,1.0,1.0
47.06,1811.02,1.0,1.0,1.0
47.07,1854.98,1.0,1.0,1.0
47.08,1809.04,1.0,1.0,1.0
47.09,1723.44,1.0,1.0,1.0
47.1,1696.57,1.0,1.0,1.0
47.11,1638.97,1.0,1.0,1.0
47.12,1679.9,1.0,1.0,1.0
47.13,1620.62,1.0,1.0,1.0
47.14,1512.46,1.0,1.0,1.0
47.15,1483.57,1.0,1.0,1.0
47.16,1511.99,1.0,1.0,1.0
47.17,1463.98,1.0,1.0,1.0
47.18,1342.52,1.0,1.0,1.0
47.19,1305.02,1.0,1.0,1.0
47.2,1329.96,1.0,1.0,1.0
47.21,1222.48,1.0,1.0,1.0
47.22,1180.57,1.0,1.0,1.0
47.23,1167.98,1.0,1.0,1.0
47.24,1156.53,1.0,1.0,1.0
47.25,1082.49,1.0,1.0,1.0
47.26,1020.99,1.0,1.0,1.0
47.27,980.4833,1.0,1.0,1.0
47.28,995.55,1.0,1.0,1.0
47.29,1007.01,1.0,1.0,1.0
47.3,965.9667,1.0,1.0,1.0
47.31,918.9889,1.0,1.0,1.0
47.32,861.0,1.0,1.0,1.0
47.33,939.5167,1.0,1.0,1.0
47.34,973.5056,1.0,1.0,1.0
47.35,917.9667,1.0,1.0,1.0
47.36,885.5278,1.0,1.0,1.0
47.37,893.0,1.0,1.0,1.0
47.38,864.0222,1.0,1.0,1.0
47.39,922.5167,1.0,1.0,1.0
47.4,1014.98,1.0,1.0,1.0
47.41,1076.97,1.0,1.0,1.0
47.42,1035.47,1.0,1.0,1.0
47.43,1110.53,1.0,1.0,1.0
47.44,1155.45,1.0,1.0,1.0
47.45,1250.04,1.0,1.0,1.0
47.46,1254.46,1.0,1.0,1.0
47.47,1340.06,1.0,1.0,1.0
47.48,1417.47,1.0,1.0,1.0
47.49,1531.48,1.0,1.0,1.0
47.5,1605.99,1.0,1.0,1.0
47.51,1633.48,1.0,1.0,1.0
47.52,1793.47,1.0,1.0,1.0
47.53,1959.47,1.0,1.0,1.0
47.54,2071.04,1.0,1.0,1.0
47.55,2121.96,1.0,1.0,1.0
47.56,2184.48,1.0,1.0,1.0
47.57,2437.439,1.0,1.0,1.0
47.58,2585.51,1.0,1.0,1.0
47.59,2754.03,1.0,1.0,1.0
47.6,2859.96,1.0,1.0,1.0
47.61,3049.47,1.0,1.0,1.0
47.62,3162.01,1.0,1.0,1.0
47.63,3472.89,1.0,1.0,1.0
47.64,3762.62,1.0,1.0,1.0
47.65,3848.97,1.0,1.0,1.0
47.66,4244.02,1.0,1.0,1.0
47.67,4371.41,1.0,1.0,1.0
47.68,4769.38,1.0,1.0,1.0
47.69,4778.87,1.0,1.0,1.0
47.7,5257.06,1.0,1.0,1.0
47.71,5657.94,1.0,1.0,1.0
47.72,6207.43,1.0,1.0,1.0
47.73,6648.439,1.0,1.0,1.0
47.74,7119.46,1.0,1.0,1.0
47.75,7681.96,1.0,1.0,1.0
47.76,8310.06,1.0,1.0,1.0
47.77,8907.26,1.0,1.0,1.0
47.78,9701.08,1.0,1.0,1.0
47.79,10735.2,1.0,1.0,1.0
47.8,12065.1,1.0,1.0,1.0
47.81,13247.3,1.0,1.0,1.0
47.82,14838.2,1.0,1.0,1.0
47.83,17150.416,1.0,1.0,1.0
47.84,19833.6,1.0,1.0,1.0
47.85,23575.5,1.0,1.0,1.0
47.86,28932.2,1.0,1.0,1.0
47.87,36754.6,1.0,1.0,1.0
47.88,48906.707,1.0,1.0,1.0
47.89,68150.9,1.0,1.0,1.0
47.9,101200,1.0,1.0,1.0
47.91,164458,1.0,1.0,1.0
47.92,293232,1.0,1.0,1.0
47.93,605021.625,1.0,1.0,1.0
47.94,1989721.75,1.0,1.0,1.0
47.95,11237441.0,1.0,1.0,1.0
47.96,12483457.0,1.0,1.0,1.0
47.97,15848658.0,1.0,1.0,1.0
47.98,20794890.0,1.0,1.0,1.0
47.99,9873393.0,1.0,1.0,1.0
48.0,3012843.0,1.0,1.0,1.0
48.01,990998,1.0,1.0,1.0
48.02,464328,1.0,1.0,1.0
48.03,261333,1.0,1.0,1.0
48.04,158866.375,1.0,1.0,1.0
48.05,104219,1.0,1.0,1.0
48.06,71857.8,1.0,1.0,1.0
48.07,51232.1,1.0,1.0,1.0
48.08,38070.9,1.0,1.0,1.0
48.09,29778.5,1.0,1.0,1.0
48.1,23308.8,1.0,1.0,1.0
48.11,18647.084,1.0,1.0,1.0
48.12,15204.3,1.0,1.0,1.0
48.13,12430.3,1.0,1.0,1.0
48.14,10710.6,1.0,1.0,1.0
48.15,9388.3,1.0,1.0,1.0
48.16,7986.0,1.0,1.0,1.0
48.17,7126.2,1.0,1.0,1.0
48.18,6264.0,1.0,1.0,1.0
48.19,5436.14,1.0,1.0,1.0
48.2,5071.08,1.0,1.0,1.0
48.21,4581.561,1.0,1.0,1.0
48.22,4144.55,1.0,1.0,1.0
48.23,3767.51,1.0,1.0,1.0
48.24,3386.53,1.0,1.0,1.0
48.25,3016.04,1.0,1.0,1.0
48.26,2919.49,1.0,1.0,1.0
48.27,2560.99,1.0,1.0,1.0
48.28,2350.11,1.0,1.0,1.0
48.29,2256.46,1.0,1.0,1.0
48.3,2077.97,1.0,1.0,1.0
48.31,1853.54,1.0,1.0,1.0
48.32,1706.0,1.0,1.0,1.0
48.33,1602.57,1.0,1.0,1.0
48.34,1447.46,1.0,1.0,1.0
48.35,1270.09,1.0,1.0,1.0
48.36,1145.94,1.0,1.0,1.0
48.37,1121.53,1.0,1.0,1.0
48.38,1052.52,1.0,1.0,1.0
48.39,944.5389,1.0,1.0,1.0
48.4,865.9778,1.0,1.0,1.0
48.41,815.55,1.0,1.0,1.0
48.42,774.45,1.0,1.0,1.0
48.43,702.5278,1.0,1.0,1.0
48.44,614.9889,1.0,1.0,1.0
48.45,605.0,1.0,1.0,1.0
48.46,545.5167,1.0,1.0,1.0
48.47,509.5056,1.0,1.0,1.0
48.48,437.4944,1.0,1.0,1.0
48.49,447.0333,1.0,1.0,1.0
48.5,437.4722,1.0,1.0,1.0
48.51,388.5167,1.0,1.0,1.0
48.52,351.0,1.0,1.0,1.0
48.53,354.5056,1.0,1.0,1.0
48.54,340.4833,1.0,1.0,1.0
48.55,337.5389,1.0,1.0,1.0
48.56,359.9556,1.0,1.0,1.0
48.57,303.0333,1.0,1.0,1.0
48.58,290.4944,1.0,1.0,1.0
48.59,263.5167,1.0,1.0,1.0
48.6,271.0,1.0,1.0,1.0
48.61,251.4833,1.0,1.0,1.0
48.62,278.4944,1.0,1.0,1.0
48.63,257.4944,1.0,1.0,1.0
48.64,246.5278,1.0,1.0,1.0
48.65,225.0,1.0,1.0,1.0
48.66,275.4611,1.0,1.0,1.0
48.67,262.5167,1.0,1.0,1.0
48.68,253.5056,1.0,1.0,1.0
48.69,261.0222,1.0,1.0,1.0
48.7,279.4722,1.0,1.0,1.0
48.71,251.0222,1.0,1.0,1.0
48.72,249.4944,1.0,1.0,1.0
48.73,272.0,1.0,1.0,1.0
48.74,232.0,1.0,1.0,1.0
48.75,280.9889,1.0,1.0,1.0
48.76,254.4944,1.0,1.0,1.0
48.77,222.5167,1.0,1.0,1.0
48.78,289.4944,1.0,1.0,1.0
48.79,249.0,1.0,1.0,1.0
48.8,236.0111,1.0,1.0,1.0
48.81,228.4833,1.0,1.0,1.0
48.82,243.5167,1.0,1.0,1.0
48.83,222.9556,1.0,1.0,1.0
48.84,262.5278,1.0,1.0,1.0
48.85,217.5056,1.0,1.0,1.0
48.86,247.0,1.0,1.0,1.0
48.87,250.0,1.0,1.0,1.0
48.88,227.5056,1.0,1.0,1.0
48.89,220.4944,1.0,1.0,1.0
48.9,176.9889,1.0,1.0,1.0
48.91,187.5278,1.0,1.0,1.0
48.92,211.4944,1.0,1.0,1.0
48.93,194.5167,1.0,1.0,1.0
48.94,173.4944,1.0,1.0,1.0
48.95,169.9889,1.0,1.0,1.0
48.96,177.4833,1.0,1.0,1.0
48.97,166.0333,1.0,1.0,1.0
48.98,182.9889,1.0,1.0,1.0
48.99,149.4833,1.0,1.0,1.0
49.0,169.5056,1.0,1.0,1.0
49.01,126.5167,1.0,1.0,1.0
49.02,151.4833,1.0,1.0,1.0
49.03,132.0111,1.0,1.0,1.0
49.04,121.0,1.0,1.0,1.0
49.05,142.4944,1.0,1.0,1.0
49.06,118.4833,1.0,1.0,1.0
49.07,104.0111,1.0,1.0,1.0
49.08,118.0222,1.0,1.0,1.0
49.09,105.9889,1.0,1.0,1.0
49.1,126.5056,1.0,1.0,1.0
49.11,90.5056,1.0,1.0,1.0
49.12,85.4944,1.0,1.0,1.0
49.13,71.0,1.0,1.0,1.0
49.14,93.9889,1.0,1.0,1.0
49.15,73.0,1.0,1.0,1.0
49.16,61.5056,1.0,1.0,1.0
49.17,82.0111,1.0,1.0,1.0
49.18,65.4944,1.0,1.0,1.0
49.19,51.0,1.0,1.0,1.0
49.2,35.5056,1.0,1.0,1.0
49.21,44.0,1.0,1.0,1.0
49.22,36.4944,1.0,1.0,1.0
49.23,34.4944,1.0,1.0,1.0
49.24,29.0111,1.0,1.0,1.0
49.25,44.4944,1.0,1.0,1.0
49.26,37.5056,1.0,1.0,1.0
49.27,53.0,1.0,1.0,1.0
49.28,25.4944,1.0,1.0,1.0
49.29,43.4944,1.0,1.0,1.0
49.3,34.4944,1.0,1.0,1.0
49.31,31.5056,1.0,1.0,1.0
49.32,30.0111,1.0,1.0,1.0
49.33,34.0,1.0,1.0,1.0
49.34,24.0,1.0,1.0,1.0
49.35,29.4944,1.0,1.0,1.0
49.36,19.5056,1.0,1.0,1.0
49.37,27.4944,1.0,1.0,1.0
49.38,32.4944,1.0,1.0,1.0
49.39,37.0111,1.0,1.0,1.0
49.4,46.0,1.0,1.0,1.0
49.41,41.4944,1.0,1.0,1.0
49.42,15.5056,1.0,1.0,1.0
49.43,48.0,1.0,1.0,1.0
49.44,45.0,1.0,1.0,1.0
49.45,33.4944,1.0,1.0,1.0
49.46,51.4944,1.0,1.0,1.0
49.47,58.9889,1.0,1.0,1.0
49.48,43.5167,1.0,1.0,1.0
49.49,48.9889,1.0,1.0,1.0
49.5,62.5167,1.0,1.0,1.0
49.51,41.0,1.0,1.0,1.0
49.52,54.4944,1.0,1.0,1.0
49.53,42.0,1.0,1.0,1.0
49.54,53.5056,1.0,1.0,1.0
49.55,44.0,1.0,1.0,1.0
49.56,62.0,1.0,1.0,1.0
49.57,49.4944,1.0,1.0,1.0
49.58,64.0,1.0,1.0,1.0
49.59,66.4944,1.0,1.0,1.0
49.6,73.0111,1.0,1.0,1.0
49.61,67.0,1.0,1.0,1.0
49.62,54.0,1.0,1.0,1.0
49.63,67.4944,1.0,1.0,1.0
49.64,55.0,1.0,1.0,1.0
49.65,50.5056,1.0,1.0,1.0
49.66,42.9889,1.0,1.0,1.0
49.67,55.5056,1.0,1.0,1.0
49.68,53.0,1.0,1.0,1.0
49.69,53.4944,1.0,1.0,1.0
49.7,50.4944,1.0,1.0,1.0
49.71,48.5056,1.0,1.0,1.0
49.72,56.5056,1.0,1.0,1.0
49.73,49.0,1.0,1.0,1.0
49.74,44.5056,1.0,1.0,1.0
49.75,49.9778,1.0,1.0,1.0
49.76,40.0222,1.0,1.0,1.0
49.77,40.0,1.0,1.0,1.0
49.78,19.0,1.0,1.0,1.0
49.79,37.4944,1.0,1.0,1.0
49.8,36.9889,1.0,1.0,1.0
49.81,19.5167,1.0,1.0,1.0
49.82,32.0,1.0,1.0,1.0
49.83,32.4944,1.0,1.0,1.0
49.84,36.0,1.0,1.0,1.0
49.85,29.5056,1.0,1.0,1.0
49.86,28.4944,1.0,1.0,1.0
49.87,11.5056,1.0,1.0,1.0
49.88,19.0,1.0,1.0,1.0
49.89,27.0,1.0,1.0,1.0
49.9,29.4944,1.0,1.0,1.0
49.91,22.5056,1.0,1.0,1.0
49.92,14.4944,1.0,1.0,1.0
49.93,33.0,1.0,1.0,1.0
49.94,23.0,1.0,1.0,1.0
49.95,16.4944,1.0,1.0,1.0
49.96,22.0111,1.0,1.0,1.0
49.97,7.0,1.0,1.0,1.0
49.98,23.4944,1.0,1.0,1.0
49.99,21.5056,1.0,1.0,1.0
50.0,12.0,1.0,1.0,1.0
50.01,24.4944,1.0,1.0,1.0
50.02,19.0,1.0,1.0,1.0
50.03,18.5056,1.0,1.0,1.0
50.04,0.0,1.0,1.0,1.0
50.05,6.0,1.0,1.0,1.0
50.06,18.0,1.0,1.0,1.0
50.07,16.0,1.0,1.0,1.0
50.08,16.0,1.0,1.0,1.0
50.09,15.0,1.0,1.0,1.0
50.1,10.4944,1.0,1.0,1.0
50.11,16.5056,1.0,1.0,1.0
50.12,13.4944,1.0,1.0,1.0
50.13,14.5056,1.0,1.0,1.0
50.14,22.0,1.0,1.0,1.0
50.15,16.0,1.0,1.0,1.0
50.16,8.0,1.0,1.0,1.0
50.17,8.4944,1.0,1.0,1.0
50.18,24.5056,1.0,1.0,1.0
50.19,8.0,1.0,1.0,1.0
50.2,17.9889,1.0,1.0,1.0
50.21,17.0111,1.0,1.0,1.0
50.22,21.0,1.0,1.0,1.0
50.23,12.0,1.0,1.0,1.0
50.24,23.0,1.0,1.0,1.0
50.25,23.0,1.0,1.0,1.0
50.26,18.0,1.0,1.0,1.0
50.27,28.0,1.0,1.0,1.0
50.28,34.9889,1.0,1.0,1.0
50.29,5.0111,1.0,1.0,1.0
50.3,30.0,1.0,1.0,1.0
50.31,29.4944,1.0,1.0,1.0
50.32,14.5056,1.0,1.0,1.0
50.33,26.4944,1.0,1.0,1.0
50.34,12.0,1.0,1.0,1.0
50.35,31.5056,1.0,1.0,1.0
50.36,26.0,1.0,1.0,1.0
50.37,36.4944,1.0,1.0,1.0
50.38,36.5056,1.0,1.0,1.0
50.39,17.0,1.0,1.0,1.0
50.4,17.0,1.0,1.0,1.0
50.41,20.0,1.0,1.0,1.0
50.42,25.4944,1.0,1.0,1.0
50.43,11.5056,1.0,1.0,1.0
50.44,15.0,1.0,1.0,1.0
50.45,12.0,1.0,1.0,1.0
50.46,23.0,1.0,1.0,1.0
50.47,29.4944,1.0,1.0,1.0
50.48,17.5056,1.0,1.0,1.0
50.49,31.4944,1.0,1.0,1.0
50.5,30.5056,1.0,1.0,1.0
50.51,22.0,1.0,1.0,1.0
50.52,25.0,1.0,1.0,1.0
50.53,16.4944,1.0,1.0,1.0
50.54,13.0,1.0,1.0,1.0
50.55,6.5056,1.0,1.0,1.0
50.56,15.0,1.0,1.0,1.0
50.57,14.0,1.0,1.0,1.0
50.58,15.0,1.0,1.0,1.0
50.59,19.0,1.0,1.0,1.0
50.6,24.0,1.0,1.0,1.0
50.61,11.4944,1.0,1.0,1.0
50.62,20.5056,1.0,1.0,1.0
50.63,23.0,1.0,1.0,1.0
50.64,13.4944,1.0,1.0,1.0
50.65,17.5056,1.0,1.0,1.0
50.66,9.0,1.0,1.0,1.0
50.67,17.4944,1.0,1.0,1.0
50.68,12.5056,1.0,1.0,1.0
50.69,15.0,1.0,1.0,1.0
50.7,11.0,1.0,1.0,1.0
50.71,17.0,1.0,1.0,1.0
50.72,6.0,1.0,1.0,1.0
50.73,17.0,1.0,1.0,1.0
50.74,7.0,1.0,1.0,1.0
50.75,10.4944,1.0,1.0,1.0
50.76,10.5056,1.0,1.0,1.0
50.77,6.0,1.0,1.0,1.0
50.78,18.0,1.0,1.0,1.0
50.79,7.0,1.0,1.0,1.0
50.8,18.0,1.0,1.0,1.0
50.81,2.0,1.0,1.0,1.0
50.82,2.0,1.0,1.0,1.0
50.83,10.0,1.0,1.0,1.0
50.84,2.0,1.0,1.0,1.0
50.85,4.0,1.0,1.0,1.0
50.86,0.0,1.0,1.0,1.0
50.87,7.4944,1.0,1.0,1.0
50.88,14.5056,1.0,1.0,1.0
50.89,17.4944,1.0,1.0,1.0
50.9,23.0,1.0,1.0,1.0
50.91,11.5056,1.0,1.0,1.0
50.92,9.0,1.0,1.0,1.0
50.93,8.0,1.0,1.0,1.0
50.94,14.0,1.0,1.0,1.0
50.95,16.0,1.0,1.0,1.0
50.96,14.0,1.0,1.0,1.0
50.97,11.0,1.0,1.0,1.0
50.98,13.0,1.0,1.0,1.0
50.99,11.0,1.0,1.0,1.0
51.0,11.0,1.0,1.0,1.0
51.01,17.0,1.0,1.0,1.0
51.02,3.0,1.0,1.0,1.0
51.03,15.4944,1.0,1.0,1.0
51.04,18.5056,1.0,1.0,1.0
51.05,14.0,1.0,1.0,1.0
51.06,12.0,1.0,1.0,1.0
51.07,13.0,1.0,1.0,1.0
51.08,8.0,1.0,1.0,1.0
51.09,13.0,1.0,1.0,1.0
51.1,13.0,1.0,1.0,1.0
51.11,19.0,1.0,1.0,1.0
51.12,9.0,1.0,1.0,1.0
51.13,13.9889,1.0,1.0,1.0
51.14,10.5056,1.0,1.0,1.0
51.15,16.4944,1.0,1.0,1.0
51.16,17.0111,1.0,1.0,1.0
51.17,14.4944,1.0,1.0,1.0
51.18,24.5056,1.0,1.0,1.0
51.19,13.0,1.0,1.0,1.0
51.2,10.0,1.0,1.0,1.0
51.21,12.0,1.0,1.0,1.0
51.22,14.4944,1.0,1.0,1.0
51.23,13.5056,1.0,1.0,1.0
51.24,13.0,1.0,1.0,1.0
51.25,13.0,1.0,1.0,1.0
51.26,9.0,1.0,1.0,1.0
51.27,20.0,1.0,1.0,1.0
51.28,13.0,1.0,1.0,1.0
51.29,9.4944,1.0,1.0,1.0
51.3,17.5056,1.0,1.0,1.0
51.31,8.0,1.0,1.0,1.0
51.32,11.4944,1.0,1.0,1.0
51.33,24.5056,1.0,1.0,1.0
51.34,5.0,1.0,1.0,1.0
51.35,15.9889,1.0,1.0,1.0
51.36,14.0111,1.0,1.0,1.0
51.37,9.9889,1.0,1.0,1.0
51.38,10.0111,1.0,1.0,1.0
51.39,4.0,1.0,1.0,1.0
51.4,12.4944,1.0,1.0,1.0
51.41,9.5056,1.0,1.0,1.0
51.42,24.4944,1.0,1.0,1.0
51.43,4.5056,1.0,1.0,1.0
51.44,12.0,1.0,1.0,1.0
51.45,13.0,1.0,1.0,1.0
51.46,0.0,1.0,1.0,1.0
51.47,5.0,1.0,1.0,1.0
51.48,11.0,1.0,1.0,1.0
51.49,7.0,1.0,1.0,1.0
51.5,13.0,1.0,1.0,1.0
51.51,22.0,1.0,1.0,1.0
51.52,14.0,1.0,1.0,1.0
51.53,6.0,1.0,1.0,1.0
51.54,21.0,1.0,1.0,1.0
51.55,12.0,1.0,1.0,1.0
51.56,10.0,1.0,1.0,1.0
51.57,7.0,1.0,1.0,1.0
51.58,5.0,1.0,1.0,1.0
51.59,7.4944,1.0,1.0,1.0
51.6,13.5056,1.0,1.0,1.0
51.61,2.4944,1.0,1.0,1.0
51.62,10.5056,1.0,1.0,1.0
51.63,0.0,1.0,1.0,1.0
51.64,18.0,1.0,1.0,1.0
51.65,17.0,1.0,1.0,1.0
51.66,6.0,1.0,1.0,1.0
51.67,8.4944,1.0,1.0,1.0
51.68,3.5056,1.0,1.0,1.0
51.69,10.0,1.0,1.0,1.0
51.7,27.0,1.0,1.0,1.0
51.71,4.4944,1.0,1.0,1.0
51.72,13.0,1.0,1.0,1.0
51.73,9.5056,1.0,1.0,1.0
51.74,15.0,1.0,1.0,1.0
51.75,2.0,1.0,1.0,1.0
51.76,3.4944,1.0,1.0,1.0
51.77,1.5056,1.0,1.0,1.0
51.78,10.0,1.0,1.0,1.0
51.79,3.0,1.0,1.0,1.0
51.8,8.0,1.0,1.0,1.0
51.81,4.0,1.0,1.0,1.0
51.82,4.0,1.0,1.0,1.0
51.83,14.0,1.0,1.0,1.0
51.84,4.0,1.0,1.0,1.0
51.85,6.0,1.0,1.0,1.0
51.86,9.0,1.0,1.0,1.0
51.87,9.0,1.0,1.0,1.0
51.88,11.0,1.0,1.0,1.0
51.89,18.0,1.0,1.0,1.0
51.9,7.0,1.0,1.0,1.0
51.91,5.0,1.0,1.0,1.0
51.92,13.0,1.0,1.0,1.0
51.93,2.0,1.0,1.0,1.0
51.94,2.0,1.0,1.0,1.0
51.95,2.0,1.0,1.0,1.0
51.96,11.0,1.0,1.0,1.0
51.97,7.0,1.0,1.0,1.0
51.98,6.0,1.0,1.0,1.0
51.99,11.4944,1.0,1.0,1.0
52.0,15.5056,1.0,1.0,1.0