File: XRD:XRR/LCO/22126_LCON/22126_LCON_XRD_220.csv
#twotheta, yobs, ycal, bkg, diff
42.0,62.4833,1.0,1.0,1.0
42.01,75.4944,1.0,1.0,1.0
42.02,76.0111,1.0,1.0,1.0
42.03,59.0111,1.0,1.0,1.0
42.04,61.0,1.0,1.0,1.0
42.05,54.4833,1.0,1.0,1.0
42.06,77.0111,1.0,1.0,1.0
42.07,77.0,1.0,1.0,1.0
42.08,73.5056,1.0,1.0,1.0
42.09,68.9889,1.0,1.0,1.0
42.1,74.4944,1.0,1.0,1.0
42.11,55.5167,1.0,1.0,1.0
42.12,74.4944,1.0,1.0,1.0
42.13,77.9889,1.0,1.0,1.0
42.14,74.0,1.0,1.0,1.0
42.15,58.0111,1.0,1.0,1.0
42.16,82.4944,1.0,1.0,1.0
42.17,73.4944,1.0,1.0,1.0
42.18,78.5167,1.0,1.0,1.0
42.19,58.4833,1.0,1.0,1.0
42.2,88.0111,1.0,1.0,1.0
42.21,56.5056,1.0,1.0,1.0
42.22,65.4944,1.0,1.0,1.0
42.23,81.4944,1.0,1.0,1.0
42.24,69.0,1.0,1.0,1.0
42.25,72.5056,1.0,1.0,1.0
42.26,52.5056,1.0,1.0,1.0
42.27,60.4944,1.0,1.0,1.0
42.28,63.0,1.0,1.0,1.0
42.29,81.4944,1.0,1.0,1.0
42.3,67.9889,1.0,1.0,1.0
42.31,59.0111,1.0,1.0,1.0
42.32,69.0111,1.0,1.0,1.0
42.33,67.9889,1.0,1.0,1.0
42.34,56.0,1.0,1.0,1.0
42.35,73.5056,1.0,1.0,1.0
42.36,59.0,1.0,1.0,1.0
42.37,82.5056,1.0,1.0,1.0
42.38,72.0,1.0,1.0,1.0
42.39,95.0,1.0,1.0,1.0
42.4,62.4833,1.0,1.0,1.0
42.41,70.5167,1.0,1.0,1.0
42.42,89.4833,1.0,1.0,1.0
42.43,77.0111,1.0,1.0,1.0
42.44,62.5056,1.0,1.0,1.0
42.45,63.9778,1.0,1.0,1.0
42.46,76.0222,1.0,1.0,1.0
42.47,67.4833,1.0,1.0,1.0
42.48,73.5056,1.0,1.0,1.0
42.49,96.4944,1.0,1.0,1.0
42.5,71.0111,1.0,1.0,1.0
42.51,88.4944,1.0,1.0,1.0
42.52,82.5056,1.0,1.0,1.0
42.53,86.4944,1.0,1.0,1.0
42.54,62.0111,1.0,1.0,1.0
42.55,81.4944,1.0,1.0,1.0
42.56,75.9889,1.0,1.0,1.0
42.57,54.5056,1.0,1.0,1.0
42.58,71.5056,1.0,1.0,1.0
42.59,92.9889,1.0,1.0,1.0
42.6,85.5167,1.0,1.0,1.0
42.61,81.4944,1.0,1.0,1.0
42.62,77.9889,1.0,1.0,1.0
42.63,79.0111,1.0,1.0,1.0
42.64,84.0,1.0,1.0,1.0
42.65,65.0,1.0,1.0,1.0
42.66,91.9889,1.0,1.0,1.0
42.67,85.0111,1.0,1.0,1.0
42.68,85.5056,1.0,1.0,1.0
42.69,89.4833,1.0,1.0,1.0
42.7,90.5056,1.0,1.0,1.0
42.71,75.4944,1.0,1.0,1.0
42.72,74.5167,1.0,1.0,1.0
42.73,78.0,1.0,1.0,1.0
42.74,82.4833,1.0,1.0,1.0
42.75,95.0111,1.0,1.0,1.0
42.76,79.0,1.0,1.0,1.0
42.77,94.9889,1.0,1.0,1.0
42.78,101.5056,1.0,1.0,1.0
42.79,86.0111,1.0,1.0,1.0
42.8,53.9889,1.0,1.0,1.0
42.81,81.5056,1.0,1.0,1.0
42.82,94.9778,1.0,1.0,1.0
42.83,73.5278,1.0,1.0,1.0
42.84,83.4833,1.0,1.0,1.0
42.85,99.5056,1.0,1.0,1.0
42.86,75.4944,1.0,1.0,1.0
42.87,69.5167,1.0,1.0,1.0
42.88,68.9778,1.0,1.0,1.0
42.89,78.0,1.0,1.0,1.0
42.9,83.0222,1.0,1.0,1.0
42.91,71.0,1.0,1.0,1.0
42.92,90.4833,1.0,1.0,1.0
42.93,68.5056,1.0,1.0,1.0
42.94,85.0111,1.0,1.0,1.0
42.95,92.9778,1.0,1.0,1.0
42.96,76.0222,1.0,1.0,1.0
42.97,79.4944,1.0,1.0,1.0
42.98,102.4833,1.0,1.0,1.0
42.99,99.0111,1.0,1.0,1.0
43.0,89.5056,1.0,1.0,1.0
43.01,107.5056,1.0,1.0,1.0
43.02,81.9889,1.0,1.0,1.0
43.03,73.4944,1.0,1.0,1.0
43.04,82.5056,1.0,1.0,1.0
43.05,77.5056,1.0,1.0,1.0
43.06,88.5056,1.0,1.0,1.0
43.07,84.9889,1.0,1.0,1.0
43.08,110.4833,1.0,1.0,1.0
43.09,91.0111,1.0,1.0,1.0
43.1,84.0111,1.0,1.0,1.0
43.11,88.0,1.0,1.0,1.0
43.12,104.0,1.0,1.0,1.0
43.13,101.4944,1.0,1.0,1.0
43.14,81.9889,1.0,1.0,1.0
43.15,97.0111,1.0,1.0,1.0
43.16,84.4944,1.0,1.0,1.0
43.17,90.0111,1.0,1.0,1.0
43.18,99.9778,1.0,1.0,1.0
43.19,126.5167,1.0,1.0,1.0
43.2,88.0,1.0,1.0,1.0
43.21,64.0111,1.0,1.0,1.0
43.22,87.4833,1.0,1.0,1.0
43.23,112.5167,1.0,1.0,1.0
43.24,100.4944,1.0,1.0,1.0
43.25,104.0,1.0,1.0,1.0
43.26,99.9778,1.0,1.0,1.0
43.27,134.5056,1.0,1.0,1.0
43.28,111.0111,1.0,1.0,1.0
43.29,110.5056,1.0,1.0,1.0
43.3,96.4944,1.0,1.0,1.0
43.31,105.4944,1.0,1.0,1.0
43.32,75.5056,1.0,1.0,1.0
43.33,112.4944,1.0,1.0,1.0
43.34,106.0,1.0,1.0,1.0
43.35,119.4944,1.0,1.0,1.0
43.36,89.5056,1.0,1.0,1.0
43.37,132.0,1.0,1.0,1.0
43.38,90.5056,1.0,1.0,1.0
43.39,125.5056,1.0,1.0,1.0
43.4,91.0,1.0,1.0,1.0
43.41,93.0,1.0,1.0,1.0
43.42,99.5056,1.0,1.0,1.0
43.43,113.9889,1.0,1.0,1.0
43.44,118.0,1.0,1.0,1.0
43.45,116.4944,1.0,1.0,1.0
43.46,114.5167,1.0,1.0,1.0
43.47,139.9778,1.0,1.0,1.0
43.48,112.0,1.0,1.0,1.0
43.49,110.0,1.0,1.0,1.0
43.5,118.5167,1.0,1.0,1.0
43.51,124.4944,1.0,1.0,1.0
43.52,123.0111,1.0,1.0,1.0
43.53,135.4944,1.0,1.0,1.0
43.54,122.4944,1.0,1.0,1.0
43.55,85.0111,1.0,1.0,1.0
43.56,130.9778,1.0,1.0,1.0
43.57,105.0111,1.0,1.0,1.0
43.58,125.0111,1.0,1.0,1.0
43.59,122.9778,1.0,1.0,1.0
43.6,135.5167,1.0,1.0,1.0
43.61,119.0,1.0,1.0,1.0
43.62,100.9778,1.0,1.0,1.0
43.63,124.5278,1.0,1.0,1.0
43.64,123.4944,1.0,1.0,1.0
43.65,137.0,1.0,1.0,1.0
43.66,131.4944,1.0,1.0,1.0
43.67,129.9889,1.0,1.0,1.0
43.68,146.0,1.0,1.0,1.0
43.69,135.0222,1.0,1.0,1.0
43.7,149.9889,1.0,1.0,1.0
43.71,114.4944,1.0,1.0,1.0
43.72,139.5167,1.0,1.0,1.0
43.73,127.9889,1.0,1.0,1.0
43.74,130.5056,1.0,1.0,1.0
43.75,141.4944,1.0,1.0,1.0
43.76,128.0,1.0,1.0,1.0
43.77,92.0,1.0,1.0,1.0
43.78,118.5056,1.0,1.0,1.0
43.79,136.9889,1.0,1.0,1.0
43.8,132.5056,1.0,1.0,1.0
43.81,155.0111,1.0,1.0,1.0
43.82,97.4722,1.0,1.0,1.0
43.83,126.0,1.0,1.0,1.0
43.84,118.0,1.0,1.0,1.0
43.85,141.5056,1.0,1.0,1.0
43.86,125.5167,1.0,1.0,1.0
43.87,116.4944,1.0,1.0,1.0
43.88,136.4944,1.0,1.0,1.0
43.89,120.0,1.0,1.0,1.0
43.9,165.0,1.0,1.0,1.0
43.91,152.4944,1.0,1.0,1.0
43.92,149.0,1.0,1.0,1.0
43.93,142.4944,1.0,1.0,1.0
43.94,136.0222,1.0,1.0,1.0
43.95,159.0,1.0,1.0,1.0
43.96,139.4944,1.0,1.0,1.0
43.97,122.4944,1.0,1.0,1.0
43.98,169.4833,1.0,1.0,1.0
43.99,148.0222,1.0,1.0,1.0
44.0,148.9889,1.0,1.0,1.0
44.01,137.0111,1.0,1.0,1.0
44.02,178.0,1.0,1.0,1.0
44.03,154.4944,1.0,1.0,1.0
44.04,159.5167,1.0,1.0,1.0
44.05,138.4722,1.0,1.0,1.0
44.06,177.5056,1.0,1.0,1.0
44.07,189.5167,1.0,1.0,1.0
44.08,176.4944,1.0,1.0,1.0
44.09,178.4944,1.0,1.0,1.0
44.1,187.0,1.0,1.0,1.0
44.11,150.5056,1.0,1.0,1.0
44.12,175.9778,1.0,1.0,1.0
44.13,176.5056,1.0,1.0,1.0
44.14,177.0222,1.0,1.0,1.0
44.15,180.45,1.0,1.0,1.0
44.16,200.55,1.0,1.0,1.0
44.17,174.4722,1.0,1.0,1.0
44.18,201.5167,1.0,1.0,1.0
44.19,185.5056,1.0,1.0,1.0
44.2,178.0,1.0,1.0,1.0
44.21,172.4722,1.0,1.0,1.0
44.22,194.5167,1.0,1.0,1.0
44.23,174.0,1.0,1.0,1.0
44.24,207.0,1.0,1.0,1.0
44.25,185.5056,1.0,1.0,1.0
44.26,179.0111,1.0,1.0,1.0
44.27,218.9778,1.0,1.0,1.0
44.28,190.0111,1.0,1.0,1.0
44.29,199.4944,1.0,1.0,1.0
44.3,176.0111,1.0,1.0,1.0
44.31,198.4944,1.0,1.0,1.0
44.32,187.4722,1.0,1.0,1.0
44.33,162.0333,1.0,1.0,1.0
44.34,214.9889,1.0,1.0,1.0
44.35,195.5056,1.0,1.0,1.0
44.36,168.4944,1.0,1.0,1.0
44.37,191.5056,1.0,1.0,1.0
44.38,185.0,1.0,1.0,1.0
44.39,214.9778,1.0,1.0,1.0
44.4,183.5278,1.0,1.0,1.0
44.41,178.0,1.0,1.0,1.0
44.42,217.9889,1.0,1.0,1.0
44.43,162.4944,1.0,1.0,1.0
44.44,209.9778,1.0,1.0,1.0
44.45,205.5278,1.0,1.0,1.0
44.46,199.0222,1.0,1.0,1.0
44.47,185.9778,1.0,1.0,1.0
44.48,195.0,1.0,1.0,1.0
44.49,218.5056,1.0,1.0,1.0
44.5,197.0,1.0,1.0,1.0
44.51,197.5056,1.0,1.0,1.0
44.52,223.4944,1.0,1.0,1.0
44.53,243.5056,1.0,1.0,1.0
44.54,225.0,1.0,1.0,1.0
44.55,203.0,1.0,1.0,1.0
44.56,204.4722,1.0,1.0,1.0
44.57,238.0111,1.0,1.0,1.0
44.58,227.0222,1.0,1.0,1.0
44.59,256.4833,1.0,1.0,1.0
44.6,244.9889,1.0,1.0,1.0
44.61,259.5056,1.0,1.0,1.0
44.62,249.0,1.0,1.0,1.0
44.63,270.0111,1.0,1.0,1.0
44.64,303.4944,1.0,1.0,1.0
44.65,266.4944,1.0,1.0,1.0
44.66,292.4944,1.0,1.0,1.0
44.67,314.0,1.0,1.0,1.0
44.68,317.0222,1.0,1.0,1.0
44.69,328.4833,1.0,1.0,1.0
44.7,334.9889,1.0,1.0,1.0
44.71,311.0222,1.0,1.0,1.0
44.72,327.9889,1.0,1.0,1.0
44.73,300.9667,1.0,1.0,1.0
44.74,365.5278,1.0,1.0,1.0
44.75,369.0,1.0,1.0,1.0
44.76,373.4722,1.0,1.0,1.0
44.77,318.9889,1.0,1.0,1.0
44.78,341.5389,1.0,1.0,1.0
44.79,380.4833,1.0,1.0,1.0
44.8,347.5389,1.0,1.0,1.0
44.81,340.9222,1.0,1.0,1.0
44.82,369.0555,1.0,1.0,1.0
44.83,389.0,1.0,1.0,1.0
44.84,400.9667,1.0,1.0,1.0
44.85,379.0333,1.0,1.0,1.0
44.86,385.5167,1.0,1.0,1.0
44.87,340.4944,1.0,1.0,1.0
44.88,342.4722,1.0,1.0,1.0
44.89,391.9889,1.0,1.0,1.0
44.9,377.5278,1.0,1.0,1.0
44.91,368.9778,1.0,1.0,1.0
44.92,386.0333,1.0,1.0,1.0
44.93,382.5056,1.0,1.0,1.0
44.94,336.4611,1.0,1.0,1.0
44.95,385.9889,1.0,1.0,1.0
44.96,390.0222,1.0,1.0,1.0
44.97,357.4944,1.0,1.0,1.0
44.98,364.4944,1.0,1.0,1.0
44.99,371.5056,1.0,1.0,1.0
45.0,354.5167,1.0,1.0,1.0
45.01,381.9889,1.0,1.0,1.0
45.02,335.4944,1.0,1.0,1.0
45.03,337.0111,1.0,1.0,1.0
45.04,354.9667,1.0,1.0,1.0
45.05,371.5389,1.0,1.0,1.0
45.06,329.4833,1.0,1.0,1.0
45.07,316.0,1.0,1.0,1.0
45.08,329.5056,1.0,1.0,1.0
45.09,358.9778,1.0,1.0,1.0
45.1,355.5278,1.0,1.0,1.0
45.11,349.0111,1.0,1.0,1.0
45.12,322.4944,1.0,1.0,1.0
45.13,350.0,1.0,1.0,1.0
45.14,335.5056,1.0,1.0,1.0
45.15,320.4944,1.0,1.0,1.0
45.16,338.0,1.0,1.0,1.0
45.17,389.5056,1.0,1.0,1.0
45.18,343.4833,1.0,1.0,1.0
45.19,378.0222,1.0,1.0,1.0
45.2,395.4944,1.0,1.0,1.0
45.21,396.4389,1.0,1.0,1.0
45.22,431.55,1.0,1.0,1.0
45.23,488.4833,1.0,1.0,1.0
45.24,435.45,1.0,1.0,1.0
45.25,477.5611,1.0,1.0,1.0
45.26,477.0,1.0,1.0,1.0
45.27,486.0,1.0,1.0,1.0
45.28,541.4944,1.0,1.0,1.0
45.29,557.4833,1.0,1.0,1.0
45.3,569.0333,1.0,1.0,1.0
45.31,606.45,1.0,1.0,1.0
45.32,688.0111,1.0,1.0,1.0
45.33,702.5167,1.0,1.0,1.0
45.34,716.4833,1.0,1.0,1.0
45.35,741.9778,1.0,1.0,1.0
45.36,724.9445,1.0,1.0,1.0
45.37,763.55,1.0,1.0,1.0
45.38,818.0444,1.0,1.0,1.0
45.39,825.9445,1.0,1.0,1.0
45.4,926.0,1.0,1.0,1.0
45.41,948.5167,1.0,1.0,1.0
45.42,992.9111,1.0,1.0,1.0
45.43,1003.1,1.0,1.0,1.0
45.44,1009.49,1.0,1.0,1.0
45.45,1007.46,1.0,1.0,1.0
45.46,1041.98,1.0,1.0,1.0
45.47,1089.01,1.0,1.0,1.0
45.48,1069.02,1.0,1.0,1.0
45.49,1086.53,1.0,1.0,1.0
45.5,1126.98,1.0,1.0,1.0
45.51,1146.45,1.0,1.0,1.0
45.52,1107.52,1.0,1.0,1.0
45.53,1164.51,1.0,1.0,1.0
45.54,1171.0,1.0,1.0,1.0
45.55,1142.52,1.0,1.0,1.0
45.56,1191.01,1.0,1.0,1.0
45.57,1184.43,1.0,1.0,1.0
45.58,1120.54,1.0,1.0,1.0
45.59,1175.06,1.0,1.0,1.0
45.6,1121.44,1.0,1.0,1.0
45.61,1089.52,1.0,1.0,1.0
45.62,1112.54,1.0,1.0,1.0
45.63,1009.0,1.0,1.0,1.0
45.64,1084.49,1.0,1.0,1.0
45.65,1045.99,1.0,1.0,1.0
45.66,1014.47,1.0,1.0,1.0
45.67,1067.97,1.0,1.0,1.0
45.68,1083.09,1.0,1.0,1.0
45.69,1071.01,1.0,1.0,1.0
45.7,1016.47,1.0,1.0,1.0
45.71,989.0,1.0,1.0,1.0
45.72,979.5278,1.0,1.0,1.0
45.73,969.4278,1.0,1.0,1.0
45.74,1076.55,1.0,1.0,1.0
45.75,1026.96,1.0,1.0,1.0
45.76,1087.99,1.0,1.0,1.0
45.77,1098.99,1.0,1.0,1.0
45.78,1192.51,1.0,1.0,1.0
45.79,1279.48,1.0,1.0,1.0
45.8,1364.53,1.0,1.0,1.0
45.81,1448.42,1.0,1.0,1.0
45.82,1568.04,1.0,1.0,1.0
45.83,1691.53,1.0,1.0,1.0
45.84,1804.93,1.0,1.0,1.0
45.85,2117.48,1.0,1.0,1.0
45.86,2203.02,1.0,1.0,1.0
45.87,2441.46,1.0,1.0,1.0
45.88,2675.99,1.0,1.0,1.0
45.89,3028.92,1.0,1.0,1.0
45.9,3301.93,1.0,1.0,1.0
45.91,3643.48,1.0,1.0,1.0
45.92,4040.03,1.0,1.0,1.0
45.93,4308.88,1.0,1.0,1.0
45.94,4881.39,1.0,1.0,1.0
45.95,5104.09,1.0,1.0,1.0
45.96,5741.33,1.0,1.0,1.0
45.97,6168.561,1.0,1.0,1.0
45.98,6872.43,1.0,1.0,1.0
45.99,7388.42,1.0,1.0,1.0
46.0,8113.83,1.0,1.0,1.0
46.01,8913.92,1.0,1.0,1.0
46.02,9334.87,1.0,1.0,1.0
46.03,10280.4,1.0,1.0,1.0
46.04,10973.1,1.0,1.0,1.0
46.05,11959.8,1.0,1.0,1.0
46.06,12852.9,1.0,1.0,1.0
46.07,13771.8,1.0,1.0,1.0
46.08,14352.5,1.0,1.0,1.0
46.09,15660.5,1.0,1.0,1.0
46.1,16480.3,1.0,1.0,1.0
46.11,17483.9,1.0,1.0,1.0
46.12,18725.8,1.0,1.0,1.0
46.13,19928.5,1.0,1.0,1.0
46.14,21315.2,1.0,1.0,1.0
46.15,22527.9,1.0,1.0,1.0
46.16,23644.1,1.0,1.0,1.0
46.17,25092.2,1.0,1.0,1.0
46.18,26011.627,1.0,1.0,1.0
46.19,27065.6,1.0,1.0,1.0
46.2,28501.9,1.0,1.0,1.0
46.21,29858.3,1.0,1.0,1.0
46.22,31174.877,1.0,1.0,1.0
46.23,32905.4,1.0,1.0,1.0
46.24,33809.6,1.0,1.0,1.0
46.25,35407.2,1.0,1.0,1.0
46.26,36899.9,1.0,1.0,1.0
46.27,38386.3,1.0,1.0,1.0
46.28,39602.9,1.0,1.0,1.0
46.29,40751.7,1.0,1.0,1.0
46.3,42395.8,1.0,1.0,1.0
46.31,43569.3,1.0,1.0,1.0
46.32,44670,1.0,1.0,1.0
46.33,46035.7,1.0,1.0,1.0
46.34,47756.5,1.0,1.0,1.0
46.35,48736.9,1.0,1.0,1.0
46.36,50187.1,1.0,1.0,1.0
46.37,51079.9,1.0,1.0,1.0
46.38,51836.832,1.0,1.0,1.0
46.39,53889.2,1.0,1.0,1.0
46.4,54512,1.0,1.0,1.0
46.41,55798.7,1.0,1.0,1.0
46.42,56541.2,1.0,1.0,1.0
46.43,57968.4,1.0,1.0,1.0
46.44,58845.7,1.0,1.0,1.0
46.45,59734.582,1.0,1.0,1.0
46.46,60441.4,1.0,1.0,1.0
46.47,61135.582,1.0,1.0,1.0
46.48,61823.6,1.0,1.0,1.0
46.49,63144.5,1.0,1.0,1.0
46.5,63126.168,1.0,1.0,1.0
46.51,63572.1,1.0,1.0,1.0
46.52,64029.2,1.0,1.0,1.0
46.53,65380.6,1.0,1.0,1.0
46.54,64671.2,1.0,1.0,1.0
46.55,65079,1.0,1.0,1.0
46.56,65111.6,1.0,1.0,1.0
46.57,65613.2,1.0,1.0,1.0
46.58,65660.2,1.0,1.0,1.0
46.59,65016.8,1.0,1.0,1.0
46.6,65515.4,1.0,1.0,1.0
46.61,65323.6,1.0,1.0,1.0
46.62,65238.1,1.0,1.0,1.0
46.63,65319.207,1.0,1.0,1.0
46.64,65030.7,1.0,1.0,1.0
46.65,64277.293,1.0,1.0,1.0
46.66,63696.4,1.0,1.0,1.0
46.67,63466.1,1.0,1.0,1.0
46.68,63169.5,1.0,1.0,1.0
46.69,63208.6,1.0,1.0,1.0
46.7,62122.207,1.0,1.0,1.0
46.71,61799.7,1.0,1.0,1.0
46.72,61355.4,1.0,1.0,1.0
46.73,61080.9,1.0,1.0,1.0
46.74,59935.3,1.0,1.0,1.0
46.75,59724.2,1.0,1.0,1.0
46.76,58869.7,1.0,1.0,1.0
46.77,58168.7,1.0,1.0,1.0
46.78,57888.7,1.0,1.0,1.0
46.79,57563.6,1.0,1.0,1.0
46.8,57453.6,1.0,1.0,1.0
46.81,57529.7,1.0,1.0,1.0
46.82,57350.582,1.0,1.0,1.0
46.83,57642.25,1.0,1.0,1.0
46.84,57820.8,1.0,1.0,1.0
46.85,58541.9,1.0,1.0,1.0
46.86,59752.6,1.0,1.0,1.0
46.87,61017,1.0,1.0,1.0
46.88,62663.25,1.0,1.0,1.0
46.89,66301.2,1.0,1.0,1.0
46.9,70212.3,1.0,1.0,1.0
46.91,75745.8,1.0,1.0,1.0
46.92,83400.1,1.0,1.0,1.0
46.93,94978,1.0,1.0,1.0
46.94,109258,1.0,1.0,1.0
46.95,130578,1.0,1.0,1.0
46.96,159820,1.0,1.0,1.0
46.97,203742,1.0,1.0,1.0
46.98,274764,1.0,1.0,1.0
46.99,391502.75,1.0,1.0,1.0
47.0,619703,1.0,1.0,1.0
47.01,1138376.125,1.0,1.0,1.0
47.02,2909549.5,1.0,1.0,1.0
47.03,32085800.0,1.0,1.0,1.0
47.04,96931360.0,1.0,1.0,1.0
47.05,11885388.0,1.0,1.0,1.0
47.06,1994872.125,1.0,1.0,1.0
47.07,819523.75,1.0,1.0,1.0
47.08,462118.125,1.0,1.0,1.0
47.09,303080,1.0,1.0,1.0
47.1,207746,1.0,1.0,1.0
47.11,143672,1.0,1.0,1.0
47.12,104253,1.0,1.0,1.0
47.13,81059.9,1.0,1.0,1.0
47.14,64996.9,1.0,1.0,1.0
47.15,51622.6,1.0,1.0,1.0
47.16,40806.5,1.0,1.0,1.0
47.17,33234.9,1.0,1.0,1.0
47.18,27395.3,1.0,1.0,1.0
47.19,22822.1,1.0,1.0,1.0
47.2,19064.3,1.0,1.0,1.0
47.21,16361.8,1.0,1.0,1.0
47.22,13794.7,1.0,1.0,1.0
47.23,11634.7,1.0,1.0,1.0
47.24,9820.08,1.0,1.0,1.0
47.25,8504.3,1.0,1.0,1.0
47.26,7061.561,1.0,1.0,1.0
47.27,5933.69,1.0,1.0,1.0
47.28,4884.94,1.0,1.0,1.0
47.29,4219.26,1.0,1.0,1.0
47.3,3522.0,1.0,1.0,1.0
47.31,2932.1,1.0,1.0,1.0
47.32,2461.09,1.0,1.0,1.0
47.33,2076.97,1.0,1.0,1.0
47.34,1591.56,1.0,1.0,1.0
47.35,1289.54,1.0,1.0,1.0
47.36,1145.03,1.0,1.0,1.0
47.37,876.4944,1.0,1.0,1.0
47.38,786.5389,1.0,1.0,1.0
47.39,641.0,1.0,1.0,1.0
47.4,493.0222,1.0,1.0,1.0
47.41,471.4944,1.0,1.0,1.0
47.42,410.4944,1.0,1.0,1.0
47.43,348.0111,1.0,1.0,1.0
47.44,377.5167,1.0,1.0,1.0
47.45,379.9778,1.0,1.0,1.0
47.46,381.9889,1.0,1.0,1.0
47.47,447.5056,1.0,1.0,1.0
47.48,473.0111,1.0,1.0,1.0
47.49,486.9778,1.0,1.0,1.0
47.5,555.9667,1.0,1.0,1.0
47.51,610.5167,1.0,1.0,1.0
47.52,698.9778,1.0,1.0,1.0
47.53,739.5278,1.0,1.0,1.0
47.54,784.4833,1.0,1.0,1.0
47.55,885.9333,1.0,1.0,1.0
47.56,939.0333,1.0,1.0,1.0
47.57,929.5167,1.0,1.0,1.0
47.58,1037.97,1.0,1.0,1.0
47.59,1040.51,1.0,1.0,1.0
47.6,1008.52,1.0,1.0,1.0
47.61,1116.97,1.0,1.0,1.0
47.62,1201.01,1.0,1.0,1.0
47.63,1126.0,1.0,1.0,1.0
47.64,1119.49,1.0,1.0,1.0
47.65,1133.01,1.0,1.0,1.0
47.66,1243.48,1.0,1.0,1.0
47.67,1286.02,1.0,1.0,1.0
47.68,1218.53,1.0,1.0,1.0
47.69,1157.48,1.0,1.0,1.0
47.7,1094.93,1.0,1.0,1.0
47.71,1136.56,1.0,1.0,1.0
47.72,1124.98,1.0,1.0,1.0
47.73,1165.45,1.0,1.0,1.0
47.74,1096.03,1.0,1.0,1.0
47.75,1076.07,1.0,1.0,1.0
47.76,973.45,1.0,1.0,1.0
47.77,953.1,1.0,1.0,1.0
47.78,881.45,1.0,1.0,1.0
47.79,938.4833,1.0,1.0,1.0
47.8,846.9667,1.0,1.0,1.0
47.81,807.4944,1.0,1.0,1.0
47.82,815.5611,1.0,1.0,1.0
47.83,700.0111,1.0,1.0,1.0
47.84,629.5167,1.0,1.0,1.0
47.85,601.9667,1.0,1.0,1.0
47.86,598.55,1.0,1.0,1.0
47.87,525.0111,1.0,1.0,1.0
47.88,520.9778,1.0,1.0,1.0
47.89,436.5167,1.0,1.0,1.0
47.9,423.4833,1.0,1.0,1.0
47.91,379.0111,1.0,1.0,1.0
47.92,342.4944,1.0,1.0,1.0
47.93,321.5056,1.0,1.0,1.0
47.94,322.5056,1.0,1.0,1.0
47.95,275.0,1.0,1.0,1.0
47.96,262.4944,1.0,1.0,1.0
47.97,225.5056,1.0,1.0,1.0
47.98,228.0222,1.0,1.0,1.0
47.99,180.0,1.0,1.0,1.0
48.0,163.4944,1.0,1.0,1.0
48.01,148.9889,1.0,1.0,1.0
48.02,168.4944,1.0,1.0,1.0
48.03,137.5167,1.0,1.0,1.0
48.04,141.0,1.0,1.0,1.0
48.05,110.5056,1.0,1.0,1.0
48.06,134.4944,1.0,1.0,1.0
48.07,110.5056,1.0,1.0,1.0
48.08,114.5056,1.0,1.0,1.0
48.09,117.4833,1.0,1.0,1.0
48.1,117.5056,1.0,1.0,1.0
48.11,134.5056,1.0,1.0,1.0
48.12,110.0111,1.0,1.0,1.0
48.13,137.0,1.0,1.0,1.0
48.14,150.4944,1.0,1.0,1.0
48.15,156.9667,1.0,1.0,1.0
48.16,168.5167,1.0,1.0,1.0
48.17,164.5167,1.0,1.0,1.0
48.18,193.9889,1.0,1.0,1.0
48.19,178.9667,1.0,1.0,1.0
48.2,202.0222,1.0,1.0,1.0
48.21,224.5167,1.0,1.0,1.0
48.22,210.4833,1.0,1.0,1.0
48.23,233.0,1.0,1.0,1.0
48.24,218.0,1.0,1.0,1.0
48.25,238.0111,1.0,1.0,1.0
48.26,258.9889,1.0,1.0,1.0
48.27,253.5056,1.0,1.0,1.0
48.28,282.9778,1.0,1.0,1.0
48.29,285.0333,1.0,1.0,1.0
48.3,248.9778,1.0,1.0,1.0
48.31,308.9889,1.0,1.0,1.0
48.32,283.0,1.0,1.0,1.0
48.33,299.0,1.0,1.0,1.0
48.34,275.0222,1.0,1.0,1.0
48.35,300.9889,1.0,1.0,1.0
48.36,289.0111,1.0,1.0,1.0
48.37,280.4833,1.0,1.0,1.0
48.38,268.5167,1.0,1.0,1.0
48.39,255.0111,1.0,1.0,1.0
48.4,277.9778,1.0,1.0,1.0
48.41,258.0,1.0,1.0,1.0
48.42,273.5278,1.0,1.0,1.0
48.43,213.4944,1.0,1.0,1.0
48.44,245.9889,1.0,1.0,1.0
48.45,229.0,1.0,1.0,1.0
48.46,256.4944,1.0,1.0,1.0
48.47,246.0,1.0,1.0,1.0
48.48,236.0,1.0,1.0,1.0
48.49,231.4944,1.0,1.0,1.0
48.5,193.5056,1.0,1.0,1.0
48.51,189.5056,1.0,1.0,1.0
48.52,176.5056,1.0,1.0,1.0
48.53,208.5056,1.0,1.0,1.0
48.54,170.4833,1.0,1.0,1.0
48.55,181.0,1.0,1.0,1.0
48.56,138.0111,1.0,1.0,1.0
48.57,151.5167,1.0,1.0,1.0
48.58,136.4833,1.0,1.0,1.0
48.59,144.9889,1.0,1.0,1.0
48.6,158.5167,1.0,1.0,1.0
48.61,140.0,1.0,1.0,1.0
48.62,137.9889,1.0,1.0,1.0
48.63,105.0111,1.0,1.0,1.0
48.64,130.0,1.0,1.0,1.0
48.65,98.5056,1.0,1.0,1.0
48.66,115.4944,1.0,1.0,1.0
48.67,117.0,1.0,1.0,1.0
48.68,118.9889,1.0,1.0,1.0
48.69,76.0222,1.0,1.0,1.0
48.7,101.4833,1.0,1.0,1.0
48.71,98.0,1.0,1.0,1.0
48.72,89.5056,1.0,1.0,1.0
48.73,85.5056,1.0,1.0,1.0
48.74,69.0,1.0,1.0,1.0
48.75,90.4944,1.0,1.0,1.0
48.76,93.0,1.0,1.0,1.0
48.77,91.5056,1.0,1.0,1.0
48.78,98.9889,1.0,1.0,1.0
48.79,95.9889,1.0,1.0,1.0
48.8,88.5278,1.0,1.0,1.0
48.81,94.4944,1.0,1.0,1.0
48.82,93.4944,1.0,1.0,1.0
48.83,97.5056,1.0,1.0,1.0
48.84,111.5056,1.0,1.0,1.0
48.85,117.0,1.0,1.0,1.0
48.86,92.9778,1.0,1.0,1.0
48.87,109.4944,1.0,1.0,1.0
48.88,131.0,1.0,1.0,1.0
48.89,106.0111,1.0,1.0,1.0
48.9,117.5056,1.0,1.0,1.0
48.91,109.9889,1.0,1.0,1.0
48.92,124.5167,1.0,1.0,1.0
48.93,112.9889,1.0,1.0,1.0
48.94,124.4944,1.0,1.0,1.0
48.95,137.4944,1.0,1.0,1.0
48.96,92.0111,1.0,1.0,1.0
48.97,119.4944,1.0,1.0,1.0
48.98,119.0111,1.0,1.0,1.0
48.99,107.4944,1.0,1.0,1.0
49.0,113.5056,1.0,1.0,1.0
49.01,131.4944,1.0,1.0,1.0
49.02,139.5056,1.0,1.0,1.0
49.03,145.0,1.0,1.0,1.0
49.04,122.5056,1.0,1.0,1.0
49.05,118.4944,1.0,1.0,1.0
49.06,97.0111,1.0,1.0,1.0
49.07,106.0,1.0,1.0,1.0
49.08,114.9889,1.0,1.0,1.0
49.09,109.9889,1.0,1.0,1.0
49.1,110.5056,1.0,1.0,1.0
49.11,115.0111,1.0,1.0,1.0
49.12,100.9889,1.0,1.0,1.0
49.13,91.5056,1.0,1.0,1.0
49.14,106.0,1.0,1.0,1.0
49.15,111.0,1.0,1.0,1.0
49.16,91.0,1.0,1.0,1.0
49.17,106.0,1.0,1.0,1.0
49.18,100.5056,1.0,1.0,1.0
49.19,84.9889,1.0,1.0,1.0
49.2,99.0,1.0,1.0,1.0
49.21,91.0,1.0,1.0,1.0
49.22,95.0111,1.0,1.0,1.0
49.23,82.5056,1.0,1.0,1.0
49.24,90.4944,1.0,1.0,1.0
49.25,79.0,1.0,1.0,1.0
49.26,75.9889,1.0,1.0,1.0
49.27,83.5167,1.0,1.0,1.0
49.28,70.9889,1.0,1.0,1.0
49.29,73.9889,1.0,1.0,1.0
49.3,67.0222,1.0,1.0,1.0
49.31,91.9778,1.0,1.0,1.0
49.32,95.0111,1.0,1.0,1.0
49.33,59.5056,1.0,1.0,1.0
49.34,70.5056,1.0,1.0,1.0
49.35,71.9889,1.0,1.0,1.0
49.36,84.4833,1.0,1.0,1.0
49.37,82.5056,1.0,1.0,1.0
49.38,79.0,1.0,1.0,1.0
49.39,93.0111,1.0,1.0,1.0
49.4,75.0111,1.0,1.0,1.0
49.41,68.4833,1.0,1.0,1.0
49.42,46.5056,1.0,1.0,1.0
49.43,55.0111,1.0,1.0,1.0
49.44,68.4944,1.0,1.0,1.0
49.45,67.5056,1.0,1.0,1.0
49.46,73.4944,1.0,1.0,1.0
49.47,75.0,1.0,1.0,1.0
49.48,76.0,1.0,1.0,1.0
49.49,55.0,1.0,1.0,1.0
49.5,60.4833,1.0,1.0,1.0
49.51,71.5167,1.0,1.0,1.0
49.52,66.4944,1.0,1.0,1.0
49.53,57.5056,1.0,1.0,1.0
49.54,63.5056,1.0,1.0,1.0
49.55,91.9889,1.0,1.0,1.0
49.56,89.0111,1.0,1.0,1.0
49.57,64.4944,1.0,1.0,1.0
49.58,65.4944,1.0,1.0,1.0
49.59,76.5056,1.0,1.0,1.0
49.6,76.4944,1.0,1.0,1.0
49.61,73.5056,1.0,1.0,1.0
49.62,70.0,1.0,1.0,1.0
49.63,62.0,1.0,1.0,1.0
49.64,80.4944,1.0,1.0,1.0
49.65,80.4944,1.0,1.0,1.0
49.66,93.0,1.0,1.0,1.0
49.67,67.5056,1.0,1.0,1.0
49.68,84.0111,1.0,1.0,1.0
49.69,71.0,1.0,1.0,1.0
49.7,82.0,1.0,1.0,1.0
49.71,80.4833,1.0,1.0,1.0
49.72,94.0111,1.0,1.0,1.0
49.73,93.4944,1.0,1.0,1.0
49.74,75.0,1.0,1.0,1.0
49.75,73.5056,1.0,1.0,1.0
49.76,61.4944,1.0,1.0,1.0
49.77,95.4944,1.0,1.0,1.0
49.78,84.5056,1.0,1.0,1.0
49.79,64.0,1.0,1.0,1.0
49.8,69.0111,1.0,1.0,1.0
49.81,68.9889,1.0,1.0,1.0
49.82,54.0111,1.0,1.0,1.0
49.83,72.4833,1.0,1.0,1.0
49.84,76.5056,1.0,1.0,1.0
49.85,71.0,1.0,1.0,1.0
49.86,75.0111,1.0,1.0,1.0
49.87,62.0,1.0,1.0,1.0
49.88,52.9889,1.0,1.0,1.0
49.89,65.0111,1.0,1.0,1.0
49.9,77.9889,1.0,1.0,1.0
49.91,62.5056,1.0,1.0,1.0
49.92,51.0,1.0,1.0,1.0
49.93,76.0,1.0,1.0,1.0
49.94,62.5056,1.0,1.0,1.0
49.95,32.4944,1.0,1.0,1.0
49.96,66.4833,1.0,1.0,1.0
49.97,63.5167,1.0,1.0,1.0
49.98,52.0,1.0,1.0,1.0
49.99,58.9889,1.0,1.0,1.0
50.0,39.0111,1.0,1.0,1.0
50.01,45.4944,1.0,1.0,1.0
50.02,46.0111,1.0,1.0,1.0
50.03,48.4944,1.0,1.0,1.0
50.04,46.4833,1.0,1.0,1.0
50.05,123.4944,1.0,1.0,1.0
50.06,57.5167,1.0,1.0,1.0
50.07,37.0111,1.0,1.0,1.0
50.08,61.0,1.0,1.0,1.0
50.09,57.0,1.0,1.0,1.0
50.1,56.9889,1.0,1.0,1.0
50.11,35.0111,1.0,1.0,1.0
50.12,61.4944,1.0,1.0,1.0
50.13,69.5056,1.0,1.0,1.0
50.14,73.9889,1.0,1.0,1.0
50.15,38.0111,1.0,1.0,1.0
50.16,67.4944,1.0,1.0,1.0
50.17,44.0,1.0,1.0,1.0
50.18,51.5056,1.0,1.0,1.0
50.19,75.0,1.0,1.0,1.0
50.2,57.0,1.0,1.0,1.0
50.21,66.9889,1.0,1.0,1.0
50.22,68.9889,1.0,1.0,1.0
50.23,61.0111,1.0,1.0,1.0
50.24,51.5056,1.0,1.0,1.0
50.25,48.5056,1.0,1.0,1.0
50.26,60.4944,1.0,1.0,1.0
50.27,58.0,1.0,1.0,1.0
50.28,52.0,1.0,1.0,1.0
50.29,75.9889,1.0,1.0,1.0
50.3,53.5056,1.0,1.0,1.0
50.31,41.0111,1.0,1.0,1.0
50.32,55.9889,1.0,1.0,1.0
50.33,61.0,1.0,1.0,1.0
50.34,35.0111,1.0,1.0,1.0
50.35,44.4944,1.0,1.0,1.0
50.36,35.5056,1.0,1.0,1.0
50.37,65.0,1.0,1.0,1.0
50.38,49.4944,1.0,1.0,1.0
50.39,47.0,1.0,1.0,1.0
50.4,67.0,1.0,1.0,1.0
50.41,56.4944,1.0,1.0,1.0
50.42,66.0,1.0,1.0,1.0
50.43,52.5056,1.0,1.0,1.0
50.44,57.0,1.0,1.0,1.0
50.45,55.0,1.0,1.0,1.0
50.46,68.0,1.0,1.0,1.0
50.47,52.5056,1.0,1.0,1.0
50.48,55.4944,1.0,1.0,1.0
50.49,55.5056,1.0,1.0,1.0
50.5,54.0,1.0,1.0,1.0
50.51,49.9889,1.0,1.0,1.0
50.52,40.5056,1.0,1.0,1.0
50.53,35.5056,1.0,1.0,1.0
50.54,56.0,1.0,1.0,1.0
50.55,48.9889,1.0,1.0,1.0
50.56,55.5056,1.0,1.0,1.0
50.57,52.0,1.0,1.0,1.0
50.58,40.0,1.0,1.0,1.0
50.59,45.4944,1.0,1.0,1.0
50.6,45.0111,1.0,1.0,1.0
50.61,51.4944,1.0,1.0,1.0
50.62,67.4944,1.0,1.0,1.0
50.63,28.0111,1.0,1.0,1.0
50.64,50.0,1.0,1.0,1.0
50.65,38.0,1.0,1.0,1.0
50.66,42.0,1.0,1.0,1.0
50.67,47.0,1.0,1.0,1.0
50.68,46.4944,1.0,1.0,1.0
50.69,36.5056,1.0,1.0,1.0
50.7,37.0,1.0,1.0,1.0
50.71,60.0,1.0,1.0,1.0
50.72,43.0,1.0,1.0,1.0
50.73,53.0,1.0,1.0,1.0
50.74,41.0,1.0,1.0,1.0
50.75,37.4833,1.0,1.0,1.0
50.76,49.5167,1.0,1.0,1.0
50.77,29.4944,1.0,1.0,1.0
50.78,54.5056,1.0,1.0,1.0
50.79,37.0,1.0,1.0,1.0
50.8,45.0,1.0,1.0,1.0
50.81,38.0,1.0,1.0,1.0
50.82,40.4944,1.0,1.0,1.0
50.83,53.0,1.0,1.0,1.0
50.84,37.0,1.0,1.0,1.0
50.85,47.5056,1.0,1.0,1.0
50.86,45.0,1.0,1.0,1.0
50.87,63.0,1.0,1.0,1.0
50.88,50.0,1.0,1.0,1.0
50.89,28.4944,1.0,1.0,1.0
50.9,52.5056,1.0,1.0,1.0
50.91,48.9889,1.0,1.0,1.0
50.92,67.0111,1.0,1.0,1.0
50.93,46.4944,1.0,1.0,1.0
50.94,33.5056,1.0,1.0,1.0
50.95,52.4944,1.0,1.0,1.0
50.96,45.0,1.0,1.0,1.0
50.97,42.5056,1.0,1.0,1.0
50.98,53.4944,1.0,1.0,1.0
50.99,49.0,1.0,1.0,1.0
51.0,59.5056,1.0,1.0,1.0
51.01,47.0,1.0,1.0,1.0
51.02,56.0,1.0,1.0,1.0
51.03,34.9889,1.0,1.0,1.0
51.04,52.5056,1.0,1.0,1.0
51.05,49.0,1.0,1.0,1.0
51.06,37.5056,1.0,1.0,1.0
51.07,36.0,1.0,1.0,1.0
51.08,49.0,1.0,1.0,1.0
51.09,51.4944,1.0,1.0,1.0
51.1,47.0,1.0,1.0,1.0
51.11,34.5056,1.0,1.0,1.0
51.12,39.4944,1.0,1.0,1.0
51.13,37.0,1.0,1.0,1.0
51.14,39.4944,1.0,1.0,1.0
51.15,48.5056,1.0,1.0,1.0
51.16,57.9889,1.0,1.0,1.0
51.17,44.0111,1.0,1.0,1.0
51.18,47.0,1.0,1.0,1.0
51.19,34.4944,1.0,1.0,1.0
51.2,42.5056,1.0,1.0,1.0
51.21,62.5056,1.0,1.0,1.0
51.22,39.4944,1.0,1.0,1.0
51.23,37.4944,1.0,1.0,1.0
51.24,29.0,1.0,1.0,1.0
51.25,48.0111,1.0,1.0,1.0
51.26,33.0,1.0,1.0,1.0
51.27,33.9778,1.0,1.0,1.0
51.28,44.5167,1.0,1.0,1.0
51.29,40.0,1.0,1.0,1.0
51.3,45.4944,1.0,1.0,1.0
51.31,53.0,1.0,1.0,1.0
51.32,58.5056,1.0,1.0,1.0
51.33,35.4944,1.0,1.0,1.0
51.34,27.5056,1.0,1.0,1.0
51.35,54.0,1.0,1.0,1.0
51.36,46.0,1.0,1.0,1.0
51.37,40.9889,1.0,1.0,1.0
51.38,36.5056,1.0,1.0,1.0
51.39,45.5056,1.0,1.0,1.0
51.4,28.0,1.0,1.0,1.0
51.41,36.5056,1.0,1.0,1.0
51.42,25.0,1.0,1.0,1.0
51.43,32.4944,1.0,1.0,1.0
51.44,35.5056,1.0,1.0,1.0
51.45,37.0,1.0,1.0,1.0
51.46,22.0,1.0,1.0,1.0
51.47,37.0,1.0,1.0,1.0
51.48,35.0,1.0,1.0,1.0
51.49,30.0,1.0,1.0,1.0
51.5,16.0,1.0,1.0,1.0
51.51,31.9889,1.0,1.0,1.0
51.52,51.5056,1.0,1.0,1.0
51.53,38.4944,1.0,1.0,1.0
51.54,41.5056,1.0,1.0,1.0
51.55,36.0,1.0,1.0,1.0
51.56,35.5056,1.0,1.0,1.0
51.57,48.9889,1.0,1.0,1.0
51.58,36.0,1.0,1.0,1.0
51.59,32.5056,1.0,1.0,1.0
51.6,50.5056,1.0,1.0,1.0
51.61,31.4944,1.0,1.0,1.0
51.62,52.9889,1.0,1.0,1.0
51.63,55.5167,1.0,1.0,1.0
51.64,46.4944,1.0,1.0,1.0
51.65,34.5056,1.0,1.0,1.0
51.66,35.0,1.0,1.0,1.0
51.67,26.0,1.0,1.0,1.0
51.68,26.0,1.0,1.0,1.0
51.69,38.4944,1.0,1.0,1.0
51.7,31.0,1.0,1.0,1.0
51.71,38.0,1.0,1.0,1.0
51.72,49.4944,1.0,1.0,1.0
51.73,52.0,1.0,1.0,1.0
51.74,31.5056,1.0,1.0,1.0
51.75,39.0,1.0,1.0,1.0
51.76,34.5056,1.0,1.0,1.0
51.77,33.4944,1.0,1.0,1.0
51.78,30.5056,1.0,1.0,1.0
51.79,35.4944,1.0,1.0,1.0
51.8,41.0,1.0,1.0,1.0
51.81,29.5056,1.0,1.0,1.0
51.82,33.0,1.0,1.0,1.0
51.83,41.4944,1.0,1.0,1.0
51.84,42.0,1.0,1.0,1.0
51.85,32.5056,1.0,1.0,1.0
51.86,43.0,1.0,1.0,1.0
51.87,25.4833,1.0,1.0,1.0
51.88,34.0111,1.0,1.0,1.0
51.89,34.0,1.0,1.0,1.0
51.9,40.5056,1.0,1.0,1.0
51.91,38.4833,1.0,1.0,1.0
51.92,36.0111,1.0,1.0,1.0
51.93,38.0,1.0,1.0,1.0
51.94,19.5056,1.0,1.0,1.0
51.95,46.4944,1.0,1.0,1.0
51.96,42.9889,1.0,1.0,1.0
51.97,26.5167,1.0,1.0,1.0
51.98,37.0,1.0,1.0,1.0
51.99,29.0,1.0,1.0,1.0
52.0,35.0,1.0,1.0,1.0