File: XRD:XRR/STO/22149_STOL/22149_STOL_XRD.csv
#twotheta, yobs, ycal, bkg, diff
42.0,12.0,1.0,1.0,1.0
42.01,14.4944,1.0,1.0,1.0
42.02,21.0,1.0,1.0,1.0
42.03,18.4944,1.0,1.0,1.0
42.04,9.0111,1.0,1.0,1.0
42.05,23.0,1.0,1.0,1.0
42.06,6.0,1.0,1.0,1.0
42.07,10.0,1.0,1.0,1.0
42.08,18.0,1.0,1.0,1.0
42.09,20.0,1.0,1.0,1.0
42.1,8.0,1.0,1.0,1.0
42.11,15.0,1.0,1.0,1.0
42.12,14.4944,1.0,1.0,1.0
42.13,28.5056,1.0,1.0,1.0
42.14,15.0,1.0,1.0,1.0
42.15,8.4944,1.0,1.0,1.0
42.16,18.0,1.0,1.0,1.0
42.17,27.5056,1.0,1.0,1.0
42.18,10.0,1.0,1.0,1.0
42.19,24.0,1.0,1.0,1.0
42.2,19.0,1.0,1.0,1.0
42.21,18.0,1.0,1.0,1.0
42.22,24.0,1.0,1.0,1.0
42.23,19.0,1.0,1.0,1.0
42.24,8.0,1.0,1.0,1.0
42.25,18.9889,1.0,1.0,1.0
42.26,22.0111,1.0,1.0,1.0
42.27,21.0,1.0,1.0,1.0
42.28,14.0,1.0,1.0,1.0
42.29,15.0,1.0,1.0,1.0
42.3,25.0,1.0,1.0,1.0
42.31,6.0,1.0,1.0,1.0
42.32,18.4944,1.0,1.0,1.0
42.33,32.5056,1.0,1.0,1.0
42.34,16.0,1.0,1.0,1.0
42.35,17.0,1.0,1.0,1.0
42.36,18.9889,1.0,1.0,1.0
42.37,20.0111,1.0,1.0,1.0
42.38,24.0,1.0,1.0,1.0
42.39,21.0,1.0,1.0,1.0
42.4,36.0,1.0,1.0,1.0
42.41,27.9889,1.0,1.0,1.0
42.42,16.0111,1.0,1.0,1.0
42.43,30.0,1.0,1.0,1.0
42.44,13.0,1.0,1.0,1.0
42.45,25.0,1.0,1.0,1.0
42.46,34.0,1.0,1.0,1.0
42.47,17.0,1.0,1.0,1.0
42.48,33.0,1.0,1.0,1.0
42.49,28.9889,1.0,1.0,1.0
42.5,27.0111,1.0,1.0,1.0
42.51,31.0,1.0,1.0,1.0
42.52,34.9889,1.0,1.0,1.0
42.53,54.0111,1.0,1.0,1.0
42.54,43.0,1.0,1.0,1.0
42.55,26.0,1.0,1.0,1.0
42.56,31.0,1.0,1.0,1.0
42.57,18.4944,1.0,1.0,1.0
42.58,43.5056,1.0,1.0,1.0
42.59,31.4944,1.0,1.0,1.0
42.6,23.4944,1.0,1.0,1.0
42.61,41.5056,1.0,1.0,1.0
42.62,38.0,1.0,1.0,1.0
42.63,48.5056,1.0,1.0,1.0
42.64,38.0,1.0,1.0,1.0
42.65,54.4944,1.0,1.0,1.0
42.66,39.5056,1.0,1.0,1.0
42.67,27.0,1.0,1.0,1.0
42.68,42.9889,1.0,1.0,1.0
42.69,55.5056,1.0,1.0,1.0
42.7,55.5056,1.0,1.0,1.0
42.71,49.0,1.0,1.0,1.0
42.72,36.4944,1.0,1.0,1.0
42.73,54.0,1.0,1.0,1.0
42.74,39.0,1.0,1.0,1.0
42.75,36.0,1.0,1.0,1.0
42.76,46.5056,1.0,1.0,1.0
42.77,48.0,1.0,1.0,1.0
42.78,51.4944,1.0,1.0,1.0
42.79,50.5056,1.0,1.0,1.0
42.8,32.9889,1.0,1.0,1.0
42.81,48.5056,1.0,1.0,1.0
42.82,50.5056,1.0,1.0,1.0
42.83,38.0,1.0,1.0,1.0
42.84,50.4833,1.0,1.0,1.0
42.85,43.0111,1.0,1.0,1.0
42.86,48.4944,1.0,1.0,1.0
42.87,43.5056,1.0,1.0,1.0
42.88,41.0,1.0,1.0,1.0
42.89,57.5056,1.0,1.0,1.0
42.9,53.0,1.0,1.0,1.0
42.91,36.9889,1.0,1.0,1.0
42.92,50.5056,1.0,1.0,1.0
42.93,62.4944,1.0,1.0,1.0
42.94,42.0111,1.0,1.0,1.0
42.95,41.4944,1.0,1.0,1.0
42.96,23.0,1.0,1.0,1.0
42.97,42.0,1.0,1.0,1.0
42.98,67.5056,1.0,1.0,1.0
42.99,44.0,1.0,1.0,1.0
43.0,53.0,1.0,1.0,1.0
43.01,34.9889,1.0,1.0,1.0
43.02,53.0,1.0,1.0,1.0
43.03,45.5056,1.0,1.0,1.0
43.04,48.5056,1.0,1.0,1.0
43.05,51.0,1.0,1.0,1.0
43.06,42.0,1.0,1.0,1.0
43.07,39.4944,1.0,1.0,1.0
43.08,51.0,1.0,1.0,1.0
43.09,39.5056,1.0,1.0,1.0
43.1,35.4944,1.0,1.0,1.0
43.11,50.5056,1.0,1.0,1.0
43.12,34.4944,1.0,1.0,1.0
43.13,43.0,1.0,1.0,1.0
43.14,28.0,1.0,1.0,1.0
43.15,23.5056,1.0,1.0,1.0
43.16,38.4944,1.0,1.0,1.0
43.17,36.0,1.0,1.0,1.0
43.18,16.5056,1.0,1.0,1.0
43.19,34.0,1.0,1.0,1.0
43.2,42.4944,1.0,1.0,1.0
43.21,32.5056,1.0,1.0,1.0
43.22,33.0,1.0,1.0,1.0
43.23,34.4944,1.0,1.0,1.0
43.24,27.5056,1.0,1.0,1.0
43.25,28.0,1.0,1.0,1.0
43.26,35.0,1.0,1.0,1.0
43.27,23.9889,1.0,1.0,1.0
43.28,33.0111,1.0,1.0,1.0
43.29,25.0,1.0,1.0,1.0
43.3,17.0,1.0,1.0,1.0
43.31,25.0,1.0,1.0,1.0
43.32,13.0,1.0,1.0,1.0
43.33,19.0,1.0,1.0,1.0
43.34,34.0,1.0,1.0,1.0
43.35,27.0,1.0,1.0,1.0
43.36,12.9889,1.0,1.0,1.0
43.37,21.0111,1.0,1.0,1.0
43.38,13.4944,1.0,1.0,1.0
43.39,24.5056,1.0,1.0,1.0
43.4,22.0,1.0,1.0,1.0
43.41,30.0,1.0,1.0,1.0
43.42,27.0,1.0,1.0,1.0
43.43,11.0,1.0,1.0,1.0
43.44,20.4944,1.0,1.0,1.0
43.45,31.5056,1.0,1.0,1.0
43.46,12.9889,1.0,1.0,1.0
43.47,18.5056,1.0,1.0,1.0
43.48,13.5056,1.0,1.0,1.0
43.49,15.0,1.0,1.0,1.0
43.5,20.0,1.0,1.0,1.0
43.51,9.0,1.0,1.0,1.0
43.52,13.0,1.0,1.0,1.0
43.53,19.0,1.0,1.0,1.0
43.54,14.0,1.0,1.0,1.0
43.55,23.0,1.0,1.0,1.0
43.56,36.0,1.0,1.0,1.0
43.57,18.0,1.0,1.0,1.0
43.58,21.0,1.0,1.0,1.0
43.59,20.0,1.0,1.0,1.0
43.6,25.0,1.0,1.0,1.0
43.61,31.4833,1.0,1.0,1.0
43.62,22.5167,1.0,1.0,1.0
43.63,16.0,1.0,1.0,1.0
43.64,25.0,1.0,1.0,1.0
43.65,10.0,1.0,1.0,1.0
43.66,31.9889,1.0,1.0,1.0
43.67,23.0111,1.0,1.0,1.0
43.68,23.4944,1.0,1.0,1.0
43.69,22.5056,1.0,1.0,1.0
43.7,37.4944,1.0,1.0,1.0
43.71,51.4833,1.0,1.0,1.0
43.72,36.0222,1.0,1.0,1.0
43.73,51.0,1.0,1.0,1.0
43.74,33.0,1.0,1.0,1.0
43.75,31.4944,1.0,1.0,1.0
43.76,50.5056,1.0,1.0,1.0
43.77,62.0,1.0,1.0,1.0
43.78,47.9889,1.0,1.0,1.0
43.79,38.5056,1.0,1.0,1.0
43.8,44.0,1.0,1.0,1.0
43.81,51.0,1.0,1.0,1.0
43.82,52.0,1.0,1.0,1.0
43.83,67.5056,1.0,1.0,1.0
43.84,56.0,1.0,1.0,1.0
43.85,55.9889,1.0,1.0,1.0
43.86,84.5056,1.0,1.0,1.0
43.87,93.9889,1.0,1.0,1.0
43.88,70.5056,1.0,1.0,1.0
43.89,85.0,1.0,1.0,1.0
43.9,126.5056,1.0,1.0,1.0
43.91,78.9889,1.0,1.0,1.0
43.92,87.4944,1.0,1.0,1.0
43.93,112.0111,1.0,1.0,1.0
43.94,109.5056,1.0,1.0,1.0
43.95,87.0,1.0,1.0,1.0
43.96,122.5056,1.0,1.0,1.0
43.97,139.4833,1.0,1.0,1.0
43.98,142.0111,1.0,1.0,1.0
43.99,147.4833,1.0,1.0,1.0
44.0,154.0111,1.0,1.0,1.0
44.01,155.4833,1.0,1.0,1.0
44.02,146.0111,1.0,1.0,1.0
44.03,168.9889,1.0,1.0,1.0
44.04,172.4944,1.0,1.0,1.0
44.05,172.0111,1.0,1.0,1.0
44.06,160.5167,1.0,1.0,1.0
44.07,144.4944,1.0,1.0,1.0
44.08,209.9778,1.0,1.0,1.0
44.09,209.5167,1.0,1.0,1.0
44.1,198.0,1.0,1.0,1.0
44.11,233.4833,1.0,1.0,1.0
44.12,182.0222,1.0,1.0,1.0
44.13,219.4944,1.0,1.0,1.0
44.14,242.4833,1.0,1.0,1.0
44.15,255.0,1.0,1.0,1.0
44.16,262.0111,1.0,1.0,1.0
44.17,247.5167,1.0,1.0,1.0
44.18,281.9667,1.0,1.0,1.0
44.19,251.0222,1.0,1.0,1.0
44.2,251.9889,1.0,1.0,1.0
44.21,259.9667,1.0,1.0,1.0
44.22,267.0333,1.0,1.0,1.0
44.23,262.5167,1.0,1.0,1.0
44.24,272.4833,1.0,1.0,1.0
44.25,315.4944,1.0,1.0,1.0
44.26,273.5056,1.0,1.0,1.0
44.27,332.9889,1.0,1.0,1.0
44.28,302.5167,1.0,1.0,1.0
44.29,302.4833,1.0,1.0,1.0
44.3,357.4722,1.0,1.0,1.0
44.31,319.0333,1.0,1.0,1.0
44.32,328.4944,1.0,1.0,1.0
44.33,343.0,1.0,1.0,1.0
44.34,355.5056,1.0,1.0,1.0
44.35,360.5167,1.0,1.0,1.0
44.36,386.9667,1.0,1.0,1.0
44.37,419.0111,1.0,1.0,1.0
44.38,411.9778,1.0,1.0,1.0
44.39,416.4944,1.0,1.0,1.0
44.4,445.0444,1.0,1.0,1.0
44.41,451.0,1.0,1.0,1.0
44.42,465.4833,1.0,1.0,1.0
44.43,445.9889,1.0,1.0,1.0
44.44,472.0222,1.0,1.0,1.0
44.45,485.9889,1.0,1.0,1.0
44.46,468.9889,1.0,1.0,1.0
44.47,506.0111,1.0,1.0,1.0
44.48,495.4944,1.0,1.0,1.0
44.49,523.4944,1.0,1.0,1.0
44.5,536.4722,1.0,1.0,1.0
44.51,559.5278,1.0,1.0,1.0
44.52,553.4944,1.0,1.0,1.0
44.53,536.9889,1.0,1.0,1.0
44.54,583.5056,1.0,1.0,1.0
44.55,623.9667,1.0,1.0,1.0
44.56,563.0333,1.0,1.0,1.0
44.57,621.4833,1.0,1.0,1.0
44.58,652.0444,1.0,1.0,1.0
44.59,654.9333,1.0,1.0,1.0
44.6,650.0667,1.0,1.0,1.0
44.61,597.9667,1.0,1.0,1.0
44.62,678.4833,1.0,1.0,1.0
44.63,617.0,1.0,1.0,1.0
44.64,654.5278,1.0,1.0,1.0
44.65,648.4722,1.0,1.0,1.0
44.66,679.5167,1.0,1.0,1.0
44.67,685.9778,1.0,1.0,1.0
44.68,711.0111,1.0,1.0,1.0
44.69,680.9889,1.0,1.0,1.0
44.7,712.0333,1.0,1.0,1.0
44.71,703.9778,1.0,1.0,1.0
44.72,713.5167,1.0,1.0,1.0
44.73,686.9778,1.0,1.0,1.0
44.74,712.4944,1.0,1.0,1.0
44.75,722.4944,1.0,1.0,1.0
44.76,734.4722,1.0,1.0,1.0
44.77,793.5389,1.0,1.0,1.0
44.78,826.45,1.0,1.0,1.0
44.79,763.5833,1.0,1.0,1.0
44.8,763.4389,1.0,1.0,1.0
44.81,799.5389,1.0,1.0,1.0
44.82,842.5056,1.0,1.0,1.0
44.83,809.9556,1.0,1.0,1.0
44.84,832.0222,1.0,1.0,1.0
44.85,783.0111,1.0,1.0,1.0
44.86,812.4833,1.0,1.0,1.0
44.87,786.4611,1.0,1.0,1.0
44.88,821.5056,1.0,1.0,1.0
44.89,825.0333,1.0,1.0,1.0
44.9,844.4944,1.0,1.0,1.0
44.91,859.5056,1.0,1.0,1.0
44.92,874.55,1.0,1.0,1.0
44.93,851.4389,1.0,1.0,1.0
44.94,862.4833,1.0,1.0,1.0
44.95,923.4611,1.0,1.0,1.0
44.96,854.55,1.0,1.0,1.0
44.97,871.4833,1.0,1.0,1.0
44.98,889.0333,1.0,1.0,1.0
44.99,892.0111,1.0,1.0,1.0
45.0,840.9778,1.0,1.0,1.0
45.01,879.0111,1.0,1.0,1.0
45.02,849.5278,1.0,1.0,1.0
45.03,874.9889,1.0,1.0,1.0
45.04,908.9889,1.0,1.0,1.0
45.05,901.0111,1.0,1.0,1.0
45.06,887.4722,1.0,1.0,1.0
45.07,964.4833,1.0,1.0,1.0
45.08,838.0555,1.0,1.0,1.0
45.09,899.4611,1.0,1.0,1.0
45.1,882.5167,1.0,1.0,1.0
45.11,877.45,1.0,1.0,1.0
45.12,873.0667,1.0,1.0,1.0
45.13,932.4833,1.0,1.0,1.0
45.14,881.4833,1.0,1.0,1.0
45.15,921.5389,1.0,1.0,1.0
45.16,879.4833,1.0,1.0,1.0
45.17,922.5056,1.0,1.0,1.0
45.18,896.9778,1.0,1.0,1.0
45.19,905.4833,1.0,1.0,1.0
45.2,961.0,1.0,1.0,1.0
45.21,895.4833,1.0,1.0,1.0
45.22,927.5278,1.0,1.0,1.0
45.23,895.4722,1.0,1.0,1.0
45.24,861.0667,1.0,1.0,1.0
45.25,899.9889,1.0,1.0,1.0
45.26,937.9667,1.0,1.0,1.0
45.27,936.4833,1.0,1.0,1.0
45.28,874.5611,1.0,1.0,1.0
45.29,892.5056,1.0,1.0,1.0
45.3,899.45,1.0,1.0,1.0
45.31,862.55,1.0,1.0,1.0
45.32,872.9667,1.0,1.0,1.0
45.33,911.9889,1.0,1.0,1.0
45.34,869.0111,1.0,1.0,1.0
45.35,858.4944,1.0,1.0,1.0
45.36,867.5167,1.0,1.0,1.0
45.37,816.0,1.0,1.0,1.0
45.38,835.9778,1.0,1.0,1.0
45.39,812.5056,1.0,1.0,1.0
45.4,885.0,1.0,1.0,1.0
45.41,808.0111,1.0,1.0,1.0
45.42,847.0111,1.0,1.0,1.0
45.43,833.9667,1.0,1.0,1.0
45.44,841.0,1.0,1.0,1.0
45.45,896.5278,1.0,1.0,1.0
45.46,783.9778,1.0,1.0,1.0
45.47,785.0444,1.0,1.0,1.0
45.48,769.45,1.0,1.0,1.0
45.49,771.5167,1.0,1.0,1.0
45.5,743.4944,1.0,1.0,1.0
45.51,812.5167,1.0,1.0,1.0
45.52,766.55,1.0,1.0,1.0
45.53,779.4389,1.0,1.0,1.0
45.54,758.0222,1.0,1.0,1.0
45.55,730.5056,1.0,1.0,1.0
45.56,742.45,1.0,1.0,1.0
45.57,784.0222,1.0,1.0,1.0
45.58,693.0,1.0,1.0,1.0
45.59,690.5278,1.0,1.0,1.0
45.6,666.4944,1.0,1.0,1.0
45.61,716.9889,1.0,1.0,1.0
45.62,707.5167,1.0,1.0,1.0
45.63,693.0111,1.0,1.0,1.0
45.64,684.9778,1.0,1.0,1.0
45.65,647.9889,1.0,1.0,1.0
45.66,686.0333,1.0,1.0,1.0
45.67,686.4722,1.0,1.0,1.0
45.68,659.0,1.0,1.0,1.0
45.69,658.0222,1.0,1.0,1.0
45.7,613.0,1.0,1.0,1.0
45.71,652.4833,1.0,1.0,1.0
45.72,646.9778,1.0,1.0,1.0
45.73,587.5389,1.0,1.0,1.0
45.74,589.9889,1.0,1.0,1.0
45.75,570.0111,1.0,1.0,1.0
45.76,636.5056,1.0,1.0,1.0
45.77,596.4611,1.0,1.0,1.0
45.78,584.0,1.0,1.0,1.0
45.79,535.0555,1.0,1.0,1.0
45.8,520.45,1.0,1.0,1.0
45.81,571.5611,1.0,1.0,1.0
45.82,549.4833,1.0,1.0,1.0
45.83,535.4722,1.0,1.0,1.0
45.84,510.5278,1.0,1.0,1.0
45.85,503.4944,1.0,1.0,1.0
45.86,534.4611,1.0,1.0,1.0
45.87,498.0444,1.0,1.0,1.0
45.88,522.4833,1.0,1.0,1.0
45.89,456.0111,1.0,1.0,1.0
45.9,429.4833,1.0,1.0,1.0
45.91,505.5056,1.0,1.0,1.0
45.92,491.5056,1.0,1.0,1.0
45.93,437.0111,1.0,1.0,1.0
45.94,424.9667,1.0,1.0,1.0
45.95,460.5056,1.0,1.0,1.0
45.96,437.5056,1.0,1.0,1.0
45.97,429.5056,1.0,1.0,1.0
45.98,449.0333,1.0,1.0,1.0
45.99,362.0,1.0,1.0,1.0
46.0,421.9556,1.0,1.0,1.0
46.01,461.5167,1.0,1.0,1.0
46.02,371.0111,1.0,1.0,1.0
46.03,389.4944,1.0,1.0,1.0
46.04,370.0222,1.0,1.0,1.0
46.05,381.0,1.0,1.0,1.0
46.06,344.4833,1.0,1.0,1.0
46.07,407.5167,1.0,1.0,1.0
46.08,374.0,1.0,1.0,1.0
46.09,359.9889,1.0,1.0,1.0
46.1,357.4833,1.0,1.0,1.0
46.11,354.0,1.0,1.0,1.0
46.12,374.0222,1.0,1.0,1.0
46.13,342.5167,1.0,1.0,1.0
46.14,321.9778,1.0,1.0,1.0
46.15,323.0222,1.0,1.0,1.0
46.16,316.9889,1.0,1.0,1.0
46.17,330.5056,1.0,1.0,1.0
46.18,336.4722,1.0,1.0,1.0
46.19,306.5278,1.0,1.0,1.0
46.2,304.9889,1.0,1.0,1.0
46.21,267.5056,1.0,1.0,1.0
46.22,308.0,1.0,1.0,1.0
46.23,315.0111,1.0,1.0,1.0
46.24,260.5056,1.0,1.0,1.0
46.25,286.9556,1.0,1.0,1.0
46.26,306.5389,1.0,1.0,1.0
46.27,273.4833,1.0,1.0,1.0
46.28,275.5278,1.0,1.0,1.0
46.29,264.4722,1.0,1.0,1.0
46.3,280.5056,1.0,1.0,1.0
46.31,288.4944,1.0,1.0,1.0
46.32,284.0,1.0,1.0,1.0
46.33,240.4833,1.0,1.0,1.0
46.34,269.5278,1.0,1.0,1.0
46.35,282.5056,1.0,1.0,1.0
46.36,278.4944,1.0,1.0,1.0
46.37,281.4944,1.0,1.0,1.0
46.38,278.5056,1.0,1.0,1.0
46.39,256.5056,1.0,1.0,1.0
46.4,252.9889,1.0,1.0,1.0
46.41,285.9889,1.0,1.0,1.0
46.42,277.0111,1.0,1.0,1.0
46.43,286.0,1.0,1.0,1.0
46.44,240.9889,1.0,1.0,1.0
46.45,260.5167,1.0,1.0,1.0
46.46,275.4833,1.0,1.0,1.0
46.47,283.5167,1.0,1.0,1.0
46.48,234.0111,1.0,1.0,1.0
46.49,264.9778,1.0,1.0,1.0
46.5,281.9889,1.0,1.0,1.0
46.51,258.0111,1.0,1.0,1.0
46.52,252.0,1.0,1.0,1.0
46.53,284.4944,1.0,1.0,1.0
46.54,293.5056,1.0,1.0,1.0
46.55,264.0111,1.0,1.0,1.0
46.56,270.5056,1.0,1.0,1.0
46.57,241.4722,1.0,1.0,1.0
46.58,280.0111,1.0,1.0,1.0
46.59,249.4944,1.0,1.0,1.0
46.6,257.5056,1.0,1.0,1.0
46.61,257.9889,1.0,1.0,1.0
46.62,279.0222,1.0,1.0,1.0
46.63,230.9889,1.0,1.0,1.0
46.64,273.0,1.0,1.0,1.0
46.65,230.9889,1.0,1.0,1.0
46.66,268.0111,1.0,1.0,1.0
46.67,282.0111,1.0,1.0,1.0
46.68,289.0,1.0,1.0,1.0
46.69,293.4833,1.0,1.0,1.0
46.7,303.5167,1.0,1.0,1.0
46.71,270.9889,1.0,1.0,1.0
46.72,277.0,1.0,1.0,1.0
46.73,283.5056,1.0,1.0,1.0
46.74,295.4944,1.0,1.0,1.0
46.75,271.4833,1.0,1.0,1.0
46.76,312.0111,1.0,1.0,1.0
46.77,322.0111,1.0,1.0,1.0
46.78,327.4722,1.0,1.0,1.0
46.79,303.0333,1.0,1.0,1.0
46.8,293.4722,1.0,1.0,1.0
46.81,328.5056,1.0,1.0,1.0
46.82,332.5278,1.0,1.0,1.0
46.83,313.4833,1.0,1.0,1.0
46.84,338.9778,1.0,1.0,1.0
46.85,338.5278,1.0,1.0,1.0
46.86,333.4833,1.0,1.0,1.0
46.87,316.0,1.0,1.0,1.0
46.88,328.5056,1.0,1.0,1.0
46.89,310.0,1.0,1.0,1.0
46.9,321.5056,1.0,1.0,1.0
46.91,339.0111,1.0,1.0,1.0
46.92,336.9667,1.0,1.0,1.0
46.93,320.5389,1.0,1.0,1.0
46.94,321.4722,1.0,1.0,1.0
46.95,320.0222,1.0,1.0,1.0
46.96,383.0,1.0,1.0,1.0
46.97,370.5056,1.0,1.0,1.0
46.98,401.9778,1.0,1.0,1.0
46.99,368.4722,1.0,1.0,1.0
47.0,365.5167,1.0,1.0,1.0
47.01,392.9889,1.0,1.0,1.0
47.02,381.0222,1.0,1.0,1.0
47.03,338.5167,1.0,1.0,1.0
47.04,366.9889,1.0,1.0,1.0
47.05,503.9667,1.0,1.0,1.0
47.06,348.5278,1.0,1.0,1.0
47.07,371.0222,1.0,1.0,1.0
47.08,391.4944,1.0,1.0,1.0
47.09,373.9778,1.0,1.0,1.0
47.1,445.4944,1.0,1.0,1.0
47.11,416.0,1.0,1.0,1.0
47.12,427.9889,1.0,1.0,1.0
47.13,414.0444,1.0,1.0,1.0
47.14,436.4944,1.0,1.0,1.0
47.15,412.4944,1.0,1.0,1.0
47.16,435.4722,1.0,1.0,1.0
47.17,469.4833,1.0,1.0,1.0
47.18,434.0333,1.0,1.0,1.0
47.19,451.4833,1.0,1.0,1.0
47.2,428.4944,1.0,1.0,1.0
47.21,446.0333,1.0,1.0,1.0
47.22,468.9667,1.0,1.0,1.0
47.23,489.5167,1.0,1.0,1.0
47.24,448.4944,1.0,1.0,1.0
47.25,488.5389,1.0,1.0,1.0
47.26,482.9445,1.0,1.0,1.0
47.27,502.5056,1.0,1.0,1.0
47.28,499.0,1.0,1.0,1.0
47.29,450.4833,1.0,1.0,1.0
47.3,504.5056,1.0,1.0,1.0
47.31,502.0444,1.0,1.0,1.0
47.32,476.4611,1.0,1.0,1.0
47.33,531.0,1.0,1.0,1.0
47.34,545.9889,1.0,1.0,1.0
47.35,537.5278,1.0,1.0,1.0
47.36,536.4611,1.0,1.0,1.0
47.37,506.5722,1.0,1.0,1.0
47.38,616.9111,1.0,1.0,1.0
47.39,566.0333,1.0,1.0,1.0
47.4,565.0333,1.0,1.0,1.0
47.41,570.9889,1.0,1.0,1.0
47.42,580.9667,1.0,1.0,1.0
47.43,619.5167,1.0,1.0,1.0
47.44,598.9889,1.0,1.0,1.0
47.45,637.5167,1.0,1.0,1.0
47.46,693.9556,1.0,1.0,1.0
47.47,687.0222,1.0,1.0,1.0
47.48,692.0111,1.0,1.0,1.0
47.49,703.5056,1.0,1.0,1.0
47.5,724.9889,1.0,1.0,1.0
47.51,791.9778,1.0,1.0,1.0
47.52,757.5611,1.0,1.0,1.0
47.53,828.5167,1.0,1.0,1.0
47.54,778.9222,1.0,1.0,1.0
47.55,851.9889,1.0,1.0,1.0
47.56,910.0333,1.0,1.0,1.0
47.57,928.0111,1.0,1.0,1.0
47.58,964.9778,1.0,1.0,1.0
47.59,962.5167,1.0,1.0,1.0
47.6,1009.44,1.0,1.0,1.0
47.61,1115.53,1.0,1.0,1.0
47.62,1193.42,1.0,1.0,1.0
47.63,1244.59,1.0,1.0,1.0
47.64,1289.45,1.0,1.0,1.0
47.65,1299.48,1.0,1.0,1.0
47.66,1493.44,1.0,1.0,1.0
47.67,1522.08,1.0,1.0,1.0
47.68,1639.46,1.0,1.0,1.0
47.69,1759.0,1.0,1.0,1.0
47.7,1872.49,1.0,1.0,1.0
47.71,1964.44,1.0,1.0,1.0
47.72,2141.03,1.0,1.0,1.0
47.73,2452.49,1.0,1.0,1.0
47.74,2634.36,1.0,1.0,1.0
47.75,2949.06,1.0,1.0,1.0
47.76,3391.91,1.0,1.0,1.0
47.77,3774.94,1.0,1.0,1.0
47.78,4374.96,1.0,1.0,1.0
47.79,5617.17,1.0,1.0,1.0
47.8,7465.91,1.0,1.0,1.0
47.81,9702.15,1.0,1.0,1.0
47.82,12565.3,1.0,1.0,1.0
47.83,16916.7,1.0,1.0,1.0
47.84,19398.2,1.0,1.0,1.0
47.85,26719.5,1.0,1.0,1.0
47.86,37842,1.0,1.0,1.0
47.87,51570.3,1.0,1.0,1.0
47.88,69895.3,1.0,1.0,1.0
47.89,94972.6,1.0,1.0,1.0
47.9,136698,1.0,1.0,1.0
47.91,206252,1.0,1.0,1.0
47.92,333843,1.0,1.0,1.0
47.93,632949,1.0,1.0,1.0
47.94,2553168.25,1.0,1.0,1.0
47.95,19061714.0,1.0,1.0,1.0
47.96,34953080.0,1.0,1.0,1.0
47.97,12865865.0,1.0,1.0,1.0
47.98,2342095.0,1.0,1.0,1.0
47.99,677833,1.0,1.0,1.0
48.0,430230,1.0,1.0,1.0
48.01,321428,1.0,1.0,1.0
48.02,232374,1.0,1.0,1.0
48.03,158625,1.0,1.0,1.0
48.04,108066,1.0,1.0,1.0
48.05,76418.9,1.0,1.0,1.0
48.06,55840.4,1.0,1.0,1.0
48.07,42130.9,1.0,1.0,1.0
48.08,32105,1.0,1.0,1.0
48.09,24188.2,1.0,1.0,1.0
48.1,18839,1.0,1.0,1.0
48.11,14805,1.0,1.0,1.0
48.12,11475.2,1.0,1.0,1.0
48.13,9203.61,1.0,1.0,1.0
48.14,7469.12,1.0,1.0,1.0
48.15,6371.66,1.0,1.0,1.0
48.16,5102.23,1.0,1.0,1.0
48.17,4485.561,1.0,1.0,1.0
48.18,3862.48,1.0,1.0,1.0
48.19,3301.58,1.0,1.0,1.0
48.2,2996.02,1.0,1.0,1.0
48.21,2613.561,1.0,1.0,1.0
48.22,2264.02,1.0,1.0,1.0
48.23,1942.44,1.0,1.0,1.0
48.24,1866.09,1.0,1.0,1.0
48.25,1629.04,1.0,1.0,1.0
48.26,1533.55,1.0,1.0,1.0
48.27,1348.51,1.0,1.0,1.0
48.28,1321.48,1.0,1.0,1.0
48.29,1165.49,1.0,1.0,1.0
48.3,1127.54,1.0,1.0,1.0
48.31,1009.98,1.0,1.0,1.0
48.32,1016.49,1.0,1.0,1.0
48.33,912.55,1.0,1.0,1.0
48.34,821.9889,1.0,1.0,1.0
48.35,820.5056,1.0,1.0,1.0
48.36,787.5056,1.0,1.0,1.0
48.37,703.5167,1.0,1.0,1.0
48.38,618.9778,1.0,1.0,1.0
48.39,670.0111,1.0,1.0,1.0
48.4,617.4944,1.0,1.0,1.0
48.41,571.0333,1.0,1.0,1.0
48.42,557.4833,1.0,1.0,1.0
48.43,481.0222,1.0,1.0,1.0
48.44,468.0111,1.0,1.0,1.0
48.45,458.9778,1.0,1.0,1.0
48.46,403.4944,1.0,1.0,1.0
48.47,464.5056,1.0,1.0,1.0
48.48,394.4944,1.0,1.0,1.0
48.49,357.5167,1.0,1.0,1.0
48.5,361.5056,1.0,1.0,1.0
48.51,316.4944,1.0,1.0,1.0
48.52,317.5167,1.0,1.0,1.0
48.53,297.4944,1.0,1.0,1.0
48.54,300.0111,1.0,1.0,1.0
48.55,235.4833,1.0,1.0,1.0
48.56,229.0111,1.0,1.0,1.0
48.57,210.9889,1.0,1.0,1.0
48.58,235.0222,1.0,1.0,1.0
48.59,191.0,1.0,1.0,1.0
48.6,175.4833,1.0,1.0,1.0
48.61,205.4944,1.0,1.0,1.0
48.62,209.0222,1.0,1.0,1.0
48.63,154.0,1.0,1.0,1.0
48.64,173.4944,1.0,1.0,1.0
48.65,152.9889,1.0,1.0,1.0
48.66,132.5056,1.0,1.0,1.0
48.67,133.5167,1.0,1.0,1.0
48.68,139.5056,1.0,1.0,1.0
48.69,98.0,1.0,1.0,1.0
48.7,116.0,1.0,1.0,1.0
48.71,127.9778,1.0,1.0,1.0
48.72,142.5056,1.0,1.0,1.0
48.73,125.0111,1.0,1.0,1.0
48.74,114.0,1.0,1.0,1.0
48.75,108.9889,1.0,1.0,1.0
48.76,112.0,1.0,1.0,1.0
48.77,101.0111,1.0,1.0,1.0
48.78,86.5056,1.0,1.0,1.0
48.79,97.0,1.0,1.0,1.0
48.8,77.0,1.0,1.0,1.0
48.81,76.9889,1.0,1.0,1.0
48.82,87.0,1.0,1.0,1.0
48.83,63.0111,1.0,1.0,1.0
48.84,88.0,1.0,1.0,1.0
48.85,56.4944,1.0,1.0,1.0
48.86,75.4944,1.0,1.0,1.0
48.87,71.5056,1.0,1.0,1.0
48.88,74.4944,1.0,1.0,1.0
48.89,48.0111,1.0,1.0,1.0
48.9,71.0,1.0,1.0,1.0
48.91,56.4944,1.0,1.0,1.0
48.92,60.0,1.0,1.0,1.0
48.93,58.5056,1.0,1.0,1.0
48.94,58.4944,1.0,1.0,1.0
48.95,73.5056,1.0,1.0,1.0
48.96,47.4944,1.0,1.0,1.0
48.97,49.0,1.0,1.0,1.0
48.98,32.4944,1.0,1.0,1.0
48.99,45.0111,1.0,1.0,1.0
49.0,54.4944,1.0,1.0,1.0
49.01,38.0,1.0,1.0,1.0
49.02,54.5056,1.0,1.0,1.0
49.03,49.9889,1.0,1.0,1.0
49.04,50.0111,1.0,1.0,1.0
49.05,45.0,1.0,1.0,1.0
49.06,34.0,1.0,1.0,1.0
49.07,48.4944,1.0,1.0,1.0
49.08,30.5056,1.0,1.0,1.0
49.09,61.4944,1.0,1.0,1.0
49.1,31.5056,1.0,1.0,1.0
49.11,45.4944,1.0,1.0,1.0
49.12,36.0,1.0,1.0,1.0
49.13,23.5056,1.0,1.0,1.0
49.14,35.0,1.0,1.0,1.0
49.15,43.9889,1.0,1.0,1.0
49.16,40.5056,1.0,1.0,1.0
49.17,38.0,1.0,1.0,1.0
49.18,38.0,1.0,1.0,1.0
49.19,42.5056,1.0,1.0,1.0
49.2,41.0,1.0,1.0,1.0
49.21,38.9889,1.0,1.0,1.0
49.22,23.0111,1.0,1.0,1.0
49.23,44.4944,1.0,1.0,1.0
49.24,37.0,1.0,1.0,1.0
49.25,36.5056,1.0,1.0,1.0
49.26,40.0,1.0,1.0,1.0
49.27,28.0,1.0,1.0,1.0
49.28,44.4833,1.0,1.0,1.0
49.29,35.5167,1.0,1.0,1.0
49.3,42.9889,1.0,1.0,1.0
49.31,44.0,1.0,1.0,1.0
49.32,28.9889,1.0,1.0,1.0
49.33,23.5167,1.0,1.0,1.0
49.34,23.5056,1.0,1.0,1.0
49.35,40.0,1.0,1.0,1.0
49.36,39.0,1.0,1.0,1.0
49.37,39.9889,1.0,1.0,1.0
49.38,36.0111,1.0,1.0,1.0
49.39,14.0,1.0,1.0,1.0
49.4,35.0,1.0,1.0,1.0
49.41,29.0,1.0,1.0,1.0
49.42,17.0,1.0,1.0,1.0
49.43,28.0,1.0,1.0,1.0
49.44,31.4944,1.0,1.0,1.0
49.45,40.0,1.0,1.0,1.0
49.46,45.0,1.0,1.0,1.0
49.47,46.5056,1.0,1.0,1.0
49.48,23.9889,1.0,1.0,1.0
49.49,29.5056,1.0,1.0,1.0
49.5,36.5056,1.0,1.0,1.0
49.51,34.9889,1.0,1.0,1.0
49.52,28.0111,1.0,1.0,1.0
49.53,21.9889,1.0,1.0,1.0
49.54,23.0111,1.0,1.0,1.0
49.55,23.9889,1.0,1.0,1.0
49.56,15.0111,1.0,1.0,1.0
49.57,20.0,1.0,1.0,1.0
49.58,37.0,1.0,1.0,1.0
49.59,34.4944,1.0,1.0,1.0
49.6,23.0,1.0,1.0,1.0
49.61,22.4944,1.0,1.0,1.0
49.62,21.5056,1.0,1.0,1.0
49.63,29.5056,1.0,1.0,1.0
49.64,10.4944,1.0,1.0,1.0
49.65,21.0,1.0,1.0,1.0
49.66,28.0,1.0,1.0,1.0
49.67,36.5056,1.0,1.0,1.0
49.68,21.4944,1.0,1.0,1.0
49.69,24.0,1.0,1.0,1.0
49.7,15.5056,1.0,1.0,1.0
49.71,26.0,1.0,1.0,1.0
49.72,11.0,1.0,1.0,1.0
49.73,23.0,1.0,1.0,1.0
49.74,20.0,1.0,1.0,1.0
49.75,21.0,1.0,1.0,1.0
49.76,23.0,1.0,1.0,1.0
49.77,21.0,1.0,1.0,1.0
49.78,32.0,1.0,1.0,1.0
49.79,19.0,1.0,1.0,1.0
49.8,26.0,1.0,1.0,1.0
49.81,35.0,1.0,1.0,1.0
49.82,24.0,1.0,1.0,1.0
49.83,17.0,1.0,1.0,1.0
49.84,13.0,1.0,1.0,1.0
49.85,20.0,1.0,1.0,1.0
49.86,24.0,1.0,1.0,1.0
49.87,20.0,1.0,1.0,1.0
49.88,13.0,1.0,1.0,1.0
49.89,12.0,1.0,1.0,1.0
49.9,29.0,1.0,1.0,1.0
49.91,134.0,1.0,1.0,1.0
49.92,16.0,1.0,1.0,1.0
49.93,16.0,1.0,1.0,1.0
49.94,12.0,1.0,1.0,1.0
49.95,19.0,1.0,1.0,1.0
49.96,13.0,1.0,1.0,1.0
49.97,17.0,1.0,1.0,1.0
49.98,26.0,1.0,1.0,1.0
49.99,14.0,1.0,1.0,1.0
50.0,19.0,1.0,1.0,1.0
50.01,20.0,1.0,1.0,1.0
50.02,12.4944,1.0,1.0,1.0
50.03,14.5056,1.0,1.0,1.0
50.04,11.0,1.0,1.0,1.0
50.05,22.4944,1.0,1.0,1.0
50.06,16.5056,1.0,1.0,1.0
50.07,21.9889,1.0,1.0,1.0
50.08,18.0111,1.0,1.0,1.0
50.09,20.0,1.0,1.0,1.0
50.1,10.0,1.0,1.0,1.0
50.11,13.4944,1.0,1.0,1.0
50.12,6.5056,1.0,1.0,1.0
50.13,14.0,1.0,1.0,1.0
50.14,14.4944,1.0,1.0,1.0
50.15,9.5056,1.0,1.0,1.0
50.16,12.4944,1.0,1.0,1.0
50.17,19.4944,1.0,1.0,1.0
50.18,10.0111,1.0,1.0,1.0
50.19,6.0,1.0,1.0,1.0
50.2,9.4944,1.0,1.0,1.0
50.21,13.5056,1.0,1.0,1.0
50.22,7.0,1.0,1.0,1.0
50.23,7.0,1.0,1.0,1.0
50.24,9.4944,1.0,1.0,1.0
50.25,12.5056,1.0,1.0,1.0
50.26,15.4944,1.0,1.0,1.0
50.27,17.5056,1.0,1.0,1.0
50.28,11.0,1.0,1.0,1.0
50.29,9.0,1.0,1.0,1.0
50.3,11.4944,1.0,1.0,1.0
50.31,10.0,1.0,1.0,1.0
50.32,14.5056,1.0,1.0,1.0
50.33,18.0,1.0,1.0,1.0
50.34,5.0,1.0,1.0,1.0
50.35,13.0,1.0,1.0,1.0
50.36,15.0,1.0,1.0,1.0
50.37,13.9889,1.0,1.0,1.0
50.38,1.5056,1.0,1.0,1.0
50.39,14.5056,1.0,1.0,1.0
50.4,17.0,1.0,1.0,1.0
50.41,16.0,1.0,1.0,1.0
50.42,17.0,1.0,1.0,1.0
50.43,20.0,1.0,1.0,1.0
50.44,15.0,1.0,1.0,1.0
50.45,18.0,1.0,1.0,1.0
50.46,9.4944,1.0,1.0,1.0
50.47,16.5056,1.0,1.0,1.0
50.48,5.0,1.0,1.0,1.0
50.49,9.9889,1.0,1.0,1.0
50.5,12.0111,1.0,1.0,1.0
50.51,9.0,1.0,1.0,1.0
50.52,5.0,1.0,1.0,1.0
50.53,5.0,1.0,1.0,1.0
50.54,21.0,1.0,1.0,1.0
50.55,17.0,1.0,1.0,1.0
50.56,10.0,1.0,1.0,1.0
50.57,6.4944,1.0,1.0,1.0
50.58,10.0,1.0,1.0,1.0
50.59,18.5056,1.0,1.0,1.0
50.6,5.0,1.0,1.0,1.0
50.61,16.0,1.0,1.0,1.0
50.62,4.0,1.0,1.0,1.0
50.63,14.0,1.0,1.0,1.0
50.64,10.4944,1.0,1.0,1.0
50.65,8.5056,1.0,1.0,1.0
50.66,11.0,1.0,1.0,1.0
50.67,8.0,1.0,1.0,1.0
50.68,9.0,1.0,1.0,1.0
50.69,28.4944,1.0,1.0,1.0
50.7,13.5056,1.0,1.0,1.0
50.71,14.9889,1.0,1.0,1.0
50.72,12.0111,1.0,1.0,1.0
50.73,8.0,1.0,1.0,1.0
50.74,17.0,1.0,1.0,1.0
50.75,0.0,1.0,1.0,1.0
50.76,8.0,1.0,1.0,1.0
50.77,6.0,1.0,1.0,1.0
50.78,9.4944,1.0,1.0,1.0
50.79,21.5056,1.0,1.0,1.0
50.8,12.0,1.0,1.0,1.0
50.81,13.0,1.0,1.0,1.0
50.82,7.0,1.0,1.0,1.0
50.83,5.0,1.0,1.0,1.0
50.84,7.0,1.0,1.0,1.0
50.85,7.0,1.0,1.0,1.0
50.86,12.0,1.0,1.0,1.0
50.87,13.0,1.0,1.0,1.0
50.88,15.0,1.0,1.0,1.0
50.89,7.9889,1.0,1.0,1.0
50.9,9.0111,1.0,1.0,1.0
50.91,15.0,1.0,1.0,1.0
50.92,5.0,1.0,1.0,1.0
50.93,17.0,1.0,1.0,1.0
50.94,9.0,1.0,1.0,1.0
50.95,19.4944,1.0,1.0,1.0
50.96,9.5056,1.0,1.0,1.0
50.97,9.9889,1.0,1.0,1.0
50.98,14.0111,1.0,1.0,1.0
50.99,5.0,1.0,1.0,1.0
51.0,7.0,1.0,1.0,1.0
51.01,8.0,1.0,1.0,1.0
51.02,27.9889,1.0,1.0,1.0
51.03,14.0111,1.0,1.0,1.0
51.04,8.0,1.0,1.0,1.0
51.05,15.4944,1.0,1.0,1.0
51.06,7.0,1.0,1.0,1.0
51.07,13.5056,1.0,1.0,1.0
51.08,12.4944,1.0,1.0,1.0
51.09,14.5056,1.0,1.0,1.0
51.1,5.0,1.0,1.0,1.0
51.11,5.0,1.0,1.0,1.0
51.12,5.0,1.0,1.0,1.0
51.13,9.0,1.0,1.0,1.0
51.14,13.0,1.0,1.0,1.0
51.15,12.0,1.0,1.0,1.0
51.16,8.0,1.0,1.0,1.0
51.17,19.0,1.0,1.0,1.0
51.18,11.0,1.0,1.0,1.0
51.19,3.4944,1.0,1.0,1.0
51.2,8.5056,1.0,1.0,1.0
51.21,10.4944,1.0,1.0,1.0
51.22,2.5056,1.0,1.0,1.0
51.23,6.0,1.0,1.0,1.0
51.24,2.0,1.0,1.0,1.0
51.25,15.0,1.0,1.0,1.0
51.26,9.4944,1.0,1.0,1.0
51.27,8.5056,1.0,1.0,1.0
51.28,11.0,1.0,1.0,1.0
51.29,15.0,1.0,1.0,1.0
51.3,7.0,1.0,1.0,1.0
51.31,17.4944,1.0,1.0,1.0
51.32,11.5056,1.0,1.0,1.0
51.33,12.0,1.0,1.0,1.0
51.34,13.4944,1.0,1.0,1.0
51.35,7.5056,1.0,1.0,1.0
51.36,11.0,1.0,1.0,1.0
51.37,6.0,1.0,1.0,1.0
51.38,20.0,1.0,1.0,1.0
51.39,10.0,1.0,1.0,1.0
51.4,4.0,1.0,1.0,1.0
51.41,10.0,1.0,1.0,1.0
51.42,8.0,1.0,1.0,1.0
51.43,12.4944,1.0,1.0,1.0
51.44,7.5056,1.0,1.0,1.0
51.45,9.0,1.0,1.0,1.0
51.46,12.0,1.0,1.0,1.0
51.47,11.9889,1.0,1.0,1.0
51.48,10.0111,1.0,1.0,1.0
51.49,12.0,1.0,1.0,1.0
51.5,8.0,1.0,1.0,1.0
51.51,15.9889,1.0,1.0,1.0
51.52,7.0111,1.0,1.0,1.0
51.53,8.0,1.0,1.0,1.0
51.54,7.0,1.0,1.0,1.0
51.55,14.0,1.0,1.0,1.0
51.56,6.0,1.0,1.0,1.0
51.57,5.0,1.0,1.0,1.0
51.58,9.0,1.0,1.0,1.0
51.59,4.0,1.0,1.0,1.0
51.6,2.0,1.0,1.0,1.0
51.61,11.0,1.0,1.0,1.0
51.62,10.0,1.0,1.0,1.0
51.63,10.0,1.0,1.0,1.0
51.64,10.0,1.0,1.0,1.0
51.65,4.0,1.0,1.0,1.0
51.66,15.4944,1.0,1.0,1.0
51.67,6.5056,1.0,1.0,1.0
51.68,3.0,1.0,1.0,1.0
51.69,16.0,1.0,1.0,1.0
51.7,5.0,1.0,1.0,1.0
51.71,2.0,1.0,1.0,1.0
51.72,3.0,1.0,1.0,1.0
51.73,11.0,1.0,1.0,1.0
51.74,12.0,1.0,1.0,1.0
51.75,13.0,1.0,1.0,1.0
51.76,5.0,1.0,1.0,1.0
51.77,2.0,1.0,1.0,1.0
51.78,4.0,1.0,1.0,1.0
51.79,5.0,1.0,1.0,1.0
51.8,9.0,1.0,1.0,1.0
51.81,7.0,1.0,1.0,1.0
51.82,8.0,1.0,1.0,1.0
51.83,7.4944,1.0,1.0,1.0
51.84,9.5056,1.0,1.0,1.0
51.85,3.0,1.0,1.0,1.0
51.86,6.0,1.0,1.0,1.0
51.87,0.0,1.0,1.0,1.0
51.88,7.0,1.0,1.0,1.0
51.89,10.0,1.0,1.0,1.0
51.9,6.0,1.0,1.0,1.0
51.91,3.4944,1.0,1.0,1.0
51.92,6.0,1.0,1.0,1.0
51.93,2.5056,1.0,1.0,1.0
51.94,9.0,1.0,1.0,1.0
51.95,11.0,1.0,1.0,1.0
51.96,4.4944,1.0,1.0,1.0
51.97,10.5056,1.0,1.0,1.0
51.98,7.0,1.0,1.0,1.0
51.99,5.4944,1.0,1.0,1.0
52.0,3.5056,1.0,1.0,1.0
0.4,2215731.5,1.0,1.0,1.0
0.41,2275634.0,1.0,1.0,1.0
0.42,2332331.5,1.0,1.0,1.0
0.43,2393817.0,1.0,1.0,1.0
0.44,2450486.5,1.0,1.0,1.0
0.45,2506674.0,1.0,1.0,1.0
0.46,2566618.0,1.0,1.0,1.0
0.47,2618881.0,1.0,1.0,1.0
0.48,2673057.5,1.0,1.0,1.0
0.49,2727782.5,1.0,1.0,1.0
0.5,2780638.5,1.0,1.0,1.0
0.51,2827518.0,1.0,1.0,1.0
0.52,2876856.5,1.0,1.0,1.0
0.53,2924180.5,1.0,1.0,1.0
0.54,2976212.5,1.0,1.0,1.0
0.55,3015279.5,1.0,1.0,1.0
0.56,3051805.0,1.0,1.0,1.0
0.57,3087279.0,1.0,1.0,1.0
0.58,3121082.0,1.0,1.0,1.0
0.59,3144648.5,1.0,1.0,1.0
0.6,3172253.5,1.0,1.0,1.0
0.61,3189902.5,1.0,1.0,1.0
0.62,3201661.0,1.0,1.0,1.0
0.63,3205177.5,1.0,1.0,1.0
0.64,3206102.5,1.0,1.0,1.0
0.65,3187775.0,1.0,1.0,1.0
0.66,3154820.5,1.0,1.0,1.0
0.67,3111907.0,1.0,1.0,1.0
0.68,3052535.5,1.0,1.0,1.0
0.69,2969264.0,1.0,1.0,1.0
0.7,2862518.75,1.0,1.0,1.0
0.71,2730675.75,1.0,1.0,1.0
0.72,2569332.25,1.0,1.0,1.0
0.73,2383416.75,1.0,1.0,1.0
0.74,2173446.75,1.0,1.0,1.0
0.75,1949614.25,1.0,1.0,1.0
0.76,1713412.75,1.0,1.0,1.0
0.77,1475464.75,1.0,1.0,1.0
0.78,1249957.75,1.0,1.0,1.0
0.79,1.04196e+06,1.0,1.0,1.0
0.8,862954,1.0,1.0,1.0
0.81,709682.125,1.0,1.0,1.0
0.82,585052.625,1.0,1.0,1.0
0.83,485738.625,1.0,1.0,1.0
0.84,406279,1.0,1.0,1.0
0.85,341237,1.0,1.0,1.0
0.86,289643,1.0,1.0,1.0
0.87,247448,1.0,1.0,1.0
0.88,214047,1.0,1.0,1.0
0.89,186236,1.0,1.0,1.0
0.9,163387,1.0,1.0,1.0
0.91,143729,1.0,1.0,1.0
0.92,127050,1.0,1.0,1.0
0.93,114199,1.0,1.0,1.0
0.94,102775,1.0,1.0,1.0
0.95,94115.5,1.0,1.0,1.0
0.96,85877,1.0,1.0,1.0
0.97,80167,1.0,1.0,1.0
0.98,74802,1.0,1.0,1.0
0.99,70143,1.0,1.0,1.0
1.0,65934.5,1.0,1.0,1.0
1.01,63113.0,1.0,1.0,1.0
1.02,61036.5,1.0,1.0,1.0
1.03,58219.5,1.0,1.0,1.0
1.04,56261.5,1.0,1.0,1.0
1.05,54914,1.0,1.0,1.0
1.06,53642.5,1.0,1.0,1.0
1.07,53275.5,1.0,1.0,1.0
1.08,52268,1.0,1.0,1.0
1.09,51084.0,1.0,1.0,1.0
1.1,51059.0,1.0,1.0,1.0
1.11,50456.5,1.0,1.0,1.0
1.12,49731.5,1.0,1.0,1.0
1.13,49896,1.0,1.0,1.0
1.14,49519,1.0,1.0,1.0
1.15,48953.5,1.0,1.0,1.0
1.16,48907.5,1.0,1.0,1.0
1.17,48640.0,1.0,1.0,1.0
1.18,48489.0,1.0,1.0,1.0
1.19,48135.5,1.0,1.0,1.0
1.2,47617.0,1.0,1.0,1.0
1.21,47211.0,1.0,1.0,1.0
1.22,47039.5,1.0,1.0,1.0
1.23,46967.5,1.0,1.0,1.0
1.24,46960.5,1.0,1.0,1.0
1.25,46657.5,1.0,1.0,1.0
1.26,46114.5,1.0,1.0,1.0
1.27,45731,1.0,1.0,1.0
1.28,45250,1.0,1.0,1.0
1.29,45260.5,1.0,1.0,1.0
1.3,44833.5,1.0,1.0,1.0
1.31,43855,1.0,1.0,1.0
1.32,43597.5,1.0,1.0,1.0
1.33,42965.5,1.0,1.0,1.0
1.34,42439.5,1.0,1.0,1.0
1.35,42094.5,1.0,1.0,1.0
1.36,41357.5,1.0,1.0,1.0
1.37,40905.0,1.0,1.0,1.0
1.38,40311.0,1.0,1.0,1.0
1.39,39076.5,1.0,1.0,1.0
1.4,38626.0,1.0,1.0,1.0
1.41,38162.5,1.0,1.0,1.0
1.42,37412,1.0,1.0,1.0
1.43,36460.5,1.0,1.0,1.0
1.44,35911.5,1.0,1.0,1.0
1.45,35078.5,1.0,1.0,1.0
1.46,34458.0,1.0,1.0,1.0
1.47,33619.5,1.0,1.0,1.0
1.48,32950.5,1.0,1.0,1.0
1.49,31836.5,1.0,1.0,1.0
1.5,31018.498,1.0,1.0,1.0
1.51,30243.5,1.0,1.0,1.0
1.52,29421.5,1.0,1.0,1.0
1.53,28869.5,1.0,1.0,1.0
1.54,28070.0,1.0,1.0,1.0
1.55,27108.002,1.0,1.0,1.0
1.56,26419.502,1.0,1.0,1.0
1.57,25601.502,1.0,1.0,1.0
1.58,24694.0,1.0,1.0,1.0
1.59,24247.502,1.0,1.0,1.0
1.6,23374.5,1.0,1.0,1.0
1.61,22463.998,1.0,1.0,1.0
1.62,21657.502,1.0,1.0,1.0
1.63,21029.502,1.0,1.0,1.0
1.64,20081.5,1.0,1.0,1.0
1.65,19382.002,1.0,1.0,1.0
1.66,18862.502,1.0,1.0,1.0
1.67,17983.498,1.0,1.0,1.0
1.68,17292.502,1.0,1.0,1.0
1.69,16470.002,1.0,1.0,1.0
1.7,16181.502,1.0,1.0,1.0
1.71,15570.498,1.0,1.0,1.0
1.72,14845.502,1.0,1.0,1.0
1.73,14007.001,1.0,1.0,1.0
1.74,13467.5,1.0,1.0,1.0
1.75,12988.5,1.0,1.0,1.0
1.76,12380.502,1.0,1.0,1.0
1.77,11778.001,1.0,1.0,1.0
1.78,11137.001,1.0,1.0,1.0
1.79,10849.5,1.0,1.0,1.0
1.8,10242.002,1.0,1.0,1.0
1.81,9859.502,1.0,1.0,1.0
1.82,9327.0,1.0,1.0,1.0
1.83,8983.0,1.0,1.0,1.0
1.84,8610.499,1.0,1.0,1.0
1.85,8152.001,1.0,1.0,1.0
1.86,7670.5,1.0,1.0,1.0
1.87,7224,1.0,1.0,1.0
1.88,6939.5,1.0,1.0,1.0
1.89,6650.0,1.0,1.0,1.0
1.9,6383.5,1.0,1.0,1.0
1.91,5944.501,1.0,1.0,1.0
1.92,5706,1.0,1.0,1.0
1.93,5412,1.0,1.0,1.0
1.94,5284.5,1.0,1.0,1.0
1.95,4907.5,1.0,1.0,1.0
1.96,4714.5,1.0,1.0,1.0
1.97,4557.5,1.0,1.0,1.0
1.98,4081,1.0,1.0,1.0
1.99,3993.0,1.0,1.0,1.0
2.0,3829.0,1.0,1.0,1.0
2.01,3780.5,1.0,1.0,1.0
2.02,3501.5,1.0,1.0,1.0
2.03,3484,1.0,1.0,1.0
2.04,3205,1.0,1.0,1.0
2.05,3076.501,1.0,1.0,1.0
2.06,2923.5,1.0,1.0,1.0
2.07,2875,1.0,1.0,1.0
2.08,2753,1.0,1.0,1.0
2.09,2718.5,1.0,1.0,1.0
2.1,2625.5,1.0,1.0,1.0
2.11,2538.5,1.0,1.0,1.0
2.12,2481.5,1.0,1.0,1.0
2.13,2340.5,1.0,1.0,1.0
2.14,2338.5,1.0,1.0,1.0
2.15,2285.5,1.0,1.0,1.0
2.16,2263.5,1.0,1.0,1.0
2.17,2255.0,1.0,1.0,1.0
2.18,2333.499,1.0,1.0,1.0
2.19,2343.5,1.0,1.0,1.0
2.2,2298.5,1.0,1.0,1.0
2.21,2168.0,1.0,1.0,1.0
2.22,2228.5,1.0,1.0,1.0
2.23,2265.5,1.0,1.0,1.0
2.24,2295.5,1.0,1.0,1.0
2.25,2233,1.0,1.0,1.0
2.26,2194,1.0,1.0,1.0
2.27,2252,1.0,1.0,1.0
2.28,2210.5,1.0,1.0,1.0
2.29,2225.5,1.0,1.0,1.0
2.3,2234.5,1.0,1.0,1.0
2.31,2264,1.0,1.0,1.0
2.32,2312.001,1.0,1.0,1.0
2.33,2304,1.0,1.0,1.0
2.34,2329.0,1.0,1.0,1.0
2.35,2343.5,1.0,1.0,1.0
2.36,2379.5,1.0,1.0,1.0
2.37,2440.0,1.0,1.0,1.0
2.38,2499.0,1.0,1.0,1.0
2.39,2424.999,1.0,1.0,1.0
2.4,2457.501,1.0,1.0,1.0
2.41,2457.5,1.0,1.0,1.0
2.42,2501,1.0,1.0,1.0
2.43,2540.499,1.0,1.0,1.0
2.44,2634.5,1.0,1.0,1.0
2.45,2500,1.0,1.0,1.0
2.46,2564,1.0,1.0,1.0
2.47,2629.5,1.0,1.0,1.0
2.48,2681.5,1.0,1.0,1.0
2.49,2604.5,1.0,1.0,1.0
2.5,2693.5,1.0,1.0,1.0
2.51,2652,1.0,1.0,1.0
2.52,2583,1.0,1.0,1.0
2.53,2634.5,1.0,1.0,1.0
2.54,2634.5,1.0,1.0,1.0
2.55,2595.5,1.0,1.0,1.0
2.56,2705.5,1.0,1.0,1.0
2.57,2580.501,1.0,1.0,1.0
2.58,2589.5,1.0,1.0,1.0
2.59,2547.5,1.0,1.0,1.0
2.6,2634.5,1.0,1.0,1.0
2.61,2652.5,1.0,1.0,1.0
2.62,2570.5,1.0,1.0,1.0
2.63,2562,1.0,1.0,1.0
2.64,2540.5,1.0,1.0,1.0
2.65,2560.0,1.0,1.0,1.0
2.66,2518.5,1.0,1.0,1.0
2.67,2430.5,1.0,1.0,1.0
2.68,2503.5,1.0,1.0,1.0
2.69,2548,1.0,1.0,1.0
2.7,2416,1.0,1.0,1.0
2.71,2363,1.0,1.0,1.0
2.72,2502,1.0,1.0,1.0
2.73,2397,1.0,1.0,1.0
2.74,2338,1.0,1.0,1.0
2.75,2241.5,1.0,1.0,1.0
2.76,2306,1.0,1.0,1.0
2.77,2275,1.0,1.0,1.0
2.78,2172.499,1.0,1.0,1.0
2.79,2164.5,1.0,1.0,1.0
2.8,2244.501,1.0,1.0,1.0
2.81,2088.5,1.0,1.0,1.0
2.82,2047.5,1.0,1.0,1.0
2.83,2058,1.0,1.0,1.0
2.84,1992.5,1.0,1.0,1.0
2.85,1910,1.0,1.0,1.0
2.86,1950,1.0,1.0,1.0
2.87,1926.5,1.0,1.0,1.0
2.88,1853,1.0,1.0,1.0
2.89,1844.999,1.0,1.0,1.0
2.9,1837,1.0,1.0,1.0
2.91,1647.5,1.0,1.0,1.0
2.92,1721.0,1.0,1.0,1.0
2.93,1655.5,1.0,1.0,1.0
2.94,1586.5,1.0,1.0,1.0
2.95,1537.5,1.0,1.0,1.0
2.96,1545.5,1.0,1.0,1.0
2.97,1521.5,1.0,1.0,1.0
2.98,1454.5,1.0,1.0,1.0
2.99,1491.5,1.0,1.0,1.0
3.0,1440,1.0,1.0,1.0
3.01,1453,1.0,1.0,1.0
3.02,1318.5,1.0,1.0,1.0
3.03,1315,1.0,1.0,1.0
3.04,1288,1.0,1.0,1.0
3.05,1284.5,1.0,1.0,1.0
3.06,1246,1.0,1.0,1.0
3.07,1213,1.0,1.0,1.0
3.08,1140,1.0,1.0,1.0
3.09,1116.5,1.0,1.0,1.0
3.1,1086.5,1.0,1.0,1.0
3.11,1096,1.0,1.0,1.0
3.12,1015,1.0,1.0,1.0
3.13,1006,1.0,1.0,1.0
3.14,979.9996,1.0,1.0,1.0
3.15,979.9999,1.0,1.0,1.0
3.16,932.5005,1.0,1.0,1.0
3.17,877.4996,1.0,1.0,1.0
3.18,866.0,1.0,1.0,1.0
3.19,869.0,1.0,1.0,1.0
3.2,823.0004,1.0,1.0,1.0
3.21,835.0001,1.0,1.0,1.0
3.22,753.5002,1.0,1.0,1.0
3.23,759.4998,1.0,1.0,1.0
3.24,737.4998,1.0,1.0,1.0
3.25,717.0003,1.0,1.0,1.0
3.26,693.9999,1.0,1.0,1.0
3.27,737.0,1.0,1.0,1.0
3.28,655.0001,1.0,1.0,1.0
3.29,643.4998,1.0,1.0,1.0
3.3,642.5001,1.0,1.0,1.0
3.31,612.5002,1.0,1.0,1.0
3.32,649.4996,1.0,1.0,1.0
3.33,627.5004,1.0,1.0,1.0
3.34,644.5001,1.0,1.0,1.0
3.35,607.9999,1.0,1.0,1.0
3.36,574.9999,1.0,1.0,1.0
3.37,562.0002,1.0,1.0,1.0
3.38,536.9999,1.0,1.0,1.0
3.39,552.0,1.0,1.0,1.0
3.4,504.0,1.0,1.0,1.0
3.41,538.9999,1.0,1.0,1.0
3.42,512.0,1.0,1.0,1.0
3.43,507.0001,1.0,1.0,1.0
3.44,481.9999,1.0,1.0,1.0
3.45,527.0,1.0,1.0,1.0
3.46,490.5003,1.0,1.0,1.0
3.47,533.9998,1.0,1.0,1.0
3.48,472.9998,1.0,1.0,1.0
3.49,506.5002,1.0,1.0,1.0
3.5,547.0001,1.0,1.0,1.0
3.51,482.5001,1.0,1.0,1.0
3.52,500.5001,1.0,1.0,1.0
3.53,509.9997,1.0,1.0,1.0
3.54,494.0002,1.0,1.0,1.0
3.55,508.9999,1.0,1.0,1.0
3.56,519.5002,1.0,1.0,1.0
3.57,498.0,1.0,1.0,1.0
3.58,574.9997,1.0,1.0,1.0
3.59,552.5002,1.0,1.0,1.0
3.6,510.0,1.0,1.0,1.0
3.61,457.4999,1.0,1.0,1.0
3.62,571.9999,1.0,1.0,1.0
3.63,499.5005,1.0,1.0,1.0
3.64,533.9996,1.0,1.0,1.0
3.65,557.0,1.0,1.0,1.0
3.66,524.0001,1.0,1.0,1.0
3.67,547.4999,1.0,1.0,1.0
3.68,531.0001,1.0,1.0,1.0
3.69,571.4999,1.0,1.0,1.0
3.7,581.5002,1.0,1.0,1.0
3.71,558.4998,1.0,1.0,1.0
3.72,579.0003,1.0,1.0,1.0
3.73,581.4998,1.0,1.0,1.0
3.74,553.9999,1.0,1.0,1.0
3.75,630.9999,1.0,1.0,1.0
3.76,576.5002,1.0,1.0,1.0
3.77,583.0,1.0,1.0,1.0
3.78,584.4998,1.0,1.0,1.0
3.79,621.9997,1.0,1.0,1.0
3.8,573.0001,1.0,1.0,1.0
3.81,640.5002,1.0,1.0,1.0
3.82,648.9997,1.0,1.0,1.0
3.83,637.5002,1.0,1.0,1.0
3.84,664.5001,1.0,1.0,1.0
3.85,694.9999,1.0,1.0,1.0
3.86,653.5002,1.0,1.0,1.0
3.87,643.0,1.0,1.0,1.0
3.88,610.5001,1.0,1.0,1.0
3.89,669.4995,1.0,1.0,1.0
3.9,704.0005,1.0,1.0,1.0
3.91,645.9996,1.0,1.0,1.0
3.92,693.0002,1.0,1.0,1.0
3.93,691.9998,1.0,1.0,1.0
3.94,684.5002,1.0,1.0,1.0
3.95,642.0,1.0,1.0,1.0
3.96,684.4996,1.0,1.0,1.0
3.97,668.0002,1.0,1.0,1.0
3.98,706.9999,1.0,1.0,1.0
3.99,668.0002,1.0,1.0,1.0
4.0,667.5001,1.0,1.0,1.0
4.01,668.5001,1.0,1.0,1.0
4.02,711.9999,1.0,1.0,1.0
4.03,702.0,1.0,1.0,1.0
4.04,656.9999,1.0,1.0,1.0
4.05,682.4998,1.0,1.0,1.0
4.06,708.5002,1.0,1.0,1.0
4.07,743.0,1.0,1.0,1.0
4.08,655.5005,1.0,1.0,1.0
4.09,668.4998,1.0,1.0,1.0
4.1,682.4995,1.0,1.0,1.0
4.11,733.0003,1.0,1.0,1.0
4.12,634.9999,1.0,1.0,1.0
4.13,682.5004,1.0,1.0,1.0
4.14,656.4998,1.0,1.0,1.0
4.15,667.4999,1.0,1.0,1.0
4.16,620.4996,1.0,1.0,1.0
4.17,602.0,1.0,1.0,1.0
4.18,678.5002,1.0,1.0,1.0
4.19,688.4999,1.0,1.0,1.0
4.2,643.0004,1.0,1.0,1.0
4.21,659.9999,1.0,1.0,1.0
4.22,610.0002,1.0,1.0,1.0
4.23,685.4998,1.0,1.0,1.0
4.24,607.9998,1.0,1.0,1.0
4.25,616.0002,1.0,1.0,1.0
4.26,613.5001,1.0,1.0,1.0
4.27,620.0,1.0,1.0,1.0
4.28,646.4998,1.0,1.0,1.0
4.29,612.5004,1.0,1.0,1.0
4.3,589.9993,1.0,1.0,1.0
4.31,621.5004,1.0,1.0,1.0
4.32,613.4999,1.0,1.0,1.0
4.33,532.9999,1.0,1.0,1.0
4.34,567.5006,1.0,1.0,1.0
4.35,551.4998,1.0,1.0,1.0
4.36,564.4996,1.0,1.0,1.0
4.37,552.5002,1.0,1.0,1.0
4.38,533.0002,1.0,1.0,1.0
4.39,561.4998,1.0,1.0,1.0
4.4,494.4999,1.0,1.0,1.0
4.41,496.5002,1.0,1.0,1.0
4.42,531.0,1.0,1.0,1.0
4.43,544.4999,1.0,1.0,1.0
4.44,475.5002,1.0,1.0,1.0
4.45,523.5002,1.0,1.0,1.0
4.46,502.4998,1.0,1.0,1.0
4.47,447.5002,1.0,1.0,1.0
4.48,502.9996,1.0,1.0,1.0
4.49,528.4999,1.0,1.0,1.0
4.5,503.5002,1.0,1.0,1.0