File: XRD:XRR/SCO/22165_SL(CO)L/22165_SL(CO)L_XRD_001.csv
#twotheta, yobs, ycal, bkg, diff
16.0,35.0,1.0,1.0,1.0
16.01,45.4976,1.0,1.0,1.0
16.02,40.5024,1.0,1.0,1.0
16.03,39.0,1.0,1.0,1.0
16.04,50.9984,1.0,1.0,1.0
16.05,38.0,1.0,1.0,1.0
16.06,57.0016,1.0,1.0,1.0
16.07,47.0,1.0,1.0,1.0
16.08,29.0,1.0,1.0,1.0
16.09,34.9984,1.0,1.0,1.0
16.1,37.5008,1.0,1.0,1.0
16.11,42.0,1.0,1.0,1.0
16.12,42.9984,1.0,1.0,1.0
16.13,38.5024,1.0,1.0,1.0
16.14,48.4992,1.0,1.0,1.0
16.15,45.5008,1.0,1.0,1.0
16.16,37.4992,1.0,1.0,1.0
16.17,41.5008,1.0,1.0,1.0
16.18,49.0,1.0,1.0,1.0
16.19,33.0,1.0,1.0,1.0
16.2,31.4992,1.0,1.0,1.0
16.21,28.4992,1.0,1.0,1.0
16.22,48.5008,1.0,1.0,1.0
16.23,33.0,1.0,1.0,1.0
16.24,33.5008,1.0,1.0,1.0
16.25,46.4992,1.0,1.0,1.0
16.26,27.4992,1.0,1.0,1.0
16.27,44.0016,1.0,1.0,1.0
16.28,49.0,1.0,1.0,1.0
16.29,44.4992,1.0,1.0,1.0
16.3,50.0,1.0,1.0,1.0
16.31,46.5008,1.0,1.0,1.0
16.32,14.9984,1.0,1.0,1.0
16.33,29.0016,1.0,1.0,1.0
16.34,42.4992,1.0,1.0,1.0
16.35,35.0,1.0,1.0,1.0
16.36,35.4992,1.0,1.0,1.0
16.37,43.0016,1.0,1.0,1.0
16.38,33.4992,1.0,1.0,1.0
16.39,42.5008,1.0,1.0,1.0
16.4,49.9984,1.0,1.0,1.0
16.41,40.4992,1.0,1.0,1.0
16.42,38.5024,1.0,1.0,1.0
16.43,49.0,1.0,1.0,1.0
16.44,44.0,1.0,1.0,1.0
16.45,41.4992,1.0,1.0,1.0
16.46,37.5008,1.0,1.0,1.0
16.47,21.9984,1.0,1.0,1.0
16.48,38.5008,1.0,1.0,1.0
16.49,53.0,1.0,1.0,1.0
16.5,45.9984,1.0,1.0,1.0
16.51,43.0016,1.0,1.0,1.0
16.52,37.4992,1.0,1.0,1.0
16.53,40.0016,1.0,1.0,1.0
16.54,42.0,1.0,1.0,1.0
16.55,36.9984,1.0,1.0,1.0
16.56,45.0,1.0,1.0,1.0
16.57,28.0016,1.0,1.0,1.0
16.58,32.4992,1.0,1.0,1.0
16.59,34.4992,1.0,1.0,1.0
16.6,46.0,1.0,1.0,1.0
16.61,33.0016,1.0,1.0,1.0
16.62,50.0,1.0,1.0,1.0
16.63,45.4976,1.0,1.0,1.0
16.64,43.5024,1.0,1.0,1.0
16.65,36.4992,1.0,1.0,1.0
16.66,32.5008,1.0,1.0,1.0
16.67,48.0,1.0,1.0,1.0
16.68,56.4992,1.0,1.0,1.0
16.69,44.5008,1.0,1.0,1.0
16.7,47.9969,1.0,1.0,1.0
16.71,36.0016,1.0,1.0,1.0
16.72,57.0,1.0,1.0,1.0
16.73,51.0,1.0,1.0,1.0
16.74,56.5008,1.0,1.0,1.0
16.75,40.5008,1.0,1.0,1.0
16.76,41.0,1.0,1.0,1.0
16.77,43.4992,1.0,1.0,1.0
16.78,62.5008,1.0,1.0,1.0
16.79,42.4992,1.0,1.0,1.0
16.8,33.5008,1.0,1.0,1.0
16.81,51.4976,1.0,1.0,1.0
16.82,52.5024,1.0,1.0,1.0
16.83,32.0,1.0,1.0,1.0
16.84,64.4992,1.0,1.0,1.0
16.85,40.5008,1.0,1.0,1.0
16.86,45.0,1.0,1.0,1.0
16.87,33.0,1.0,1.0,1.0
16.88,50.0,1.0,1.0,1.0
16.89,55.4992,1.0,1.0,1.0
16.9,33.5008,1.0,1.0,1.0
16.91,40.0,1.0,1.0,1.0
16.92,31.0,1.0,1.0,1.0
16.93,39.0,1.0,1.0,1.0
16.94,43.9984,1.0,1.0,1.0
16.95,55.5008,1.0,1.0,1.0
16.96,30.5008,1.0,1.0,1.0
16.97,49.0,1.0,1.0,1.0
16.98,35.0,1.0,1.0,1.0
16.99,47.0,1.0,1.0,1.0
17.0,33.9984,1.0,1.0,1.0
17.01,44.0016,1.0,1.0,1.0
17.02,45.0,1.0,1.0,1.0
17.03,27.0,1.0,1.0,1.0
17.04,48.4992,1.0,1.0,1.0
17.05,34.9984,1.0,1.0,1.0
17.06,51.5024,1.0,1.0,1.0
17.07,46.0,1.0,1.0,1.0
17.08,41.4992,1.0,1.0,1.0
17.09,28.4992,1.0,1.0,1.0
17.1,47.0016,1.0,1.0,1.0
17.11,37.0,1.0,1.0,1.0
17.12,41.4992,1.0,1.0,1.0
17.13,38.5008,1.0,1.0,1.0
17.14,44.0,1.0,1.0,1.0
17.15,44.4992,1.0,1.0,1.0
17.16,31.5008,1.0,1.0,1.0
17.17,34.0,1.0,1.0,1.0
17.18,50.0,1.0,1.0,1.0
17.19,46.0,1.0,1.0,1.0
17.2,43.0,1.0,1.0,1.0
17.21,44.0,1.0,1.0,1.0
17.22,28.9984,1.0,1.0,1.0
17.23,31.5008,1.0,1.0,1.0
17.24,55.4992,1.0,1.0,1.0
17.25,35.0016,1.0,1.0,1.0
17.26,47.4992,1.0,1.0,1.0
17.27,33.5008,1.0,1.0,1.0
17.28,28.4992,1.0,1.0,1.0
17.29,56.5008,1.0,1.0,1.0
17.3,48.4992,1.0,1.0,1.0
17.31,33.5008,1.0,1.0,1.0
17.32,42.4976,1.0,1.0,1.0
17.33,33.5008,1.0,1.0,1.0
17.34,50.5008,1.0,1.0,1.0
17.35,45.0,1.0,1.0,1.0
17.36,46.5008,1.0,1.0,1.0
17.37,40.4992,1.0,1.0,1.0
17.38,32.4992,1.0,1.0,1.0
17.39,52.5008,1.0,1.0,1.0
17.4,62.4992,1.0,1.0,1.0
17.41,51.0,1.0,1.0,1.0
17.42,45.0016,1.0,1.0,1.0
17.43,45.4992,1.0,1.0,1.0
17.44,46.0,1.0,1.0,1.0
17.45,34.0,1.0,1.0,1.0
17.46,57.5008,1.0,1.0,1.0
17.47,49.0,1.0,1.0,1.0
17.48,38.0,1.0,1.0,1.0
17.49,47.9984,1.0,1.0,1.0
17.5,53.0,1.0,1.0,1.0
17.51,51.5008,1.0,1.0,1.0
17.52,40.5008,1.0,1.0,1.0
17.53,49.4992,1.0,1.0,1.0
17.54,48.5008,1.0,1.0,1.0
17.55,43.0,1.0,1.0,1.0
17.56,60.0,1.0,1.0,1.0
17.57,40.4976,1.0,1.0,1.0
17.58,43.5008,1.0,1.0,1.0
17.59,60.5008,1.0,1.0,1.0
17.6,31.5008,1.0,1.0,1.0
17.61,31.4976,1.0,1.0,1.0
17.62,68.0016,1.0,1.0,1.0
17.63,46.0,1.0,1.0,1.0
17.64,60.0,1.0,1.0,1.0
17.65,46.0,1.0,1.0,1.0
17.66,47.9984,1.0,1.0,1.0
17.67,63.5008,1.0,1.0,1.0
17.68,49.0016,1.0,1.0,1.0
17.69,34.0,1.0,1.0,1.0
17.7,50.0,1.0,1.0,1.0
17.71,48.4992,1.0,1.0,1.0
17.72,52.0,1.0,1.0,1.0
17.73,53.5008,1.0,1.0,1.0
17.74,30.4992,1.0,1.0,1.0
17.75,66.5008,1.0,1.0,1.0
17.76,41.0,1.0,1.0,1.0
17.77,38.9969,1.0,1.0,1.0
17.78,52.0016,1.0,1.0,1.0
17.79,64.0016,1.0,1.0,1.0
17.8,52.4992,1.0,1.0,1.0
17.81,52.5008,1.0,1.0,1.0
17.82,52.4992,1.0,1.0,1.0
17.83,43.0,1.0,1.0,1.0
17.84,41.4992,1.0,1.0,1.0
17.85,61.0016,1.0,1.0,1.0
17.86,50.4992,1.0,1.0,1.0
17.87,41.5008,1.0,1.0,1.0
17.88,52.4992,1.0,1.0,1.0
17.89,44.0,1.0,1.0,1.0
17.9,70.9984,1.0,1.0,1.0
17.91,31.0016,1.0,1.0,1.0
17.92,49.4992,1.0,1.0,1.0
17.93,38.5008,1.0,1.0,1.0
17.94,62.4992,1.0,1.0,1.0
17.95,35.0016,1.0,1.0,1.0
17.96,30.4992,1.0,1.0,1.0
17.97,50.4992,1.0,1.0,1.0
17.98,57.0016,1.0,1.0,1.0
17.99,38.9984,1.0,1.0,1.0
18.0,48.9984,1.0,1.0,1.0
18.01,54.0031,1.0,1.0,1.0
18.02,44.0,1.0,1.0,1.0
18.03,43.0,1.0,1.0,1.0
18.04,48.4992,1.0,1.0,1.0
18.05,53.4992,1.0,1.0,1.0
18.06,51.9984,1.0,1.0,1.0
18.07,65.5008,1.0,1.0,1.0
18.08,31.5008,1.0,1.0,1.0
18.09,48.0016,1.0,1.0,1.0
18.1,51.0,1.0,1.0,1.0
18.11,55.9984,1.0,1.0,1.0
18.12,41.0,1.0,1.0,1.0
18.13,26.0016,1.0,1.0,1.0
18.14,57.9984,1.0,1.0,1.0
18.15,32.0016,1.0,1.0,1.0
18.16,37.0,1.0,1.0,1.0
18.17,50.4992,1.0,1.0,1.0
18.18,39.0,1.0,1.0,1.0
18.19,56.5008,1.0,1.0,1.0
18.2,45.0,1.0,1.0,1.0
18.21,47.0,1.0,1.0,1.0
18.22,45.9984,1.0,1.0,1.0
18.23,51.0016,1.0,1.0,1.0
18.24,30.4992,1.0,1.0,1.0
18.25,48.5008,1.0,1.0,1.0
18.26,41.4992,1.0,1.0,1.0
18.27,48.0,1.0,1.0,1.0
18.28,63.4976,1.0,1.0,1.0
18.29,39.0031,1.0,1.0,1.0
18.3,54.0,1.0,1.0,1.0
18.31,63.4992,1.0,1.0,1.0
18.32,46.0,1.0,1.0,1.0
18.33,40.5008,1.0,1.0,1.0
18.34,35.4992,1.0,1.0,1.0
18.35,55.4992,1.0,1.0,1.0
18.36,41.0016,1.0,1.0,1.0
18.37,45.0,1.0,1.0,1.0
18.38,46.0,1.0,1.0,1.0
18.39,49.0,1.0,1.0,1.0
18.4,48.4992,1.0,1.0,1.0
18.41,46.0,1.0,1.0,1.0
18.42,52.0,1.0,1.0,1.0
18.43,23.5008,1.0,1.0,1.0
18.44,33.0,1.0,1.0,1.0
18.45,53.0,1.0,1.0,1.0
18.46,48.9984,1.0,1.0,1.0
18.47,57.0016,1.0,1.0,1.0
18.48,39.0,1.0,1.0,1.0
18.49,37.0,1.0,1.0,1.0
18.5,39.0,1.0,1.0,1.0
18.51,55.4992,1.0,1.0,1.0
18.52,34.5008,1.0,1.0,1.0
18.53,42.0,1.0,1.0,1.0
18.54,34.0,1.0,1.0,1.0
18.55,44.4992,1.0,1.0,1.0
18.56,50.0,1.0,1.0,1.0
18.57,42.0,1.0,1.0,1.0
18.58,44.0,1.0,1.0,1.0
18.59,44.5008,1.0,1.0,1.0
18.6,51.0,1.0,1.0,1.0
18.61,20.0,1.0,1.0,1.0
18.62,51.9984,1.0,1.0,1.0
18.63,33.0016,1.0,1.0,1.0
18.64,37.0,1.0,1.0,1.0
18.65,37.0,1.0,1.0,1.0
18.66,39.0,1.0,1.0,1.0
18.67,37.4992,1.0,1.0,1.0
18.68,43.5008,1.0,1.0,1.0
18.69,44.4992,1.0,1.0,1.0
18.7,59.5008,1.0,1.0,1.0
18.71,34.0,1.0,1.0,1.0
18.72,44.0,1.0,1.0,1.0
18.73,58.4992,1.0,1.0,1.0
18.74,38.0,1.0,1.0,1.0
18.75,35.5008,1.0,1.0,1.0
18.76,38.9984,1.0,1.0,1.0
18.77,39.5008,1.0,1.0,1.0
18.78,41.5008,1.0,1.0,1.0
18.79,43.4992,1.0,1.0,1.0
18.8,58.5008,1.0,1.0,1.0
18.81,45.4976,1.0,1.0,1.0
18.82,38.0016,1.0,1.0,1.0
18.83,41.0,1.0,1.0,1.0
18.84,41.5008,1.0,1.0,1.0
18.85,31.0,1.0,1.0,1.0
18.86,49.0,1.0,1.0,1.0
18.87,49.0,1.0,1.0,1.0
18.88,44.4992,1.0,1.0,1.0
18.89,39.4992,1.0,1.0,1.0
18.9,34.0016,1.0,1.0,1.0
18.91,30.4992,1.0,1.0,1.0
18.92,56.0,1.0,1.0,1.0
18.93,32.5008,1.0,1.0,1.0
18.94,49.0,1.0,1.0,1.0
18.95,26.0,1.0,1.0,1.0
18.96,42.4992,1.0,1.0,1.0
18.97,36.4992,1.0,1.0,1.0
18.98,44.0016,1.0,1.0,1.0
18.99,70.0,1.0,1.0,1.0
19.0,64.4992,1.0,1.0,1.0
19.01,44.5008,1.0,1.0,1.0
19.02,33.0,1.0,1.0,1.0
19.03,30.0,1.0,1.0,1.0
19.04,42.4976,1.0,1.0,1.0
19.05,54.4992,1.0,1.0,1.0
19.06,69.5024,1.0,1.0,1.0
19.07,37.0,1.0,1.0,1.0
19.08,34.5008,1.0,1.0,1.0
19.09,57.9969,1.0,1.0,1.0
19.1,58.5024,1.0,1.0,1.0
19.11,47.5008,1.0,1.0,1.0
19.12,43.0,1.0,1.0,1.0
19.13,50.0,1.0,1.0,1.0
19.14,47.4992,1.0,1.0,1.0
19.15,65.5008,1.0,1.0,1.0
19.16,51.0,1.0,1.0,1.0
19.17,32.0,1.0,1.0,1.0
19.18,51.9984,1.0,1.0,1.0
19.19,64.5008,1.0,1.0,1.0
19.2,65.0,1.0,1.0,1.0
19.21,41.5008,1.0,1.0,1.0
19.22,57.9984,1.0,1.0,1.0
19.23,51.0,1.0,1.0,1.0
19.24,57.5008,1.0,1.0,1.0
19.25,46.5008,1.0,1.0,1.0
19.26,48.4992,1.0,1.0,1.0
19.27,56.9984,1.0,1.0,1.0
19.28,80.5024,1.0,1.0,1.0
19.29,46.0,1.0,1.0,1.0
19.3,64.0,1.0,1.0,1.0
19.31,60.4992,1.0,1.0,1.0
19.32,69.5008,1.0,1.0,1.0
19.33,60.4992,1.0,1.0,1.0
19.34,49.0,1.0,1.0,1.0
19.35,53.0,1.0,1.0,1.0
19.36,49.5008,1.0,1.0,1.0
19.37,53.0,1.0,1.0,1.0
19.38,53.0,1.0,1.0,1.0
19.39,44.9984,1.0,1.0,1.0
19.4,48.0016,1.0,1.0,1.0
19.41,47.4992,1.0,1.0,1.0
19.42,54.4992,1.0,1.0,1.0
19.43,49.4992,1.0,1.0,1.0
19.44,56.5008,1.0,1.0,1.0
19.45,43.5008,1.0,1.0,1.0
19.46,42.5008,1.0,1.0,1.0
19.47,55.4992,1.0,1.0,1.0
19.48,41.9984,1.0,1.0,1.0
19.49,42.5008,1.0,1.0,1.0
19.5,54.5008,1.0,1.0,1.0
19.51,48.0,1.0,1.0,1.0
19.52,48.9984,1.0,1.0,1.0
19.53,51.5024,1.0,1.0,1.0
19.54,47.0,1.0,1.0,1.0
19.55,55.9984,1.0,1.0,1.0
19.56,53.0,1.0,1.0,1.0
19.57,58.0,1.0,1.0,1.0
19.58,58.0016,1.0,1.0,1.0
19.59,49.4992,1.0,1.0,1.0
19.6,44.5008,1.0,1.0,1.0
19.61,47.0,1.0,1.0,1.0
19.62,50.0,1.0,1.0,1.0
19.63,25.4992,1.0,1.0,1.0
19.64,40.5008,1.0,1.0,1.0
19.65,30.0,1.0,1.0,1.0
19.66,45.0,1.0,1.0,1.0
19.67,38.9984,1.0,1.0,1.0
19.68,33.0016,1.0,1.0,1.0
19.69,56.4976,1.0,1.0,1.0
19.7,42.5008,1.0,1.0,1.0
19.71,33.0016,1.0,1.0,1.0
19.72,45.0,1.0,1.0,1.0
19.73,46.9984,1.0,1.0,1.0
19.74,49.5008,1.0,1.0,1.0
19.75,40.5008,1.0,1.0,1.0
19.76,45.4992,1.0,1.0,1.0
19.77,47.9984,1.0,1.0,1.0
19.78,67.0,1.0,1.0,1.0
19.79,51.5024,1.0,1.0,1.0
19.8,52.0,1.0,1.0,1.0
19.81,47.0,1.0,1.0,1.0
19.82,38.4992,1.0,1.0,1.0
19.83,57.0,1.0,1.0,1.0
19.84,47.5008,1.0,1.0,1.0
19.85,40.0,1.0,1.0,1.0
19.86,56.9984,1.0,1.0,1.0
19.87,57.5008,1.0,1.0,1.0
19.88,78.0,1.0,1.0,1.0
19.89,52.9984,1.0,1.0,1.0
19.9,87.9984,1.0,1.0,1.0
19.91,69.0031,1.0,1.0,1.0
19.92,77.0,1.0,1.0,1.0
19.93,72.5008,1.0,1.0,1.0
19.94,89.4992,1.0,1.0,1.0
19.95,59.4992,1.0,1.0,1.0
19.96,77.4992,1.0,1.0,1.0
19.97,83.0,1.0,1.0,1.0
19.98,95.5024,1.0,1.0,1.0
19.99,75.9984,1.0,1.0,1.0
20.0,97.0016,1.0,1.0,1.0
20.01,66.0,1.0,1.0,1.0
20.02,64.9969,1.0,1.0,1.0
20.03,77.0016,1.0,1.0,1.0
20.04,77.5008,1.0,1.0,1.0
20.05,64.0,1.0,1.0,1.0
20.06,68.5008,1.0,1.0,1.0
20.07,51.4976,1.0,1.0,1.0
20.08,58.0016,1.0,1.0,1.0
20.09,42.5008,1.0,1.0,1.0
20.1,44.4992,1.0,1.0,1.0
20.11,76.9984,1.0,1.0,1.0
20.12,40.0016,1.0,1.0,1.0
20.13,64.0,1.0,1.0,1.0
20.14,53.5008,1.0,1.0,1.0
20.15,60.4961,1.0,1.0,1.0
20.16,51.5039,1.0,1.0,1.0
20.17,40.9984,1.0,1.0,1.0
20.18,66.0016,1.0,1.0,1.0
20.19,64.9984,1.0,1.0,1.0
20.2,64.5008,1.0,1.0,1.0
20.21,43.4992,1.0,1.0,1.0
20.22,69.0016,1.0,1.0,1.0
20.23,54.0,1.0,1.0,1.0
20.24,61.9953,1.0,1.0,1.0
20.25,74.0047,1.0,1.0,1.0
20.26,41.0,1.0,1.0,1.0
20.27,70.0,1.0,1.0,1.0
20.28,57.9984,1.0,1.0,1.0
20.29,49.5008,1.0,1.0,1.0
20.3,58.0,1.0,1.0,1.0
20.31,38.0,1.0,1.0,1.0
20.32,36.4976,1.0,1.0,1.0
20.33,74.0031,1.0,1.0,1.0
20.34,40.4992,1.0,1.0,1.0
20.35,43.5008,1.0,1.0,1.0
20.36,50.9984,1.0,1.0,1.0
20.37,47.0016,1.0,1.0,1.0
20.38,39.0,1.0,1.0,1.0
20.39,47.4992,1.0,1.0,1.0
20.4,54.0,1.0,1.0,1.0
20.41,59.0,1.0,1.0,1.0
20.42,42.0,1.0,1.0,1.0
20.43,58.5008,1.0,1.0,1.0
20.44,58.0,1.0,1.0,1.0
20.45,66.4976,1.0,1.0,1.0
20.46,49.5024,1.0,1.0,1.0
20.47,66.0,1.0,1.0,1.0
20.48,70.9969,1.0,1.0,1.0
20.49,52.0031,1.0,1.0,1.0
20.5,44.0,1.0,1.0,1.0
20.51,44.4992,1.0,1.0,1.0
20.52,46.4992,1.0,1.0,1.0
20.53,59.5008,1.0,1.0,1.0
20.54,47.4992,1.0,1.0,1.0
20.55,44.4992,1.0,1.0,1.0
20.56,56.0,1.0,1.0,1.0
20.57,52.0016,1.0,1.0,1.0
20.58,50.0,1.0,1.0,1.0
20.59,61.5008,1.0,1.0,1.0
20.6,47.0,1.0,1.0,1.0
20.61,62.9969,1.0,1.0,1.0
20.62,44.0031,1.0,1.0,1.0
20.63,51.4992,1.0,1.0,1.0
20.64,74.9984,1.0,1.0,1.0
20.65,63.5024,1.0,1.0,1.0
20.66,80.4992,1.0,1.0,1.0
20.67,83.4992,1.0,1.0,1.0
20.68,68.5008,1.0,1.0,1.0
20.69,76.5008,1.0,1.0,1.0
20.7,83.4945,1.0,1.0,1.0
20.71,65.0047,1.0,1.0,1.0
20.72,80.0,1.0,1.0,1.0
20.73,67.5008,1.0,1.0,1.0
20.74,67.9969,1.0,1.0,1.0
20.75,72.5024,1.0,1.0,1.0
20.76,65.0,1.0,1.0,1.0
20.77,44.5008,1.0,1.0,1.0
20.78,31.4992,1.0,1.0,1.0
20.79,50.4992,1.0,1.0,1.0
20.8,42.0016,1.0,1.0,1.0
20.81,51.0,1.0,1.0,1.0
20.82,81.4976,1.0,1.0,1.0
20.83,42.5008,1.0,1.0,1.0
20.84,45.5008,1.0,1.0,1.0
20.85,54.5008,1.0,1.0,1.0
20.86,55.9984,1.0,1.0,1.0
20.87,40.0016,1.0,1.0,1.0
20.88,47.0,1.0,1.0,1.0
20.89,79.9984,1.0,1.0,1.0
20.9,60.0016,1.0,1.0,1.0
20.91,48.4992,1.0,1.0,1.0
20.92,89.4992,1.0,1.0,1.0
20.93,49.0,1.0,1.0,1.0
20.94,51.0016,1.0,1.0,1.0
20.95,57.4992,1.0,1.0,1.0
20.96,59.5008,1.0,1.0,1.0
20.97,41.0,1.0,1.0,1.0
20.98,46.0,1.0,1.0,1.0
20.99,45.4992,1.0,1.0,1.0
21.0,41.4992,1.0,1.0,1.0
21.01,46.5008,1.0,1.0,1.0
21.02,39.5008,1.0,1.0,1.0
21.03,40.4992,1.0,1.0,1.0
21.04,55.4992,1.0,1.0,1.0
21.05,46.0016,1.0,1.0,1.0
21.06,34.9984,1.0,1.0,1.0
21.07,35.5008,1.0,1.0,1.0
21.08,39.5008,1.0,1.0,1.0
21.09,44.0,1.0,1.0,1.0
21.1,63.9984,1.0,1.0,1.0
21.11,48.0016,1.0,1.0,1.0
21.12,57.0,1.0,1.0,1.0
21.13,63.0,1.0,1.0,1.0
21.14,78.0,1.0,1.0,1.0
21.15,67.9984,1.0,1.0,1.0
21.16,81.4992,1.0,1.0,1.0
21.17,92.0,1.0,1.0,1.0
21.18,106.0,1.0,1.0,1.0
21.19,112.0,1.0,1.0,1.0
21.2,122.0,1.0,1.0,1.0
21.21,145.4976,1.0,1.0,1.0
21.22,163.5039,1.0,1.0,1.0
21.23,152.4976,1.0,1.0,1.0
21.24,181.4992,1.0,1.0,1.0
21.25,231.0031,1.0,1.0,1.0
21.26,199.9937,1.0,1.0,1.0
21.27,248.5039,1.0,1.0,1.0
21.28,215.4976,1.0,1.0,1.0
21.29,216.0031,1.0,1.0,1.0
21.3,261.4992,1.0,1.0,1.0
21.31,261.9969,1.0,1.0,1.0
21.32,221.4992,1.0,1.0,1.0
21.33,245.0016,1.0,1.0,1.0
21.34,228.0016,1.0,1.0,1.0
21.35,161.5008,1.0,1.0,1.0
21.36,180.0016,1.0,1.0,1.0
21.37,187.4992,1.0,1.0,1.0
21.38,188.0,1.0,1.0,1.0
21.39,177.9984,1.0,1.0,1.0
21.4,178.0016,1.0,1.0,1.0
21.41,136.9984,1.0,1.0,1.0
21.42,142.0,1.0,1.0,1.0
21.43,163.0016,1.0,1.0,1.0
21.44,129.9969,1.0,1.0,1.0
21.45,105.5039,1.0,1.0,1.0
21.46,140.4976,1.0,1.0,1.0
21.47,165.4976,1.0,1.0,1.0
21.48,172.5039,1.0,1.0,1.0
21.49,202.0,1.0,1.0,1.0
21.5,204.4992,1.0,1.0,1.0
21.51,211.4961,1.0,1.0,1.0
21.52,199.5024,1.0,1.0,1.0
21.53,233.0,1.0,1.0,1.0
21.54,221.0,1.0,1.0,1.0
21.55,227.4976,1.0,1.0,1.0
21.56,260.5008,1.0,1.0,1.0
21.57,236.5024,1.0,1.0,1.0
21.58,230.0031,1.0,1.0,1.0
21.59,215.4945,1.0,1.0,1.0
21.6,226.0016,1.0,1.0,1.0
21.61,220.4992,1.0,1.0,1.0
21.62,178.0031,1.0,1.0,1.0
21.63,193.5008,1.0,1.0,1.0
21.64,200.4945,1.0,1.0,1.0
21.65,151.0063,1.0,1.0,1.0
21.66,151.4976,1.0,1.0,1.0
21.67,169.4992,1.0,1.0,1.0
21.68,174.5008,1.0,1.0,1.0
21.69,143.0016,1.0,1.0,1.0
21.7,136.5008,1.0,1.0,1.0
21.71,175.0,1.0,1.0,1.0
21.72,171.9969,1.0,1.0,1.0
21.73,174.5008,1.0,1.0,1.0
21.74,156.0,1.0,1.0,1.0
21.75,159.5024,1.0,1.0,1.0
21.76,156.4976,1.0,1.0,1.0
21.77,127.5024,1.0,1.0,1.0
21.78,160.4992,1.0,1.0,1.0
21.79,158.4976,1.0,1.0,1.0
21.8,172.4992,1.0,1.0,1.0
21.81,171.0047,1.0,1.0,1.0
21.82,176.9984,1.0,1.0,1.0
21.83,174.4961,1.0,1.0,1.0
21.84,198.5008,1.0,1.0,1.0
21.85,206.4992,1.0,1.0,1.0
21.86,248.0,1.0,1.0,1.0
21.87,275.0031,1.0,1.0,1.0
21.88,315.4977,1.0,1.0,1.0
21.89,348.0,1.0,1.0,1.0
21.9,411.0,1.0,1.0,1.0
21.91,464.4929,1.0,1.0,1.0
21.92,510.0031,1.0,1.0,1.0
21.93,521.0032,1.0,1.0,1.0
21.94,606.9984,1.0,1.0,1.0
21.95,625.9968,1.0,1.0,1.0
21.96,662.5055,1.0,1.0,1.0
21.97,702.4898,1.0,1.0,1.0
21.98,725.5024,1.0,1.0,1.0
21.99,736.4976,1.0,1.0,1.0
22.0,728.5008,1.0,1.0,1.0
22.01,696.0,1.0,1.0,1.0
22.02,626.0047,1.0,1.0,1.0
22.03,614.0016,1.0,1.0,1.0
22.04,568.5008,1.0,1.0,1.0
22.05,499.5008,1.0,1.0,1.0
22.06,444.4977,1.0,1.0,1.0
22.07,391.0031,1.0,1.0,1.0
22.08,413.0016,1.0,1.0,1.0
22.09,334.9984,1.0,1.0,1.0
22.1,340.0016,1.0,1.0,1.0
22.11,313.4992,1.0,1.0,1.0
22.12,315.4977,1.0,1.0,1.0
22.13,309.0031,1.0,1.0,1.0
22.14,320.4992,1.0,1.0,1.0
22.15,363.4992,1.0,1.0,1.0
22.16,458.0016,1.0,1.0,1.0
22.17,435.9969,1.0,1.0,1.0
22.18,512.0032,1.0,1.0,1.0
22.19,575.9953,1.0,1.0,1.0
22.2,585.5039,1.0,1.0,1.0
22.21,647.9937,1.0,1.0,1.0
22.22,655.0,1.0,1.0,1.0
22.23,661.0,1.0,1.0,1.0
22.24,623.9968,1.0,1.0,1.0
22.25,717.0047,1.0,1.0,1.0
22.26,708.0016,1.0,1.0,1.0
22.27,654.0016,1.0,1.0,1.0
22.28,659.9984,1.0,1.0,1.0
22.29,661.5024,1.0,1.0,1.0
22.3,679.4992,1.0,1.0,1.0
22.31,632.4945,1.0,1.0,1.0
22.32,628.0016,1.0,1.0,1.0
22.33,655.5024,1.0,1.0,1.0
22.34,596.4992,1.0,1.0,1.0
22.35,577.4945,1.0,1.0,1.0
22.36,636.5008,1.0,1.0,1.0
22.37,647.0032,1.0,1.0,1.0
22.38,756.9953,1.0,1.0,1.0
22.39,779.0,1.0,1.0,1.0
22.4,789.5008,1.0,1.0,1.0
22.41,881.9937,1.0,1.0,1.0
22.42,870.5055,1.0,1.0,1.0
22.43,883.0,1.0,1.0,1.0
22.44,895.4992,1.0,1.0,1.0
22.45,937.5024,1.0,1.0,1.0
22.46,935.0063,1.0,1.0,1.0
22.47,880.4945,1.0,1.0,1.0
22.48,878.0047,1.0,1.0,1.0
22.49,760.0,1.0,1.0,1.0
22.5,680.5024,1.0,1.0,1.0
22.51,579.9968,1.0,1.0,1.0
22.52,575.0,1.0,1.0,1.0
22.53,476.0016,1.0,1.0,1.0
22.54,412.5008,1.0,1.0,1.0
22.55,434.0016,1.0,1.0,1.0
22.56,448.4977,1.0,1.0,1.0
22.57,400.4977,1.0,1.0,1.0
22.58,451.0063,1.0,1.0,1.0
22.59,504.9937,1.0,1.0,1.0
22.6,554.9968,1.0,1.0,1.0
22.61,611.4945,1.0,1.0,1.0
22.62,791.5055,1.0,1.0,1.0
22.63,757.5024,1.0,1.0,1.0
22.64,895.9968,1.0,1.0,1.0
22.65,954.0032,1.0,1.0,1.0
22.66,1047,1.0,1.0,1.0
22.67,1066.5,1.0,1.0,1.0
22.68,1129,1.0,1.0,1.0
22.69,1083,1.0,1.0,1.0
22.7,1056,1.0,1.0,1.0
22.71,1049,1.0,1.0,1.0
22.72,958.5039,1.0,1.0,1.0
22.73,1029.0,1.0,1.0,1.0
22.74,881.5071,1.0,1.0,1.0
22.75,813.4976,1.0,1.0,1.0
22.76,811.9921,1.0,1.0,1.0
22.77,692.0032,1.0,1.0,1.0
22.78,732.4992,1.0,1.0,1.0
22.79,741.5024,1.0,1.0,1.0
22.8,759.4992,1.0,1.0,1.0
22.81,703.0032,1.0,1.0,1.0
22.82,807.4961,1.0,1.0,1.0
22.83,911.5024,1.0,1.0,1.0
22.84,1018,1.0,1.0,1.0
22.85,1149,1.0,1.0,1.0
22.86,1288.5,1.0,1.0,1.0
22.87,1396.49,1.0,1.0,1.0
22.88,1582.5,1.0,1.0,1.0
22.89,1582.49,1.0,1.0,1.0
22.9,1747.01,1.0,1.0,1.0
22.91,1799.49,1.0,1.0,1.0
22.92,1929.5,1.0,1.0,1.0
22.93,2011.5,1.0,1.0,1.0
22.94,2098,1.0,1.0,1.0
22.95,2120,1.0,1.0,1.0
22.96,2255,1.0,1.0,1.0
22.97,2282,1.0,1.0,1.0
22.98,2277.5,1.0,1.0,1.0
22.99,2403.5,1.0,1.0,1.0
23.0,2560.49,1.0,1.0,1.0
23.01,2822.5,1.0,1.0,1.0
23.02,2903.49,1.0,1.0,1.0
23.03,3025.011,1.0,1.0,1.0
23.04,3206.98,1.0,1.0,1.0
23.05,3528.5,1.0,1.0,1.0
23.06,3809.49,1.0,1.0,1.0
23.07,4150.5,1.0,1.0,1.0
23.08,4442.0,1.0,1.0,1.0
23.09,4837.49,1.0,1.0,1.0
23.1,5222.499,1.0,1.0,1.0
23.11,5435.49,1.0,1.0,1.0
23.12,5716.49,1.0,1.0,1.0
23.13,5983.019,1.0,1.0,1.0
23.14,6158.99,1.0,1.0,1.0
23.15,6057.981,1.0,1.0,1.0
23.16,6050.019,1.0,1.0,1.0
23.17,5862.01,1.0,1.0,1.0
23.18,5696.01,1.0,1.0,1.0
23.19,5255.49,1.0,1.0,1.0
23.2,4836.51,1.0,1.0,1.0
23.21,4382.03,1.0,1.0,1.0
23.22,3958.49,1.0,1.0,1.0
23.23,3575.5,1.0,1.0,1.0
23.24,3192.01,1.0,1.0,1.0
23.25,2931.49,1.0,1.0,1.0
23.26,2804.011,1.0,1.0,1.0
23.27,2851.5,1.0,1.0,1.0
23.28,3000.99,1.0,1.0,1.0
23.29,3541.5,1.0,1.0,1.0
23.3,4274.48,1.0,1.0,1.0
23.31,5373.98,1.0,1.0,1.0
23.32,6770.48,1.0,1.0,1.0
23.33,8653.96,1.0,1.0,1.0
23.34,10998.9,1.0,1.0,1.0
23.35,14373.4,1.0,1.0,1.0
23.36,19482.4,1.0,1.0,1.0
23.37,27346.8,1.0,1.0,1.0
23.38,46227.4,1.0,1.0,1.0
23.39,172496,1.0,1.0,1.0
23.4,566327.5,1.0,1.0,1.0
23.41,973332.5,1.0,1.0,1.0
23.42,1606998.625,1.0,1.0,1.0
23.43,1772855.125,1.0,1.0,1.0
23.44,2217138.25,1.0,1.0,1.0
23.45,3155992.0,1.0,1.0,1.0
23.46,4690127.0,1.0,1.0,1.0
23.47,5962155.5,1.0,1.0,1.0
23.48,4376725.0,1.0,1.0,1.0
23.49,1311257.625,1.0,1.0,1.0
23.5,291133,1.0,1.0,1.0
23.51,134358,1.0,1.0,1.0
23.52,79716.1,1.0,1.0,1.0
23.53,49952.8,1.0,1.0,1.0
23.54,31567.707,1.0,1.0,1.0
23.55,20747.1,1.0,1.0,1.0
23.56,14844.6,1.0,1.0,1.0
23.57,10766.5,1.0,1.0,1.0
23.58,8281.04,1.0,1.0,1.0
23.59,6506.03,1.0,1.0,1.0
23.6,5128.022,1.0,1.0,1.0
23.61,4148.0,1.0,1.0,1.0
23.62,3387.51,1.0,1.0,1.0
23.63,3023.51,1.0,1.0,1.0
23.64,2724.0,1.0,1.0,1.0
23.65,2235,1.0,1.0,1.0
23.66,1982,1.0,1.0,1.0
23.67,1816.01,1.0,1.0,1.0
23.68,1455.01,1.0,1.0,1.0
23.69,1311.5,1.0,1.0,1.0
23.7,1123.01,1.0,1.0,1.0
23.71,966.0016,1.0,1.0,1.0
23.72,779.4992,1.0,1.0,1.0
23.73,758.5024,1.0,1.0,1.0
23.74,605.0016,1.0,1.0,1.0
23.75,516.0016,1.0,1.0,1.0
23.76,487.9969,1.0,1.0,1.0
23.77,461.5023,1.0,1.0,1.0
23.78,407.4992,1.0,1.0,1.0
23.79,397.5008,1.0,1.0,1.0
23.8,460.0016,1.0,1.0,1.0
23.81,480.4945,1.0,1.0,1.0
23.82,488.0063,1.0,1.0,1.0
23.83,494.9953,1.0,1.0,1.0
23.84,480.4992,1.0,1.0,1.0
23.85,489.9984,1.0,1.0,1.0
23.86,525.0047,1.0,1.0,1.0
23.87,498.9953,1.0,1.0,1.0
23.88,481.5086,1.0,1.0,1.0
23.89,452.4945,1.0,1.0,1.0
23.9,472.0,1.0,1.0,1.0
23.91,432.4992,1.0,1.0,1.0
23.92,416.5023,1.0,1.0,1.0
23.93,400.4992,1.0,1.0,1.0
23.94,339.9984,1.0,1.0,1.0
23.95,336.5023,1.0,1.0,1.0
23.96,353.5008,1.0,1.0,1.0
23.97,269.4992,1.0,1.0,1.0
23.98,306.0047,1.0,1.0,1.0
23.99,232.4929,1.0,1.0,1.0
24.0,202.5039,1.0,1.0,1.0
24.01,208.4961,1.0,1.0,1.0
24.02,191.5039,1.0,1.0,1.0
24.03,183.5024,1.0,1.0,1.0
24.04,133.4992,1.0,1.0,1.0
24.05,136.0016,1.0,1.0,1.0
24.06,129.9984,1.0,1.0,1.0
24.07,133.5008,1.0,1.0,1.0
24.08,129.5008,1.0,1.0,1.0
24.09,113.0,1.0,1.0,1.0
24.1,119.9984,1.0,1.0,1.0
24.11,103.5008,1.0,1.0,1.0
24.12,141.4992,1.0,1.0,1.0
24.13,94.0016,1.0,1.0,1.0
24.14,116.9984,1.0,1.0,1.0
24.15,119.0,1.0,1.0,1.0
24.16,121.0016,1.0,1.0,1.0
24.17,95.0,1.0,1.0,1.0
24.18,81.4992,1.0,1.0,1.0
24.19,100.0016,1.0,1.0,1.0
24.2,92.4992,1.0,1.0,1.0
24.21,97.9984,1.0,1.0,1.0
24.22,66.0016,1.0,1.0,1.0
24.23,54.9984,1.0,1.0,1.0
24.24,54.5024,1.0,1.0,1.0
24.25,63.0,1.0,1.0,1.0
24.26,78.4992,1.0,1.0,1.0
24.27,71.0,1.0,1.0,1.0
24.28,66.0,1.0,1.0,1.0
24.29,61.5008,1.0,1.0,1.0
24.3,46.4992,1.0,1.0,1.0
24.31,63.5008,1.0,1.0,1.0
24.32,59.9984,1.0,1.0,1.0
24.33,55.0016,1.0,1.0,1.0
24.34,76.4992,1.0,1.0,1.0
24.35,57.0,1.0,1.0,1.0
24.36,46.0,1.0,1.0,1.0
24.37,56.0,1.0,1.0,1.0
24.38,51.4992,1.0,1.0,1.0
24.39,40.5008,1.0,1.0,1.0
24.4,51.0,1.0,1.0,1.0
24.41,38.0,1.0,1.0,1.0
24.42,40.0,1.0,1.0,1.0
24.43,58.0,1.0,1.0,1.0
24.44,62.5008,1.0,1.0,1.0
24.45,53.4992,1.0,1.0,1.0
24.46,72.4992,1.0,1.0,1.0
24.47,73.0016,1.0,1.0,1.0
24.48,59.0,1.0,1.0,1.0
24.49,90.4992,1.0,1.0,1.0
24.5,81.5008,1.0,1.0,1.0
24.51,68.0,1.0,1.0,1.0
24.52,58.4976,1.0,1.0,1.0
24.53,71.4992,1.0,1.0,1.0
24.54,73.5008,1.0,1.0,1.0
24.55,69.0016,1.0,1.0,1.0
24.56,78.0,1.0,1.0,1.0
24.57,52.4992,1.0,1.0,1.0
24.58,69.0016,1.0,1.0,1.0
24.59,73.9984,1.0,1.0,1.0
24.6,77.0,1.0,1.0,1.0
24.61,84.0,1.0,1.0,1.0
24.62,58.5008,1.0,1.0,1.0
24.63,52.4992,1.0,1.0,1.0
24.64,61.0016,1.0,1.0,1.0
24.65,62.9984,1.0,1.0,1.0
24.66,44.5008,1.0,1.0,1.0
24.67,42.5008,1.0,1.0,1.0
24.68,31.4992,1.0,1.0,1.0
24.69,35.0,1.0,1.0,1.0
24.7,45.5008,1.0,1.0,1.0
24.71,41.0,1.0,1.0,1.0
24.72,48.0,1.0,1.0,1.0
24.73,50.0,1.0,1.0,1.0
24.74,53.4992,1.0,1.0,1.0
24.75,52.4992,1.0,1.0,1.0
24.76,51.0016,1.0,1.0,1.0
24.77,45.0,1.0,1.0,1.0
24.78,30.0,1.0,1.0,1.0
24.79,52.0,1.0,1.0,1.0
24.8,25.0,1.0,1.0,1.0
24.81,38.4992,1.0,1.0,1.0
24.82,42.0,1.0,1.0,1.0
24.83,32.5008,1.0,1.0,1.0
24.84,40.0,1.0,1.0,1.0
24.85,41.0,1.0,1.0,1.0
24.86,57.4992,1.0,1.0,1.0
24.87,54.5008,1.0,1.0,1.0
24.88,54.9984,1.0,1.0,1.0
24.89,52.5008,1.0,1.0,1.0
24.9,36.0,1.0,1.0,1.0
24.91,37.0,1.0,1.0,1.0
24.92,49.5008,1.0,1.0,1.0
24.93,40.9984,1.0,1.0,1.0
24.94,39.5008,1.0,1.0,1.0
24.95,45.5008,1.0,1.0,1.0
24.96,34.4992,1.0,1.0,1.0
24.97,28.5008,1.0,1.0,1.0
24.98,41.9984,1.0,1.0,1.0
24.99,44.0,1.0,1.0,1.0
25.0,50.0,1.0,1.0,1.0
25.01,38.0,1.0,1.0,1.0
25.02,23.5008,1.0,1.0,1.0
25.03,54.4992,1.0,1.0,1.0
25.04,24.0016,1.0,1.0,1.0
25.05,52.0,1.0,1.0,1.0
25.06,47.4992,1.0,1.0,1.0
25.07,41.5008,1.0,1.0,1.0
25.08,41.9984,1.0,1.0,1.0
25.09,36.0016,1.0,1.0,1.0
25.1,46.0,1.0,1.0,1.0
25.11,34.9984,1.0,1.0,1.0
25.12,44.0,1.0,1.0,1.0
25.13,59.0,1.0,1.0,1.0
25.14,39.0016,1.0,1.0,1.0
25.15,54.0,1.0,1.0,1.0
25.16,47.4992,1.0,1.0,1.0
25.17,33.5008,1.0,1.0,1.0
25.18,53.4992,1.0,1.0,1.0
25.19,30.0,1.0,1.0,1.0
25.2,40.5008,1.0,1.0,1.0
25.21,48.0,1.0,1.0,1.0
25.22,34.0,1.0,1.0,1.0
25.23,14.0,1.0,1.0,1.0
25.24,29.4992,1.0,1.0,1.0
25.25,43.4992,1.0,1.0,1.0
25.26,27.0016,1.0,1.0,1.0
25.27,39.9984,1.0,1.0,1.0
25.28,35.0016,1.0,1.0,1.0
25.29,30.0,1.0,1.0,1.0
25.3,24.0,1.0,1.0,1.0
25.31,22.0,1.0,1.0,1.0
25.32,19.0,1.0,1.0,1.0
25.33,25.0,1.0,1.0,1.0
25.34,37.0,1.0,1.0,1.0
25.35,20.0,1.0,1.0,1.0
25.36,25.0,1.0,1.0,1.0
25.37,20.4992,1.0,1.0,1.0
25.38,26.5008,1.0,1.0,1.0
25.39,18.0,1.0,1.0,1.0
25.4,25.9984,1.0,1.0,1.0
25.41,27.5008,1.0,1.0,1.0
25.42,28.4992,1.0,1.0,1.0
25.43,45.0016,1.0,1.0,1.0
25.44,24.4992,1.0,1.0,1.0
25.45,31.5008,1.0,1.0,1.0
25.46,20.0,1.0,1.0,1.0
25.47,24.0,1.0,1.0,1.0
25.48,29.0,1.0,1.0,1.0
25.49,6.0,1.0,1.0,1.0
25.5,10.0,1.0,1.0,1.0
25.51,15.0,1.0,1.0,1.0
25.52,23.0,1.0,1.0,1.0
25.53,23.0,1.0,1.0,1.0
25.54,23.0,1.0,1.0,1.0
25.55,17.4992,1.0,1.0,1.0
25.56,20.5008,1.0,1.0,1.0
25.57,22.4992,1.0,1.0,1.0
25.58,24.5008,1.0,1.0,1.0
25.59,26.0,1.0,1.0,1.0
25.6,20.0,1.0,1.0,1.0
25.61,34.9984,1.0,1.0,1.0
25.62,25.0016,1.0,1.0,1.0
25.63,31.0,1.0,1.0,1.0
25.64,28.4992,1.0,1.0,1.0
25.65,27.5008,1.0,1.0,1.0
25.66,14.9984,1.0,1.0,1.0
25.67,24.0016,1.0,1.0,1.0
25.68,30.0,1.0,1.0,1.0
25.69,38.0,1.0,1.0,1.0
25.7,27.0,1.0,1.0,1.0
25.71,16.4992,1.0,1.0,1.0
25.72,26.5008,1.0,1.0,1.0
25.73,23.0,1.0,1.0,1.0
25.74,28.4992,1.0,1.0,1.0
25.75,53.5008,1.0,1.0,1.0
25.76,22.0,1.0,1.0,1.0
25.77,47.0,1.0,1.0,1.0
25.78,39.0,1.0,1.0,1.0
25.79,31.4992,1.0,1.0,1.0
25.8,23.5008,1.0,1.0,1.0
25.81,45.4992,1.0,1.0,1.0
25.82,40.5008,1.0,1.0,1.0
25.83,30.0,1.0,1.0,1.0
25.84,29.9984,1.0,1.0,1.0
25.85,37.0016,1.0,1.0,1.0
25.86,28.0,1.0,1.0,1.0
25.87,17.4992,1.0,1.0,1.0
25.88,22.5008,1.0,1.0,1.0
25.89,26.0,1.0,1.0,1.0
25.9,22.4992,1.0,1.0,1.0
25.91,24.0,1.0,1.0,1.0
25.92,28.5008,1.0,1.0,1.0
25.93,22.4992,1.0,1.0,1.0
25.94,30.5008,1.0,1.0,1.0
25.95,20.4992,1.0,1.0,1.0
25.96,9.5008,1.0,1.0,1.0
25.97,17.0,1.0,1.0,1.0
25.98,19.0,1.0,1.0,1.0
25.99,15.9984,1.0,1.0,1.0
26.0,16.5008,1.0,1.0,1.0
26.01,14.5008,1.0,1.0,1.0
26.02,11.9984,1.0,1.0,1.0
26.03,29.0016,1.0,1.0,1.0
26.04,17.4992,1.0,1.0,1.0
26.05,28.5008,1.0,1.0,1.0
26.06,17.0,1.0,1.0,1.0
26.07,26.0,1.0,1.0,1.0
26.08,17.0,1.0,1.0,1.0
26.09,18.0,1.0,1.0,1.0
26.1,25.4992,1.0,1.0,1.0
26.11,26.0,1.0,1.0,1.0
26.12,16.5008,1.0,1.0,1.0
26.13,18.0,1.0,1.0,1.0
26.14,25.0,1.0,1.0,1.0
26.15,37.0,1.0,1.0,1.0
26.16,23.0,1.0,1.0,1.0
26.17,20.9984,1.0,1.0,1.0
26.18,30.0016,1.0,1.0,1.0
26.19,17.0,1.0,1.0,1.0
26.2,19.0,1.0,1.0,1.0
26.21,11.0,1.0,1.0,1.0
26.22,50.9984,1.0,1.0,1.0
26.23,14.0016,1.0,1.0,1.0
26.24,12.9984,1.0,1.0,1.0
26.25,26.0016,1.0,1.0,1.0
26.26,21.0,1.0,1.0,1.0
26.27,17.0,1.0,1.0,1.0
26.28,16.0,1.0,1.0,1.0
26.29,24.0,1.0,1.0,1.0
26.3,10.4992,1.0,1.0,1.0
26.31,11.0,1.0,1.0,1.0
26.32,33.5008,1.0,1.0,1.0
26.33,22.0,1.0,1.0,1.0
26.34,23.9984,1.0,1.0,1.0
26.35,15.5008,1.0,1.0,1.0
26.36,24.5008,1.0,1.0,1.0
26.37,16.0,1.0,1.0,1.0
26.38,18.0,1.0,1.0,1.0
26.39,21.0,1.0,1.0,1.0
26.4,18.0,1.0,1.0,1.0
26.41,14.0,1.0,1.0,1.0
26.42,6.0,1.0,1.0,1.0
26.43,24.0,1.0,1.0,1.0
26.44,27.0,1.0,1.0,1.0
26.45,13.0,1.0,1.0,1.0
26.46,22.0,1.0,1.0,1.0
26.47,19.0,1.0,1.0,1.0
26.48,17.4992,1.0,1.0,1.0
26.49,22.0,1.0,1.0,1.0
26.5,27.0,1.0,1.0,1.0
26.51,20.5008,1.0,1.0,1.0
26.52,8.0,1.0,1.0,1.0
26.53,15.9984,1.0,1.0,1.0
26.54,27.0016,1.0,1.0,1.0
26.55,23.4992,1.0,1.0,1.0
26.56,15.5008,1.0,1.0,1.0
26.57,12.0,1.0,1.0,1.0
26.58,19.0,1.0,1.0,1.0
26.59,4.4992,1.0,1.0,1.0
26.6,20.4992,1.0,1.0,1.0
26.61,23.0,1.0,1.0,1.0
26.62,26.0016,1.0,1.0,1.0
26.63,17.0,1.0,1.0,1.0
26.64,20.0,1.0,1.0,1.0
26.65,16.0,1.0,1.0,1.0
26.66,15.9984,1.0,1.0,1.0
26.67,20.0,1.0,1.0,1.0
26.68,24.0016,1.0,1.0,1.0
26.69,12.0,1.0,1.0,1.0
26.7,18.0,1.0,1.0,1.0
26.71,26.0,1.0,1.0,1.0
26.72,11.0,1.0,1.0,1.0
26.73,15.0,1.0,1.0,1.0
26.74,18.4992,1.0,1.0,1.0
26.75,25.5008,1.0,1.0,1.0
26.76,22.0,1.0,1.0,1.0
26.77,11.0,1.0,1.0,1.0
26.78,24.4992,1.0,1.0,1.0
26.79,20.0,1.0,1.0,1.0
26.8,15.5008,1.0,1.0,1.0
26.81,18.0,1.0,1.0,1.0
26.82,16.0,1.0,1.0,1.0
26.83,22.4992,1.0,1.0,1.0
26.84,25.0,1.0,1.0,1.0
26.85,22.5008,1.0,1.0,1.0
26.86,10.0,1.0,1.0,1.0
26.87,15.4992,1.0,1.0,1.0
26.88,25.5008,1.0,1.0,1.0
26.89,13.4992,1.0,1.0,1.0
26.9,21.0,1.0,1.0,1.0
26.91,19.5008,1.0,1.0,1.0
26.92,19.0,1.0,1.0,1.0
26.93,20.0,1.0,1.0,1.0
26.94,19.0,1.0,1.0,1.0
26.95,13.0,1.0,1.0,1.0
26.96,20.4992,1.0,1.0,1.0
26.97,20.5008,1.0,1.0,1.0
26.98,22.4992,1.0,1.0,1.0
26.99,20.5008,1.0,1.0,1.0
27.0,20.9984,1.0,1.0,1.0
27.01,15.5008,1.0,1.0,1.0
27.02,15.0,1.0,1.0,1.0
27.03,15.5008,1.0,1.0,1.0
27.04,15.0,1.0,1.0,1.0
27.05,18.0,1.0,1.0,1.0
27.06,16.0,1.0,1.0,1.0
27.07,18.0,1.0,1.0,1.0
27.08,10.4992,1.0,1.0,1.0
27.09,26.5008,1.0,1.0,1.0
27.1,22.4992,1.0,1.0,1.0
27.11,27.5008,1.0,1.0,1.0
27.12,16.4992,1.0,1.0,1.0
27.13,27.5008,1.0,1.0,1.0
27.14,17.4992,1.0,1.0,1.0
27.15,5.0,1.0,1.0,1.0
27.16,21.5008,1.0,1.0,1.0
27.17,5.0,1.0,1.0,1.0
27.18,30.0,1.0,1.0,1.0
27.19,18.4992,1.0,1.0,1.0
27.2,15.5008,1.0,1.0,1.0
27.21,18.0,1.0,1.0,1.0
27.22,11.0,1.0,1.0,1.0
27.23,20.0,1.0,1.0,1.0
27.24,26.0,1.0,1.0,1.0
27.25,28.0,1.0,1.0,1.0
27.26,40.0,1.0,1.0,1.0
27.27,12.0,1.0,1.0,1.0
27.28,21.0,1.0,1.0,1.0
27.29,12.9984,1.0,1.0,1.0
27.3,21.0016,1.0,1.0,1.0
27.31,29.4992,1.0,1.0,1.0
27.32,23.4992,1.0,1.0,1.0
27.33,24.0016,1.0,1.0,1.0
27.34,35.4992,1.0,1.0,1.0
27.35,17.5008,1.0,1.0,1.0
27.36,16.0,1.0,1.0,1.0
27.37,18.0,1.0,1.0,1.0
27.38,28.0,1.0,1.0,1.0
27.39,12.0,1.0,1.0,1.0
27.4,11.0,1.0,1.0,1.0
27.41,12.0,1.0,1.0,1.0
27.42,10.0,1.0,1.0,1.0
27.43,25.0,1.0,1.0,1.0
27.44,16.0,1.0,1.0,1.0
27.45,23.0,1.0,1.0,1.0
27.46,17.0,1.0,1.0,1.0
27.47,21.0,1.0,1.0,1.0
27.48,12.0,1.0,1.0,1.0
27.49,18.4992,1.0,1.0,1.0
27.5,23.0,1.0,1.0,1.0
27.51,29.4992,1.0,1.0,1.0
27.52,21.0016,1.0,1.0,1.0
27.53,11.4992,1.0,1.0,1.0
27.54,19.5008,1.0,1.0,1.0
27.55,17.4992,1.0,1.0,1.0
27.56,21.5008,1.0,1.0,1.0
27.57,20.0,1.0,1.0,1.0
27.58,22.0,1.0,1.0,1.0
27.59,23.4992,1.0,1.0,1.0
27.6,25.5008,1.0,1.0,1.0
27.61,28.4992,1.0,1.0,1.0
27.62,18.5008,1.0,1.0,1.0
27.63,18.0,1.0,1.0,1.0
27.64,12.4992,1.0,1.0,1.0
27.65,18.0,1.0,1.0,1.0
27.66,8.5008,1.0,1.0,1.0
27.67,16.4992,1.0,1.0,1.0
27.68,24.5008,1.0,1.0,1.0
27.69,18.4992,1.0,1.0,1.0
27.7,13.4992,1.0,1.0,1.0
27.71,13.0016,1.0,1.0,1.0
27.72,20.0,1.0,1.0,1.0
27.73,13.0,1.0,1.0,1.0
27.74,24.4992,1.0,1.0,1.0
27.75,3.5008,1.0,1.0,1.0
27.76,16.9984,1.0,1.0,1.0
27.77,17.5008,1.0,1.0,1.0
27.78,24.5008,1.0,1.0,1.0
27.79,31.0,1.0,1.0,1.0
27.8,20.0,1.0,1.0,1.0
27.81,17.4882,1.0,1.0,1.0
27.82,33.011,1.0,1.0,1.0
27.83,23.5008,1.0,1.0,1.0
27.84,15.4992,1.0,1.0,1.0
27.85,11.5008,1.0,1.0,1.0
27.86,13.0,1.0,1.0,1.0
27.87,24.9984,1.0,1.0,1.0
27.88,8.5008,1.0,1.0,1.0
27.89,18.5008,1.0,1.0,1.0
27.9,24.9984,1.0,1.0,1.0
27.91,17.5008,1.0,1.0,1.0
27.92,27.5008,1.0,1.0,1.0
27.93,16.0,1.0,1.0,1.0
27.94,9.0,1.0,1.0,1.0
27.95,15.0,1.0,1.0,1.0
27.96,14.0,1.0,1.0,1.0
27.97,16.0,1.0,1.0,1.0
27.98,16.9984,1.0,1.0,1.0
27.99,35.5008,1.0,1.0,1.0
28.0,19.4992,1.0,1.0,1.0
28.01,25.0016,1.0,1.0,1.0
28.02,17.4992,1.0,1.0,1.0
28.03,16.0,1.0,1.0,1.0
28.04,14.5008,1.0,1.0,1.0
28.05,24.0,1.0,1.0,1.0
28.06,5.4992,1.0,1.0,1.0
28.07,29.0,1.0,1.0,1.0
28.08,24.5008,1.0,1.0,1.0
28.09,13.0,1.0,1.0,1.0
28.1,16.0,1.0,1.0,1.0
28.11,11.0,1.0,1.0,1.0
28.12,10.0,1.0,1.0,1.0
28.13,15.0,1.0,1.0,1.0
28.14,11.0,1.0,1.0,1.0
28.15,23.0,1.0,1.0,1.0
28.16,7.0,1.0,1.0,1.0
28.17,18.0,1.0,1.0,1.0
28.18,19.0,1.0,1.0,1.0
28.19,15.0,1.0,1.0,1.0
28.2,9.4992,1.0,1.0,1.0
28.21,16.0,1.0,1.0,1.0
28.22,18.5008,1.0,1.0,1.0
28.23,8.4992,1.0,1.0,1.0
28.24,25.0,1.0,1.0,1.0
28.25,14.5008,1.0,1.0,1.0
28.26,16.4992,1.0,1.0,1.0
28.27,17.5008,1.0,1.0,1.0
28.28,26.0,1.0,1.0,1.0
28.29,19.0,1.0,1.0,1.0
28.3,8.0,1.0,1.0,1.0
28.31,13.0,1.0,1.0,1.0
28.32,24.0,1.0,1.0,1.0
28.33,16.0,1.0,1.0,1.0
28.34,11.0,1.0,1.0,1.0
28.35,6.0,1.0,1.0,1.0
28.36,13.4992,1.0,1.0,1.0
28.37,14.5008,1.0,1.0,1.0
28.38,26.0,1.0,1.0,1.0
28.39,12.9984,1.0,1.0,1.0
28.4,17.5008,1.0,1.0,1.0
28.41,14.5008,1.0,1.0,1.0
28.42,16.0,1.0,1.0,1.0
28.43,20.0,1.0,1.0,1.0
28.44,2.0,1.0,1.0,1.0
28.45,23.0,1.0,1.0,1.0
28.46,16.0,1.0,1.0,1.0
28.47,17.0,1.0,1.0,1.0
28.48,14.0,1.0,1.0,1.0
28.49,7.4992,1.0,1.0,1.0
28.5,18.5008,1.0,1.0,1.0
28.51,12.0,1.0,1.0,1.0
28.52,12.0,1.0,1.0,1.0
28.53,9.0,1.0,1.0,1.0
28.54,7.0,1.0,1.0,1.0
28.55,23.0,1.0,1.0,1.0
28.56,4.0,1.0,1.0,1.0
28.57,23.0,1.0,1.0,1.0
28.58,6.0,1.0,1.0,1.0
28.59,15.0,1.0,1.0,1.0
28.6,13.4992,1.0,1.0,1.0
28.61,28.0,1.0,1.0,1.0
28.62,35.5008,1.0,1.0,1.0
28.63,17.4992,1.0,1.0,1.0
28.64,9.5008,1.0,1.0,1.0
28.65,12.0,1.0,1.0,1.0
28.66,16.0,1.0,1.0,1.0
28.67,11.0,1.0,1.0,1.0
28.68,12.0,1.0,1.0,1.0
28.69,17.0,1.0,1.0,1.0
28.7,19.0,1.0,1.0,1.0
28.71,13.0,1.0,1.0,1.0
28.72,17.0,1.0,1.0,1.0
28.73,4.0,1.0,1.0,1.0
28.74,7.0,1.0,1.0,1.0
28.75,14.0,1.0,1.0,1.0
28.76,15.0,1.0,1.0,1.0
28.77,8.4992,1.0,1.0,1.0
28.78,26.4992,1.0,1.0,1.0
28.79,21.0016,1.0,1.0,1.0
28.8,5.0,1.0,1.0,1.0
28.81,20.0,1.0,1.0,1.0
28.82,19.0,1.0,1.0,1.0
28.83,19.4992,1.0,1.0,1.0
28.84,27.4992,1.0,1.0,1.0
28.85,27.0016,1.0,1.0,1.0
28.86,19.4992,1.0,1.0,1.0
28.87,19.5008,1.0,1.0,1.0
28.88,29.0,1.0,1.0,1.0
28.89,18.0,1.0,1.0,1.0
28.9,23.4992,1.0,1.0,1.0
28.91,12.5008,1.0,1.0,1.0
28.92,20.0,1.0,1.0,1.0
28.93,16.4992,1.0,1.0,1.0
28.94,16.5008,1.0,1.0,1.0
28.95,10.0,1.0,1.0,1.0
28.96,5.0,1.0,1.0,1.0
28.97,19.0,1.0,1.0,1.0
28.98,18.0,1.0,1.0,1.0
28.99,8.0,1.0,1.0,1.0
29.0,17.0,1.0,1.0,1.0
29.01,20.4992,1.0,1.0,1.0
29.02,13.5008,1.0,1.0,1.0
29.03,7.0,1.0,1.0,1.0
29.04,13.0,1.0,1.0,1.0
29.05,13.0,1.0,1.0,1.0
29.06,13.4992,1.0,1.0,1.0
29.07,14.0,1.0,1.0,1.0
29.08,17.5008,1.0,1.0,1.0
29.09,9.0,1.0,1.0,1.0
29.1,11.0,1.0,1.0,1.0
29.11,11.0,1.0,1.0,1.0
29.12,12.4976,1.0,1.0,1.0
29.13,18.5024,1.0,1.0,1.0
29.14,23.0,1.0,1.0,1.0
29.15,25.0,1.0,1.0,1.0
29.16,12.0,1.0,1.0,1.0
29.17,20.4992,1.0,1.0,1.0
29.18,18.5008,1.0,1.0,1.0
29.19,9.4992,1.0,1.0,1.0
29.2,22.5008,1.0,1.0,1.0
29.21,25.0,1.0,1.0,1.0
29.22,14.4992,1.0,1.0,1.0
29.23,11.5008,1.0,1.0,1.0
29.24,18.4992,1.0,1.0,1.0
29.25,16.5008,1.0,1.0,1.0
29.26,21.0,1.0,1.0,1.0
29.27,9.4992,1.0,1.0,1.0
29.28,14.5008,1.0,1.0,1.0
29.29,29.0,1.0,1.0,1.0
29.3,15.0,1.0,1.0,1.0
29.31,25.9984,1.0,1.0,1.0
29.32,8.0016,1.0,1.0,1.0
29.33,12.4992,1.0,1.0,1.0
29.34,22.0,1.0,1.0,1.0
29.35,16.5008,1.0,1.0,1.0
29.36,18.0,1.0,1.0,1.0
29.37,25.0,1.0,1.0,1.0
29.38,17.0,1.0,1.0,1.0
29.39,25.0,1.0,1.0,1.0
29.4,9.0,1.0,1.0,1.0
29.41,7.0,1.0,1.0,1.0
29.42,11.0,1.0,1.0,1.0
29.43,10.4992,1.0,1.0,1.0
29.44,20.5008,1.0,1.0,1.0
29.45,9.0,1.0,1.0,1.0
29.46,10.0,1.0,1.0,1.0
29.47,11.0,1.0,1.0,1.0
29.48,8.4992,1.0,1.0,1.0
29.49,17.5008,1.0,1.0,1.0
29.5,15.0,1.0,1.0,1.0
29.51,13.4992,1.0,1.0,1.0
29.52,3.5008,1.0,1.0,1.0
29.53,6.0,1.0,1.0,1.0
29.54,12.0,1.0,1.0,1.0
29.55,6.0,1.0,1.0,1.0
29.56,16.0,1.0,1.0,1.0
29.57,27.0,1.0,1.0,1.0
29.58,11.0,1.0,1.0,1.0
29.59,18.0,1.0,1.0,1.0
29.6,13.4992,1.0,1.0,1.0
29.61,12.5008,1.0,1.0,1.0
29.62,12.0,1.0,1.0,1.0
29.63,9.0,1.0,1.0,1.0
29.64,27.0,1.0,1.0,1.0
29.65,15.0,1.0,1.0,1.0
29.66,11.0,1.0,1.0,1.0
29.67,22.0,1.0,1.0,1.0
29.68,15.0,1.0,1.0,1.0
29.69,7.4992,1.0,1.0,1.0
29.7,18.5008,1.0,1.0,1.0
29.71,17.0,1.0,1.0,1.0
29.72,4.0,1.0,1.0,1.0
29.73,10.0,1.0,1.0,1.0
29.74,4.4992,1.0,1.0,1.0
29.75,10.5008,1.0,1.0,1.0
29.76,12.0,1.0,1.0,1.0
29.77,23.0,1.0,1.0,1.0
29.78,20.0,1.0,1.0,1.0
29.79,6.0,1.0,1.0,1.0
29.8,14.0,1.0,1.0,1.0
29.81,19.4992,1.0,1.0,1.0
29.82,17.5008,1.0,1.0,1.0
29.83,6.0,1.0,1.0,1.0
29.84,6.0,1.0,1.0,1.0
29.85,10.9984,1.0,1.0,1.0
29.86,9.0016,1.0,1.0,1.0
29.87,11.0,1.0,1.0,1.0
29.88,15.0,1.0,1.0,1.0
29.89,8.0,1.0,1.0,1.0
29.9,6.0,1.0,1.0,1.0
29.91,5.0,1.0,1.0,1.0
29.92,19.0,1.0,1.0,1.0
29.93,9.0,1.0,1.0,1.0
29.94,15.0,1.0,1.0,1.0
29.95,17.0,1.0,1.0,1.0
29.96,18.0,1.0,1.0,1.0
29.97,18.0,1.0,1.0,1.0
29.98,11.4992,1.0,1.0,1.0
29.99,22.5008,1.0,1.0,1.0
30.0,7.0,1.0,1.0,1.0