File: XRD:XRR/SCO/22165_SL(CO)L/22165_SL(CO)L_XRD_001_2-Theta_Omega.asc
*TYPE		=  Raw
*CLASS		=  ASCII CLASS
*SAMPLE		=
*COMMENT	=
*FNAME		=  22165_SL(CO)L_XRD_001_2-Theta_Omega.asc
*DATE		=  10-Dec-22 21:33

*GROUP_COUNT	=  1
*GONIO		=  SmartLab(In-plane), 0.000000
*ATTACHMENT	=  Z-Phi Stage
*ASC		=  0, 0, 0.000000, 0.000000
*I_MONOCHRO	=  Ge(220)x2, 0.000000
*FILTER		=  None
*C_MONOCHRO	=  None, 0.000000
*SLIT_NAME	=  0, Incident slit
*SLIT_NAME	=  1, Receiving slit # 1
*SLIT_NAME	=  2, Receiving slit # 2
*COUNTER	=  D/teX Ultra 250, 0
*POS_FORMAT	=  0
*SCAN_AXIS	=  2Theta/Omega
*MEAS_MODE	=  Continuous Scanning
*TARGET		=  29
*XRAY_CHAR	=  K-ALPHA1
*WAVE_LENGTH1	=  1.54059
*WAVE_LENGTH2	=  1.54441
*THICKNESS	=  0, 0.000000
*MU		=  0, 0.000000
*SCAN_MODE	=  2Theta/Omega
*SPEED_DIM	=  sec./step
*XUNIT		=  deg.
*YUNIT		=  counts
*SCALE_MODE	=  1
*REP_COUNT	=  0
*SE_COUNT	=  0
*STD_MATERIAL	=  Unknown, Unknown, 0.000000, 0.000000, 0.000000, 0.000000, 0.000000, 0.000000
*LATT_CONS	=  0, Unknown, Unknown, 0.000000, 0.000000, 0.000000, 0.000000, 0.000000, 0.000000
*SEC_COUNT	=  1
*TSPEC_SIZE	=  0
*EXTRA_SIZE	=  0
*MEMO		=

*BEGIN
*GROUP		=  0
*START		=  16
*STOP		=  30
*STEP		=  0.01
*OFFSET		=  0.1653
*SPEED		=  23.9588
*SLIT_SPEC	=  0, 0.400mm, 0.4, 0.000000
*SLIT_SPEC	=  1, 0.400mm, 0.4, 0.000000
*SLIT_SPEC	=  2, 0.400mm, 0.4, 0.000000
*KV		=  40
*MA		=  30
*LOW		=  0.000000
*HIGH		=  0.000000
*CTEMPER	=  0, 0.000000
*CTEMPER	=  1, 0.000000
*CTEMPER	=  2, 0.000000
*PAREX		=  0, 0.000000
*PAREX		=  1, 0.000000
*PAREX		=  2, 0.000000
*PAREX		=  3, 0.000000
*PAREX		=  4, 0.000000
*PAREX		=  5, 0.000000
*PAREX		=  6, 0.000000
*PAREX		=  7, 0.000000
*PAREX		=  8, 0.000000
*PAREX		=  9, 0.000000
*PAREX		=  10, 0.000000
*PAREX		=  11, 0.000000
*PAREX		=  12, 0.000000
*PAREX		=  13, 0.000000
*PAREX		=  14, 0.000000
*PAREX		=  15, 0.000000
*FULL_SCALE	=  307383
*INDEX		=  0, 0, 0
*COUNT		=  1401
35, 45.4976, 40.5024, 39
50.9984, 38, 57.0016, 47
29, 34.9984, 37.5008, 42
42.9984, 38.5024, 48.4992, 45.5008
37.4992, 41.5008, 49, 33
31.4992, 28.4992, 48.5008, 33
33.5008, 46.4992, 27.4992, 44.0016
49, 44.4992, 50, 46.5008
14.9984, 29.0016, 42.4992, 35
35.4992, 43.0016, 33.4992, 42.5008
49.9984, 40.4992, 38.5024, 49
44, 41.4992, 37.5008, 21.9984
38.5008, 53, 45.9984, 43.0016
37.4992, 40.0016, 42, 36.9984
45, 28.0016, 32.4992, 34.4992
46, 33.0016, 50, 45.4976
43.5024, 36.4992, 32.5008, 48
56.4992, 44.5008, 47.9969, 36.0016
57, 51, 56.5008, 40.5008
41, 43.4992, 62.5008, 42.4992
33.5008, 51.4976, 52.5024, 32
64.4992, 40.5008, 45, 33
50, 55.4992, 33.5008, 40
31, 39, 43.9984, 55.5008
30.5008, 49, 35, 47
33.9984, 44.0016, 45, 27
48.4992, 34.9984, 51.5024, 46
41.4992, 28.4992, 47.0016, 37
41.4992, 38.5008, 44, 44.4992
31.5008, 34, 50, 46
43, 44, 28.9984, 31.5008
55.4992, 35.0016, 47.4992, 33.5008
28.4992, 56.5008, 48.4992, 33.5008
42.4976, 33.5008, 50.5008, 45
46.5008, 40.4992, 32.4992, 52.5008
62.4992, 51, 45.0016, 45.4992
46, 34, 57.5008, 49
38, 47.9984, 53, 51.5008
40.5008, 49.4992, 48.5008, 43
60, 40.4976, 43.5008, 60.5008
31.5008, 31.4976, 68.0016, 46
60, 46, 47.9984, 63.5008
49.0016, 34, 50, 48.4992
52, 53.5008, 30.4992, 66.5008
41, 38.9969, 52.0016, 64.0016
52.4992, 52.5008, 52.4992, 43
41.4992, 61.0016, 50.4992, 41.5008
52.4992, 44, 70.9984, 31.0016
49.4992, 38.5008, 62.4992, 35.0016
30.4992, 50.4992, 57.0016, 38.9984
48.9984, 54.0031, 44, 43
48.4992, 53.4992, 51.9984, 65.5008
31.5008, 48.0016, 51, 55.9984
41, 26.0016, 57.9984, 32.0016
37, 50.4992, 39, 56.5008
45, 47, 45.9984, 51.0016
30.4992, 48.5008, 41.4992, 48
63.4976, 39.0031, 54, 63.4992
46, 40.5008, 35.4992, 55.4992
41.0016, 45, 46, 49
48.4992, 46, 52, 23.5008
33, 53, 48.9984, 57.0016
39, 37, 39, 55.4992
34.5008, 42, 34, 44.4992
50, 42, 44, 44.5008
51, 20, 51.9984, 33.0016
37, 37, 39, 37.4992
43.5008, 44.4992, 59.5008, 34
44, 58.4992, 38, 35.5008
38.9984, 39.5008, 41.5008, 43.4992
58.5008, 45.4976, 38.0016, 41
41.5008, 31, 49, 49
44.4992, 39.4992, 34.0016, 30.4992
56, 32.5008, 49, 26
42.4992, 36.4992, 44.0016, 70
64.4992, 44.5008, 33, 30
42.4976, 54.4992, 69.5024, 37
34.5008, 57.9969, 58.5024, 47.5008
43, 50, 47.4992, 65.5008
51, 32, 51.9984, 64.5008
65, 41.5008, 57.9984, 51
57.5008, 46.5008, 48.4992, 56.9984
80.5024, 46, 64, 60.4992
69.5008, 60.4992, 49, 53
49.5008, 53, 53, 44.9984
48.0016, 47.4992, 54.4992, 49.4992
56.5008, 43.5008, 42.5008, 55.4992
41.9984, 42.5008, 54.5008, 48
48.9984, 51.5024, 47, 55.9984
53, 58, 58.0016, 49.4992
44.5008, 47, 50, 25.4992
40.5008, 30, 45, 38.9984
33.0016, 56.4976, 42.5008, 33.0016
45, 46.9984, 49.5008, 40.5008
45.4992, 47.9984, 67, 51.5024
52, 47, 38.4992, 57
47.5008, 40, 56.9984, 57.5008
78, 52.9984, 87.9984, 69.0031
77, 72.5008, 89.4992, 59.4992
77.4992, 83, 95.5024, 75.9984
97.0016, 66, 64.9969, 77.0016
77.5008, 64, 68.5008, 51.4976
58.0016, 42.5008, 44.4992, 76.9984
40.0016, 64, 53.5008, 60.4961
51.5039, 40.9984, 66.0016, 64.9984
64.5008, 43.4992, 69.0016, 54
61.9953, 74.0047, 41, 70
57.9984, 49.5008, 58, 38
36.4976, 74.0031, 40.4992, 43.5008
50.9984, 47.0016, 39, 47.4992
54, 59, 42, 58.5008
58, 66.4976, 49.5024, 66
70.9969, 52.0031, 44, 44.4992
46.4992, 59.5008, 47.4992, 44.4992
56, 52.0016, 50, 61.5008
47, 62.9969, 44.0031, 51.4992
74.9984, 63.5024, 80.4992, 83.4992
68.5008, 76.5008, 83.4945, 65.0047
80, 67.5008, 67.9969, 72.5024
65, 44.5008, 31.4992, 50.4992
42.0016, 51, 81.4976, 42.5008
45.5008, 54.5008, 55.9984, 40.0016
47, 79.9984, 60.0016, 48.4992
89.4992, 49, 51.0016, 57.4992
59.5008, 41, 46, 45.4992
41.4992, 46.5008, 39.5008, 40.4992
55.4992, 46.0016, 34.9984, 35.5008
39.5008, 44, 63.9984, 48.0016
57, 63, 78, 67.9984
81.4992, 92, 106, 112
122, 145.498, 163.504, 152.498
181.499, 231.003, 199.994, 248.504
215.498, 216.003, 261.499, 261.997
221.499, 245.002, 228.002, 161.501
180.002, 187.499, 188, 177.998
178.002, 136.998, 142, 163.002
129.997, 105.504, 140.498, 165.498
172.504, 202, 204.499, 211.496
199.502, 233, 221, 227.498
260.501, 236.502, 230.003, 215.494
226.002, 220.499, 178.003, 193.501
200.494, 151.006, 151.498, 169.499
174.501, 143.002, 136.501, 175
171.997, 174.501, 156, 159.502
156.498, 127.502, 160.499, 158.498
172.499, 171.005, 176.998, 174.496
198.501, 206.499, 248, 275.003
315.498, 348, 411, 464.493
510.003, 521.003, 606.998, 625.997
662.505, 702.49, 725.502, 736.498
728.501, 696, 626.005, 614.002
568.501, 499.501, 444.498, 391.003
413.002, 334.998, 340.002, 313.499
315.498, 309.003, 320.499, 363.499
458.002, 435.997, 512.003, 575.995
585.504, 647.994, 655, 661
623.997, 717.005, 708.002, 654.002
659.998, 661.502, 679.499, 632.495
628.002, 655.502, 596.499, 577.495
636.501, 647.003, 756.995, 779
789.501, 881.994, 870.505, 883
895.499, 937.502, 935.006, 880.495
878.005, 760, 680.502, 579.997
575, 476.002, 412.501, 434.002
448.498, 400.498, 451.006, 504.994
554.997, 611.495, 791.505, 757.502
895.997, 954.003, 1047, 1066.5
1129, 1083, 1056, 1049
958.504, 1029, 881.507, 813.498
811.992, 692.003, 732.499, 741.502
759.499, 703.003, 807.496, 911.502
1018, 1149, 1288.5, 1396.49
1582.5, 1582.49, 1747.01, 1799.49
1929.5, 2011.5, 2098, 2120
2255, 2282, 2277.5, 2403.5
2560.49, 2822.5, 2903.49, 3025.01
3206.98, 3528.5, 3809.49, 4150.5
4442, 4837.49, 5222.5, 5435.49
5716.49, 5983.02, 6158.99, 6057.98
6050.02, 5862.01, 5696.01, 5255.49
4836.51, 4382.03, 3958.49, 3575.5
3192.01, 2931.49, 2804.01, 2851.5
3000.99, 3541.5, 4274.48, 5373.98
6770.48, 8653.96, 10998.9, 14373.4
19482.4, 27346.8, 46227.4, 172496
566328, 973333, 1606998.6, 1772855.1
2217138.3, 3155992, 4690127, 5962155.5
4376725, 1311257.6, 291133, 134358
79716.1, 49952.8, 31567.7, 20747.1
14844.6, 10766.5, 8281.04, 6506.03
5128.02, 4148, 3387.51, 3023.51
2724, 2235, 1982, 1816.01
1455.01, 1311.5, 1123.01, 966.002
779.499, 758.502, 605.002, 516.002
487.997, 461.502, 407.499, 397.501
460.002, 480.495, 488.006, 494.995
480.499, 489.998, 525.005, 498.995
481.509, 452.495, 472, 432.499
416.502, 400.499, 339.998, 336.502
353.501, 269.499, 306.005, 232.493
202.504, 208.496, 191.504, 183.502
133.499, 136.002, 129.998, 133.501
129.501, 113, 119.998, 103.501
141.499, 94.0016, 116.998, 119
121.002, 95, 81.4992, 100.002
92.4992, 97.9984, 66.0016, 54.9984
54.5024, 63, 78.4992, 71
66, 61.5008, 46.4992, 63.5008
59.9984, 55.0016, 76.4992, 57
46, 56, 51.4992, 40.5008
51, 38, 40, 58
62.5008, 53.4992, 72.4992, 73.0016
59, 90.4992, 81.5008, 68
58.4976, 71.4992, 73.5008, 69.0016
78, 52.4992, 69.0016, 73.9984
77, 84, 58.5008, 52.4992
61.0016, 62.9984, 44.5008, 42.5008
31.4992, 35, 45.5008, 41
48, 50, 53.4992, 52.4992
51.0016, 45, 30, 52
25, 38.4992, 42, 32.5008
40, 41, 57.4992, 54.5008
54.9984, 52.5008, 36, 37
49.5008, 40.9984, 39.5008, 45.5008
34.4992, 28.5008, 41.9984, 44
50, 38, 23.5008, 54.4992
24.0016, 52, 47.4992, 41.5008
41.9984, 36.0016, 46, 34.9984
44, 59, 39.0016, 54
47.4992, 33.5008, 53.4992, 30
40.5008, 48, 34, 14
29.4992, 43.4992, 27.0016, 39.9984
35.0016, 30, 24, 22
19, 25, 37, 20
25, 20.4992, 26.5008, 18
25.9984, 27.5008, 28.4992, 45.0016
24.4992, 31.5008, 20, 24
29, 6, 10, 15
23, 23, 23, 17.4992
20.5008, 22.4992, 24.5008, 26
20, 34.9984, 25.0016, 31
28.4992, 27.5008, 14.9984, 24.0016
30, 38, 27, 16.4992
26.5008, 23, 28.4992, 53.5008
22, 47, 39, 31.4992
23.5008, 45.4992, 40.5008, 30
29.9984, 37.0016, 28, 17.4992
22.5008, 26, 22.4992, 24
28.5008, 22.4992, 30.5008, 20.4992
9.50079, 17, 19, 15.9984
16.5008, 14.5008, 11.9984, 29.0016
17.4992, 28.5008, 17, 26
17, 18, 25.4992, 26
16.5008, 18, 25, 37
23, 20.9984, 30.0016, 17
19, 11, 50.9984, 14.0016
12.9984, 26.0016, 21, 17
16, 24, 10.4992, 11
33.5008, 22, 23.9984, 15.5008
24.5008, 16, 18, 21
18, 14, 6, 24
27, 13, 22, 19
17.4992, 22, 27, 20.5008
8, 15.9984, 27.0016, 23.4992
15.5008, 12, 19, 4.49921
20.4992, 23, 26.0016, 17
20, 16, 15.9984, 20
24.0016, 12, 18, 26
11, 15, 18.4992, 25.5008
22, 11, 24.4992, 20
15.5008, 18, 16, 22.4992
25, 22.5008, 10, 15.4992
25.5008, 13.4992, 21, 19.5008
19, 20, 19, 13
20.4992, 20.5008, 22.4992, 20.5008
20.9984, 15.5008, 15, 15.5008
15, 18, 16, 18
10.4992, 26.5008, 22.4992, 27.5008
16.4992, 27.5008, 17.4992, 5
21.5008, 5, 30, 18.4992
15.5008, 18, 11, 20
26, 28, 40, 12
21, 12.9984, 21.0016, 29.4992
23.4992, 24.0016, 35.4992, 17.5008
16, 18, 28, 12
11, 12, 10, 25
16, 23, 17, 21
12, 18.4992, 23, 29.4992
21.0016, 11.4992, 19.5008, 17.4992
21.5008, 20, 22, 23.4992
25.5008, 28.4992, 18.5008, 18
12.4992, 18, 8.50079, 16.4992
24.5008, 18.4992, 13.4992, 13.0016
20, 13, 24.4992, 3.50079
16.9984, 17.5008, 24.5008, 31
20, 17.4882, 33.011, 23.5008
15.4992, 11.5008, 13, 24.9984
8.50079, 18.5008, 24.9984, 17.5008
27.5008, 16, 9, 15
14, 16, 16.9984, 35.5008
19.4992, 25.0016, 17.4992, 16
14.5008, 24, 5.49921, 29
24.5008, 13, 16, 11
10, 15, 11, 23
7, 18, 19, 15
9.49921, 16, 18.5008, 8.49921
25, 14.5008, 16.4992, 17.5008
26, 19, 8, 13
24, 16, 11, 6
13.4992, 14.5008, 26, 12.9984
17.5008, 14.5008, 16, 20
2, 23, 16, 17
14, 7.49921, 18.5008, 12
12, 9, 7, 23
4, 23, 6, 15
13.4992, 28, 35.5008, 17.4992
9.50079, 12, 16, 11
12, 17, 19, 13
17, 4, 7, 14
15, 8.49921, 26.4992, 21.0016
5, 20, 19, 19.4992
27.4992, 27.0016, 19.4992, 19.5008
29, 18, 23.4992, 12.5008
20, 16.4992, 16.5008, 10
5, 19, 18, 8
17, 20.4992, 13.5008, 7
13, 13, 13.4992, 14
17.5008, 9, 11, 11
12.4976, 18.5024, 23, 25
12, 20.4992, 18.5008, 9.49921
22.5008, 25, 14.4992, 11.5008
18.4992, 16.5008, 21, 9.49921
14.5008, 29, 15, 25.9984
8.00157, 12.4992, 22, 16.5008
18, 25, 17, 25
9, 7, 11, 10.4992
20.5008, 9, 10, 11
8.49921, 17.5008, 15, 13.4992
3.50079, 6, 12, 6
16, 27, 11, 18
13.4992, 12.5008, 12, 9
27, 15, 11, 22
15, 7.49921, 18.5008, 17
4, 10, 4.49921, 10.5008
12, 23, 20, 6
14, 19.4992, 17.5008, 6
6, 10.9984, 9.00157, 11
15, 8, 6, 5
19, 9, 15, 17
18, 18, 11.4992, 22.5008
7
*END

*EOF