File: XRD:XRR/SCO/22165_SL(CO)L/22165_SL(CO)L_002_XRD.csv
#twotheta, yobs, ycal, bkg, diff
42.0,5.0,1.0,1.0,1.0
42.01,0.0,1.0,1.0,1.0
42.02,13.0,1.0,1.0,1.0
42.03,9.0,1.0,1.0,1.0
42.04,11.0,1.0,1.0,1.0
42.05,11.0,1.0,1.0,1.0
42.06,9.0,1.0,1.0,1.0
42.07,13.4944,1.0,1.0,1.0
42.08,14.5056,1.0,1.0,1.0
42.09,7.0,1.0,1.0,1.0
42.1,16.0,1.0,1.0,1.0
42.11,11.0,1.0,1.0,1.0
42.12,7.0,1.0,1.0,1.0
42.13,7.0,1.0,1.0,1.0
42.14,4.0,1.0,1.0,1.0
42.15,4.0,1.0,1.0,1.0
42.16,12.0,1.0,1.0,1.0
42.17,4.0,1.0,1.0,1.0
42.18,11.0,1.0,1.0,1.0
42.19,18.0,1.0,1.0,1.0
42.2,10.0,1.0,1.0,1.0
42.21,7.0,1.0,1.0,1.0
42.22,13.0,1.0,1.0,1.0
42.23,8.0,1.0,1.0,1.0
42.24,9.0,1.0,1.0,1.0
42.25,4.0,1.0,1.0,1.0
42.26,9.0,1.0,1.0,1.0
42.27,8.4944,1.0,1.0,1.0
42.28,17.5056,1.0,1.0,1.0
42.29,7.9889,1.0,1.0,1.0
42.3,15.0111,1.0,1.0,1.0
42.31,15.4944,1.0,1.0,1.0
42.32,7.5056,1.0,1.0,1.0
42.33,8.0,1.0,1.0,1.0
42.34,11.0,1.0,1.0,1.0
42.35,13.4944,1.0,1.0,1.0
42.36,8.5056,1.0,1.0,1.0
42.37,14.4944,1.0,1.0,1.0
42.38,2.5056,1.0,1.0,1.0
42.39,4.0,1.0,1.0,1.0
42.4,5.4944,1.0,1.0,1.0
42.41,8.5056,1.0,1.0,1.0
42.42,8.0,1.0,1.0,1.0
42.43,4.0,1.0,1.0,1.0
42.44,24.0,1.0,1.0,1.0
42.45,7.0,1.0,1.0,1.0
42.46,14.0,1.0,1.0,1.0
42.47,5.0,1.0,1.0,1.0
42.48,5.0,1.0,1.0,1.0
42.49,12.0,1.0,1.0,1.0
42.5,15.0,1.0,1.0,1.0
42.51,5.0,1.0,1.0,1.0
42.52,6.0,1.0,1.0,1.0
42.53,18.0,1.0,1.0,1.0
42.54,24.4944,1.0,1.0,1.0
42.55,12.0,1.0,1.0,1.0
42.56,7.5056,1.0,1.0,1.0
42.57,4.0,1.0,1.0,1.0
42.58,14.0,1.0,1.0,1.0
42.59,12.4944,1.0,1.0,1.0
42.6,12.5056,1.0,1.0,1.0
42.61,14.0,1.0,1.0,1.0
42.62,8.0,1.0,1.0,1.0
42.63,7.0,1.0,1.0,1.0
42.64,9.0,1.0,1.0,1.0
42.65,5.0,1.0,1.0,1.0
42.66,6.0,1.0,1.0,1.0
42.67,12.0,1.0,1.0,1.0
42.68,6.0,1.0,1.0,1.0
42.69,6.0,1.0,1.0,1.0
42.7,4.0,1.0,1.0,1.0
42.71,8.0,1.0,1.0,1.0
42.72,7.0,1.0,1.0,1.0
42.73,7.0,1.0,1.0,1.0
42.74,6.0,1.0,1.0,1.0
42.75,5.0,1.0,1.0,1.0
42.76,11.0,1.0,1.0,1.0
42.77,10.0,1.0,1.0,1.0
42.78,8.4944,1.0,1.0,1.0
42.79,13.5056,1.0,1.0,1.0
42.8,6.0,1.0,1.0,1.0
42.81,6.0,1.0,1.0,1.0
42.82,2.0,1.0,1.0,1.0
42.83,5.0,1.0,1.0,1.0
42.84,13.4944,1.0,1.0,1.0
42.85,24.5056,1.0,1.0,1.0
42.86,8.0,1.0,1.0,1.0
42.87,11.0,1.0,1.0,1.0
42.88,8.0,1.0,1.0,1.0
42.89,9.0,1.0,1.0,1.0
42.9,5.0,1.0,1.0,1.0
42.91,8.0,1.0,1.0,1.0
42.92,15.0,1.0,1.0,1.0
42.93,14.0,1.0,1.0,1.0
42.94,10.0,1.0,1.0,1.0
42.95,8.0,1.0,1.0,1.0
42.96,4.0,1.0,1.0,1.0
42.97,11.0,1.0,1.0,1.0
42.98,19.0,1.0,1.0,1.0
42.99,3.0,1.0,1.0,1.0
43.0,14.0,1.0,1.0,1.0
43.01,10.0,1.0,1.0,1.0
43.02,68.0,1.0,1.0,1.0
43.03,13.0,1.0,1.0,1.0
43.04,26.0,1.0,1.0,1.0
43.05,5.4944,1.0,1.0,1.0
43.06,6.0,1.0,1.0,1.0
43.07,11.5056,1.0,1.0,1.0
43.08,13.0,1.0,1.0,1.0
43.09,19.4944,1.0,1.0,1.0
43.1,11.5056,1.0,1.0,1.0
43.11,115.0,1.0,1.0,1.0
43.12,12.0,1.0,1.0,1.0
43.13,18.0,1.0,1.0,1.0
43.14,21.4944,1.0,1.0,1.0
43.15,16.5056,1.0,1.0,1.0
43.16,5.0,1.0,1.0,1.0
43.17,12.0,1.0,1.0,1.0
43.18,8.0,1.0,1.0,1.0
43.19,9.4944,1.0,1.0,1.0
43.2,13.0,1.0,1.0,1.0
43.21,13.5056,1.0,1.0,1.0
43.22,5.0,1.0,1.0,1.0
43.23,25.0,1.0,1.0,1.0
43.24,12.0,1.0,1.0,1.0
43.25,7.0,1.0,1.0,1.0
43.26,23.0,1.0,1.0,1.0
43.27,11.4944,1.0,1.0,1.0
43.28,12.5056,1.0,1.0,1.0
43.29,16.0,1.0,1.0,1.0
43.3,14.0,1.0,1.0,1.0
43.31,13.0,1.0,1.0,1.0
43.32,19.0,1.0,1.0,1.0
43.33,11.4944,1.0,1.0,1.0
43.34,17.5056,1.0,1.0,1.0
43.35,13.0,1.0,1.0,1.0
43.36,6.0,1.0,1.0,1.0
43.37,19.4944,1.0,1.0,1.0
43.38,19.5056,1.0,1.0,1.0
43.39,13.0,1.0,1.0,1.0
43.4,8.0,1.0,1.0,1.0
43.41,10.0,1.0,1.0,1.0
43.42,11.0,1.0,1.0,1.0
43.43,2.0,1.0,1.0,1.0
43.44,11.4833,1.0,1.0,1.0
43.45,6.5167,1.0,1.0,1.0
43.46,14.0,1.0,1.0,1.0
43.47,8.0,1.0,1.0,1.0
43.48,12.0,1.0,1.0,1.0
43.49,11.0,1.0,1.0,1.0
43.5,20.9889,1.0,1.0,1.0
43.51,13.0111,1.0,1.0,1.0
43.52,5.4944,1.0,1.0,1.0
43.53,14.5056,1.0,1.0,1.0
43.54,12.9889,1.0,1.0,1.0
43.55,24.0111,1.0,1.0,1.0
43.56,13.0,1.0,1.0,1.0
43.57,17.0,1.0,1.0,1.0
43.58,12.0,1.0,1.0,1.0
43.59,13.0,1.0,1.0,1.0
43.6,23.4944,1.0,1.0,1.0
43.61,13.5056,1.0,1.0,1.0
43.62,14.0,1.0,1.0,1.0
43.63,10.0,1.0,1.0,1.0
43.64,14.0,1.0,1.0,1.0
43.65,32.0,1.0,1.0,1.0
43.66,22.4944,1.0,1.0,1.0
43.67,11.5056,1.0,1.0,1.0
43.68,18.4944,1.0,1.0,1.0
43.69,26.0,1.0,1.0,1.0
43.7,16.0,1.0,1.0,1.0
43.71,28.5056,1.0,1.0,1.0
43.72,25.0,1.0,1.0,1.0
43.73,33.0,1.0,1.0,1.0
43.74,15.4944,1.0,1.0,1.0
43.75,32.5056,1.0,1.0,1.0
43.76,34.4944,1.0,1.0,1.0
43.77,32.5056,1.0,1.0,1.0
43.78,32.9889,1.0,1.0,1.0
43.79,25.5056,1.0,1.0,1.0
43.8,28.5056,1.0,1.0,1.0
43.81,38.0,1.0,1.0,1.0
43.82,33.0,1.0,1.0,1.0
43.83,44.4944,1.0,1.0,1.0
43.84,34.5056,1.0,1.0,1.0
43.85,28.0,1.0,1.0,1.0
43.86,47.0,1.0,1.0,1.0
43.87,31.0,1.0,1.0,1.0
43.88,44.0,1.0,1.0,1.0
43.89,33.0,1.0,1.0,1.0
43.9,26.0,1.0,1.0,1.0
43.91,44.0,1.0,1.0,1.0
43.92,30.0,1.0,1.0,1.0
43.93,22.0,1.0,1.0,1.0
43.94,18.0,1.0,1.0,1.0
43.95,40.4944,1.0,1.0,1.0
43.96,38.5056,1.0,1.0,1.0
43.97,30.9778,1.0,1.0,1.0
43.98,46.5167,1.0,1.0,1.0
43.99,44.5056,1.0,1.0,1.0
44.0,48.9889,1.0,1.0,1.0
44.01,58.0111,1.0,1.0,1.0
44.02,44.4944,1.0,1.0,1.0
44.03,47.0,1.0,1.0,1.0
44.04,42.0,1.0,1.0,1.0
44.05,43.5056,1.0,1.0,1.0
44.06,46.4944,1.0,1.0,1.0
44.07,68.4944,1.0,1.0,1.0
44.08,55.0111,1.0,1.0,1.0
44.09,47.0,1.0,1.0,1.0
44.1,38.4833,1.0,1.0,1.0
44.11,49.5056,1.0,1.0,1.0
44.12,64.0,1.0,1.0,1.0
44.13,55.5056,1.0,1.0,1.0
44.14,57.5056,1.0,1.0,1.0
44.15,52.4944,1.0,1.0,1.0
44.16,35.5056,1.0,1.0,1.0
44.17,79.4944,1.0,1.0,1.0
44.18,61.5056,1.0,1.0,1.0
44.19,55.4833,1.0,1.0,1.0
44.2,58.0111,1.0,1.0,1.0
44.21,49.4944,1.0,1.0,1.0
44.22,42.0111,1.0,1.0,1.0
44.23,52.9778,1.0,1.0,1.0
44.24,69.0222,1.0,1.0,1.0
44.25,84.9889,1.0,1.0,1.0
44.26,64.0,1.0,1.0,1.0
44.27,63.0111,1.0,1.0,1.0
44.28,77.4944,1.0,1.0,1.0
44.29,74.0,1.0,1.0,1.0
44.3,64.4944,1.0,1.0,1.0
44.31,104.5056,1.0,1.0,1.0
44.32,55.5056,1.0,1.0,1.0
44.33,57.4944,1.0,1.0,1.0
44.34,70.4944,1.0,1.0,1.0
44.35,86.4944,1.0,1.0,1.0
44.36,57.5167,1.0,1.0,1.0
44.37,78.4944,1.0,1.0,1.0
44.38,81.4833,1.0,1.0,1.0
44.39,69.5056,1.0,1.0,1.0
44.4,85.5056,1.0,1.0,1.0
44.41,104.9889,1.0,1.0,1.0
44.42,103.5056,1.0,1.0,1.0
44.43,76.5167,1.0,1.0,1.0
44.44,82.9889,1.0,1.0,1.0
44.45,101.0,1.0,1.0,1.0
44.46,70.4944,1.0,1.0,1.0
44.47,72.0111,1.0,1.0,1.0
44.48,92.4833,1.0,1.0,1.0
44.49,105.5167,1.0,1.0,1.0
44.5,99.5056,1.0,1.0,1.0
44.51,80.4833,1.0,1.0,1.0
44.52,88.0,1.0,1.0,1.0
44.53,90.5056,1.0,1.0,1.0
44.54,89.5056,1.0,1.0,1.0
44.55,82.9889,1.0,1.0,1.0
44.56,80.5056,1.0,1.0,1.0
44.57,59.0,1.0,1.0,1.0
44.58,112.5056,1.0,1.0,1.0
44.59,114.9889,1.0,1.0,1.0
44.6,68.5167,1.0,1.0,1.0
44.61,79.9889,1.0,1.0,1.0
44.62,59.0,1.0,1.0,1.0
44.63,78.0111,1.0,1.0,1.0
44.64,84.0,1.0,1.0,1.0
44.65,67.9889,1.0,1.0,1.0
44.66,78.5056,1.0,1.0,1.0
44.67,65.0,1.0,1.0,1.0
44.68,85.5056,1.0,1.0,1.0
44.69,47.0,1.0,1.0,1.0
44.7,65.9889,1.0,1.0,1.0
44.71,80.0111,1.0,1.0,1.0
44.72,81.0,1.0,1.0,1.0
44.73,84.4833,1.0,1.0,1.0
44.74,84.4944,1.0,1.0,1.0
44.75,81.5167,1.0,1.0,1.0
44.76,83.4944,1.0,1.0,1.0
44.77,108.0111,1.0,1.0,1.0
44.78,87.0,1.0,1.0,1.0
44.79,99.9889,1.0,1.0,1.0
44.8,116.0,1.0,1.0,1.0
44.81,119.9889,1.0,1.0,1.0
44.82,107.0111,1.0,1.0,1.0
44.83,123.0,1.0,1.0,1.0
44.84,111.0,1.0,1.0,1.0
44.85,113.5056,1.0,1.0,1.0
44.86,126.4944,1.0,1.0,1.0
44.87,122.0,1.0,1.0,1.0
44.88,171.4722,1.0,1.0,1.0
44.89,169.4944,1.0,1.0,1.0
44.9,173.0333,1.0,1.0,1.0
44.91,162.0111,1.0,1.0,1.0
44.92,175.4722,1.0,1.0,1.0
44.93,216.5056,1.0,1.0,1.0
44.94,162.0,1.0,1.0,1.0
44.95,213.4944,1.0,1.0,1.0
44.96,228.4833,1.0,1.0,1.0
44.97,222.0,1.0,1.0,1.0
44.98,220.5278,1.0,1.0,1.0
44.99,251.0,1.0,1.0,1.0
45.0,254.9778,1.0,1.0,1.0
45.01,250.5167,1.0,1.0,1.0
45.02,305.0111,1.0,1.0,1.0
45.03,292.4833,1.0,1.0,1.0
45.04,319.0,1.0,1.0,1.0
45.05,329.4722,1.0,1.0,1.0
45.06,357.5056,1.0,1.0,1.0
45.07,344.4944,1.0,1.0,1.0
45.08,331.5056,1.0,1.0,1.0
45.09,368.5167,1.0,1.0,1.0
45.1,356.0111,1.0,1.0,1.0
45.11,376.9667,1.0,1.0,1.0
45.12,378.0222,1.0,1.0,1.0
45.13,400.9889,1.0,1.0,1.0
45.14,413.4944,1.0,1.0,1.0
45.15,381.5167,1.0,1.0,1.0
45.16,418.0222,1.0,1.0,1.0
45.17,423.9556,1.0,1.0,1.0
45.18,469.0333,1.0,1.0,1.0
45.19,437.4611,1.0,1.0,1.0
45.2,423.5167,1.0,1.0,1.0
45.21,497.4722,1.0,1.0,1.0
45.22,480.0222,1.0,1.0,1.0
45.23,437.9778,1.0,1.0,1.0
45.24,444.5167,1.0,1.0,1.0
45.25,479.5056,1.0,1.0,1.0
45.26,450.4833,1.0,1.0,1.0
45.27,444.0222,1.0,1.0,1.0
45.28,439.5056,1.0,1.0,1.0
45.29,365.9889,1.0,1.0,1.0
45.3,402.5167,1.0,1.0,1.0
45.31,381.4611,1.0,1.0,1.0
45.32,370.0,1.0,1.0,1.0
45.33,329.0444,1.0,1.0,1.0
45.34,319.4833,1.0,1.0,1.0
45.35,261.0222,1.0,1.0,1.0
45.36,273.9889,1.0,1.0,1.0
45.37,293.4833,1.0,1.0,1.0
45.38,257.5056,1.0,1.0,1.0
45.39,217.5056,1.0,1.0,1.0
45.4,237.5056,1.0,1.0,1.0
45.41,209.0222,1.0,1.0,1.0
45.42,228.9889,1.0,1.0,1.0
45.43,200.9889,1.0,1.0,1.0
45.44,230.5167,1.0,1.0,1.0
45.45,215.4833,1.0,1.0,1.0
45.46,211.0222,1.0,1.0,1.0
45.47,212.4833,1.0,1.0,1.0
45.48,242.4833,1.0,1.0,1.0
45.49,247.4944,1.0,1.0,1.0
45.5,200.5167,1.0,1.0,1.0
45.51,240.0222,1.0,1.0,1.0
45.52,290.4944,1.0,1.0,1.0
45.53,250.4722,1.0,1.0,1.0
45.54,265.5167,1.0,1.0,1.0
45.55,298.5056,1.0,1.0,1.0
45.56,276.5056,1.0,1.0,1.0
45.57,294.9889,1.0,1.0,1.0
45.58,304.0111,1.0,1.0,1.0
45.59,287.9667,1.0,1.0,1.0
45.6,290.0222,1.0,1.0,1.0
45.61,259.4722,1.0,1.0,1.0
45.62,334.0222,1.0,1.0,1.0
45.63,345.4722,1.0,1.0,1.0
45.64,330.5278,1.0,1.0,1.0
45.65,364.4611,1.0,1.0,1.0
45.66,366.0333,1.0,1.0,1.0
45.67,386.0333,1.0,1.0,1.0
45.68,437.9667,1.0,1.0,1.0
45.69,492.4833,1.0,1.0,1.0
45.7,506.4833,1.0,1.0,1.0
45.71,556.0222,1.0,1.0,1.0
45.72,573.4722,1.0,1.0,1.0
45.73,596.4944,1.0,1.0,1.0
45.74,679.4611,1.0,1.0,1.0
45.75,741.5722,1.0,1.0,1.0
45.76,794.4833,1.0,1.0,1.0
45.77,799.9667,1.0,1.0,1.0
45.78,848.9889,1.0,1.0,1.0
45.79,917.4833,1.0,1.0,1.0
45.8,978.5389,1.0,1.0,1.0
45.81,1005.99,1.0,1.0,1.0
45.82,1047.0,1.0,1.0,1.0
45.83,1127.98,1.0,1.0,1.0
45.84,1178.49,1.0,1.0,1.0
45.85,1234.46,1.0,1.0,1.0
45.86,1316.49,1.0,1.0,1.0
45.87,1381.49,1.0,1.0,1.0
45.88,1410.04,1.0,1.0,1.0
45.89,1393.48,1.0,1.0,1.0
45.9,1538.97,1.0,1.0,1.0
45.91,1639.03,1.0,1.0,1.0
45.92,1698.51,1.0,1.0,1.0
45.93,1804.49,1.0,1.0,1.0
45.94,1806.86,1.0,1.0,1.0
45.95,1826.13,1.0,1.0,1.0
45.96,1906.46,1.0,1.0,1.0
45.97,2004.49,1.0,1.0,1.0
45.98,1998.59,1.0,1.0,1.0
45.99,1998.43,1.0,1.0,1.0
46.0,2052.0,1.0,1.0,1.0
46.01,2012.92,1.0,1.0,1.0
46.02,2062.06,1.0,1.0,1.0
46.03,1806.02,1.0,1.0,1.0
46.04,1849.97,1.0,1.0,1.0
46.05,1777.99,1.0,1.0,1.0
46.06,1609.06,1.0,1.0,1.0
46.07,1555.51,1.0,1.0,1.0
46.08,1621.48,1.0,1.0,1.0
46.09,1451.56,1.0,1.0,1.0
46.1,1400.9,1.0,1.0,1.0
46.11,1264.1,1.0,1.0,1.0
46.12,1234.99,1.0,1.0,1.0
46.13,1111.96,1.0,1.0,1.0
46.14,1115.54,1.0,1.0,1.0
46.15,1048.54,1.0,1.0,1.0
46.16,1002.51,1.0,1.0,1.0
46.17,1005.52,1.0,1.0,1.0
46.18,966.4833,1.0,1.0,1.0
46.19,995.0333,1.0,1.0,1.0
46.2,879.4722,1.0,1.0,1.0
46.21,940.4944,1.0,1.0,1.0
46.22,866.0,1.0,1.0,1.0
46.23,937.9778,1.0,1.0,1.0
46.24,1001.99,1.0,1.0,1.0
46.25,975.9889,1.0,1.0,1.0
46.26,922.0,1.0,1.0,1.0
46.27,958.5167,1.0,1.0,1.0
46.28,902.0111,1.0,1.0,1.0
46.29,970.4944,1.0,1.0,1.0
46.3,858.0667,1.0,1.0,1.0
46.31,965.9445,1.0,1.0,1.0
46.32,858.0444,1.0,1.0,1.0
46.33,881.4722,1.0,1.0,1.0
46.34,864.5389,1.0,1.0,1.0
46.35,793.4611,1.0,1.0,1.0
46.36,796.5278,1.0,1.0,1.0
46.37,812.4722,1.0,1.0,1.0
46.38,794.5167,1.0,1.0,1.0
46.39,789.9889,1.0,1.0,1.0
46.4,775.9778,1.0,1.0,1.0
46.41,810.5389,1.0,1.0,1.0
46.42,817.9556,1.0,1.0,1.0
46.43,877.0333,1.0,1.0,1.0
46.44,913.4611,1.0,1.0,1.0
46.45,966.9556,1.0,1.0,1.0
46.46,1033.56,1.0,1.0,1.0
46.47,1094.99,1.0,1.0,1.0
46.48,1235.98,1.0,1.0,1.0
46.49,1235.46,1.0,1.0,1.0
46.5,1379.51,1.0,1.0,1.0
46.51,1454.46,1.0,1.0,1.0
46.52,1572.46,1.0,1.0,1.0
46.53,1648.06,1.0,1.0,1.0
46.54,1771.98,1.0,1.0,1.0
46.55,1992.03,1.0,1.0,1.0
46.56,2113.45,1.0,1.0,1.0
46.57,2279.97,1.0,1.0,1.0
46.58,2375.94,1.0,1.0,1.0
46.59,2722.91,1.0,1.0,1.0
46.6,2950.561,1.0,1.0,1.0
46.61,3137.97,1.0,1.0,1.0
46.62,3297.59,1.0,1.0,1.0
46.63,3543.811,1.0,1.0,1.0
46.64,3875.14,1.0,1.0,1.0
46.65,4220.83,1.0,1.0,1.0
46.66,4369.88,1.0,1.0,1.0
46.67,4752.02,1.0,1.0,1.0
46.68,5053.55,1.0,1.0,1.0
46.69,5344.0,1.0,1.0,1.0
46.7,5434.92,1.0,1.0,1.0
46.71,5781.96,1.0,1.0,1.0
46.72,6070.46,1.0,1.0,1.0
46.73,6277.99,1.0,1.0,1.0
46.74,6310.43,1.0,1.0,1.0
46.75,6373.08,1.0,1.0,1.0
46.76,6701.07,1.0,1.0,1.0
46.77,6509.48,1.0,1.0,1.0
46.78,6520.55,1.0,1.0,1.0
46.79,6469.33,1.0,1.0,1.0
46.8,6341.561,1.0,1.0,1.0
46.81,6287.02,1.0,1.0,1.0
46.82,6109.11,1.0,1.0,1.0
46.83,5927.42,1.0,1.0,1.0
46.84,5718.08,1.0,1.0,1.0
46.85,5548.93,1.0,1.0,1.0
46.86,5398.57,1.0,1.0,1.0
46.87,5271.96,1.0,1.0,1.0
46.88,5038.55,1.0,1.0,1.0
46.89,4867.06,1.0,1.0,1.0
46.9,4800.43,1.0,1.0,1.0
46.91,4591.1,1.0,1.0,1.0
46.92,4581.0,1.0,1.0,1.0
46.93,4602.97,1.0,1.0,1.0
46.94,4604.51,1.0,1.0,1.0
46.95,4590.52,1.0,1.0,1.0
46.96,4496.01,1.0,1.0,1.0
46.97,4478.52,1.0,1.0,1.0
46.98,4590.439,1.0,1.0,1.0
46.99,4566.04,1.0,1.0,1.0
47.0,4613.88,1.0,1.0,1.0
47.01,4733.02,1.0,1.0,1.0
47.02,4816.02,1.0,1.0,1.0
47.03,4709.07,1.0,1.0,1.0
47.04,4740.0,1.0,1.0,1.0
47.05,4663.49,1.0,1.0,1.0
47.06,4760.49,1.0,1.0,1.0
47.07,4541.03,1.0,1.0,1.0
47.08,4567.91,1.0,1.0,1.0
47.09,4354.16,1.0,1.0,1.0
47.1,4250.06,1.0,1.0,1.0
47.11,4093.89,1.0,1.0,1.0
47.12,3999.03,1.0,1.0,1.0
47.13,3885.57,1.0,1.0,1.0
47.14,3781.439,1.0,1.0,1.0
47.15,3468.1,1.0,1.0,1.0
47.16,3472.48,1.0,1.0,1.0
47.17,3176.49,1.0,1.0,1.0
47.18,3088.54,1.0,1.0,1.0
47.19,2944.04,1.0,1.0,1.0
47.2,2846.9,1.0,1.0,1.0
47.21,2744.07,1.0,1.0,1.0
47.22,2653.09,1.0,1.0,1.0
47.23,2413.93,1.0,1.0,1.0
47.24,2408.99,1.0,1.0,1.0
47.25,2444.51,1.0,1.0,1.0
47.26,2285.57,1.0,1.0,1.0
47.27,2251.91,1.0,1.0,1.0
47.28,2254.11,1.0,1.0,1.0
47.29,2135.439,1.0,1.0,1.0
47.3,2241.46,1.0,1.0,1.0
47.31,2149.55,1.0,1.0,1.0
47.32,2166.02,1.0,1.0,1.0
47.33,2114.98,1.0,1.0,1.0
47.34,2153.46,1.0,1.0,1.0
47.35,2281.52,1.0,1.0,1.0
47.36,2257.07,1.0,1.0,1.0
47.37,2256.45,1.0,1.0,1.0
47.38,2365.43,1.0,1.0,1.0
47.39,2461.63,1.0,1.0,1.0
47.4,2492.42,1.0,1.0,1.0
47.41,2743.96,1.0,1.0,1.0
47.42,2804.46,1.0,1.0,1.0
47.43,3089.01,1.0,1.0,1.0
47.44,3044.06,1.0,1.0,1.0
47.45,3403.38,1.0,1.0,1.0
47.46,3485.09,1.0,1.0,1.0
47.47,3552.97,1.0,1.0,1.0
47.48,3784.46,1.0,1.0,1.0
47.49,3807.93,1.0,1.0,1.0
47.5,3816.06,1.0,1.0,1.0
47.51,3865.39,1.0,1.0,1.0
47.52,3859.61,1.0,1.0,1.0
47.53,3886.02,1.0,1.0,1.0
47.54,3853.97,1.0,1.0,1.0
47.55,3900.54,1.0,1.0,1.0
47.56,3551.0,1.0,1.0,1.0
47.57,3344.53,1.0,1.0,1.0
47.58,3079.0,1.0,1.0,1.0
47.59,3040.561,1.0,1.0,1.0
47.6,2893.0,1.0,1.0,1.0
47.61,2627.54,1.0,1.0,1.0
47.62,2482.97,1.0,1.0,1.0
47.63,2283.54,1.0,1.0,1.0
47.64,2139.51,1.0,1.0,1.0
47.65,2042.96,1.0,1.0,1.0
47.66,1912.62,1.0,1.0,1.0
47.67,1921.47,1.0,1.0,1.0
47.68,1865.01,1.0,1.0,1.0
47.69,1922.46,1.0,1.0,1.0
47.7,1957.48,1.0,1.0,1.0
47.71,1988.51,1.0,1.0,1.0
47.72,2224.02,1.0,1.0,1.0
47.73,2433.46,1.0,1.0,1.0
47.74,2580.48,1.0,1.0,1.0
47.75,2811.45,1.0,1.0,1.0
47.76,3228.94,1.0,1.0,1.0
47.77,3546.37,1.0,1.0,1.0
47.78,4099.03,1.0,1.0,1.0
47.79,4480.92,1.0,1.0,1.0
47.8,5192.0,1.0,1.0,1.0
47.81,5975.84,1.0,1.0,1.0
47.82,6928.43,1.0,1.0,1.0
47.83,8571.36,1.0,1.0,1.0
47.84,10214.1,1.0,1.0,1.0
47.85,12901.7,1.0,1.0,1.0
47.86,16147.6,1.0,1.0,1.0
47.87,20583.5,1.0,1.0,1.0
47.88,26174.2,1.0,1.0,1.0
47.89,33373.707,1.0,1.0,1.0
47.9,43047,1.0,1.0,1.0
47.91,57112,1.0,1.0,1.0
47.92,75471,1.0,1.0,1.0
47.93,102980,1.0,1.0,1.0
47.94,145814,1.0,1.0,1.0
47.95,223709,1.0,1.0,1.0
47.96,372569,1.0,1.0,1.0
47.97,847901.875,1.0,1.0,1.0
47.98,4613893.5,1.0,1.0,1.0
47.99,11554312.0,1.0,1.0,1.0
48.0,14926206.0,1.0,1.0,1.0
48.01,8529491.0,1.0,1.0,1.0
48.02,6884256.0,1.0,1.0,1.0
48.03,5315156.5,1.0,1.0,1.0
48.04,3549172.75,1.0,1.0,1.0
48.05,2233413.5,1.0,1.0,1.0
48.06,1071516.5,1.0,1.0,1.0
48.07,240084,1.0,1.0,1.0
48.08,87653.4,1.0,1.0,1.0
48.09,48948.6,1.0,1.0,1.0
48.1,31665.916,1.0,1.0,1.0
48.11,22395.6,1.0,1.0,1.0
48.12,16902.6,1.0,1.0,1.0
48.13,13691.4,1.0,1.0,1.0
48.14,11339.7,1.0,1.0,1.0
48.15,9988.0,1.0,1.0,1.0
48.16,8882.23,1.0,1.0,1.0
48.17,8224.06,1.0,1.0,1.0
48.18,7428.52,1.0,1.0,1.0
48.19,7024.53,1.0,1.0,1.0
48.2,6578.61,1.0,1.0,1.0
48.21,6131.91,1.0,1.0,1.0
48.22,5662.13,1.0,1.0,1.0
48.23,5460.65,1.0,1.0,1.0
48.24,5166.92,1.0,1.0,1.0
48.25,4429.57,1.0,1.0,1.0
48.26,4137.52,1.0,1.0,1.0
48.27,3733.06,1.0,1.0,1.0
48.28,3367.53,1.0,1.0,1.0
48.29,3048.61,1.0,1.0,1.0
48.3,2681.03,1.0,1.0,1.0
48.31,2357.03,1.0,1.0,1.0
48.32,2134.0,1.0,1.0,1.0
48.33,1883.04,1.0,1.0,1.0
48.34,1646.97,1.0,1.0,1.0
48.35,1563.07,1.0,1.0,1.0
48.36,1381.51,1.0,1.0,1.0
48.37,1284.47,1.0,1.0,1.0
48.38,1141.07,1.0,1.0,1.0
48.39,1043.97,1.0,1.0,1.0
48.4,911.5278,1.0,1.0,1.0
48.41,991.0,1.0,1.0,1.0
48.42,920.9889,1.0,1.0,1.0
48.43,910.5389,1.0,1.0,1.0
48.44,865.4944,1.0,1.0,1.0
48.45,777.4611,1.0,1.0,1.0
48.46,712.4944,1.0,1.0,1.0
48.47,739.5389,1.0,1.0,1.0
48.48,695.0,1.0,1.0,1.0
48.49,663.5167,1.0,1.0,1.0
48.5,543.0111,1.0,1.0,1.0
48.51,560.9889,1.0,1.0,1.0
48.52,502.9667,1.0,1.0,1.0
48.53,451.5278,1.0,1.0,1.0
48.54,407.5278,1.0,1.0,1.0
48.55,387.9778,1.0,1.0,1.0
48.56,318.5056,1.0,1.0,1.0
48.57,381.0,1.0,1.0,1.0
48.58,357.9778,1.0,1.0,1.0
48.59,349.5278,1.0,1.0,1.0
48.6,284.5167,1.0,1.0,1.0
48.61,321.0111,1.0,1.0,1.0
48.62,298.9778,1.0,1.0,1.0
48.63,290.0111,1.0,1.0,1.0
48.64,286.4722,1.0,1.0,1.0
48.65,292.0111,1.0,1.0,1.0
48.66,273.5167,1.0,1.0,1.0
48.67,280.5056,1.0,1.0,1.0
48.68,258.9778,1.0,1.0,1.0
48.69,263.0222,1.0,1.0,1.0
48.7,239.9889,1.0,1.0,1.0
48.71,255.0111,1.0,1.0,1.0
48.72,223.0,1.0,1.0,1.0
48.73,215.9778,1.0,1.0,1.0
48.74,220.0222,1.0,1.0,1.0
48.75,240.0111,1.0,1.0,1.0
48.76,223.9889,1.0,1.0,1.0
48.77,223.4944,1.0,1.0,1.0
48.78,225.4944,1.0,1.0,1.0
48.79,214.0111,1.0,1.0,1.0
48.8,198.4833,1.0,1.0,1.0
48.81,207.0222,1.0,1.0,1.0
48.82,210.4944,1.0,1.0,1.0
48.83,174.5056,1.0,1.0,1.0
48.84,185.4944,1.0,1.0,1.0
48.85,198.4944,1.0,1.0,1.0
48.86,149.5167,1.0,1.0,1.0
48.87,144.9889,1.0,1.0,1.0
48.88,161.4833,1.0,1.0,1.0
48.89,131.0222,1.0,1.0,1.0
48.9,119.0,1.0,1.0,1.0
48.91,105.5056,1.0,1.0,1.0
48.92,126.4833,1.0,1.0,1.0
48.93,103.0111,1.0,1.0,1.0
48.94,105.5167,1.0,1.0,1.0
48.95,112.9778,1.0,1.0,1.0
48.96,62.5167,1.0,1.0,1.0
48.97,84.9889,1.0,1.0,1.0
48.98,93.0,1.0,1.0,1.0
48.99,82.0111,1.0,1.0,1.0
49.0,85.0,1.0,1.0,1.0
49.01,77.4944,1.0,1.0,1.0
49.02,84.5056,1.0,1.0,1.0
49.03,112.9889,1.0,1.0,1.0
49.04,67.0111,1.0,1.0,1.0
49.05,53.5056,1.0,1.0,1.0
49.06,61.4944,1.0,1.0,1.0
49.07,63.0,1.0,1.0,1.0
49.08,46.9889,1.0,1.0,1.0
49.09,61.5167,1.0,1.0,1.0
49.1,41.9889,1.0,1.0,1.0
49.11,39.5056,1.0,1.0,1.0
49.12,37.0,1.0,1.0,1.0
49.13,51.4944,1.0,1.0,1.0
49.14,34.0111,1.0,1.0,1.0
49.15,57.9889,1.0,1.0,1.0
49.16,44.0111,1.0,1.0,1.0
49.17,30.4944,1.0,1.0,1.0
49.18,42.9889,1.0,1.0,1.0
49.19,31.0111,1.0,1.0,1.0
49.2,42.5056,1.0,1.0,1.0
49.21,24.4944,1.0,1.0,1.0
49.22,41.0,1.0,1.0,1.0
49.23,33.5056,1.0,1.0,1.0
49.24,44.9889,1.0,1.0,1.0
49.25,41.0,1.0,1.0,1.0
49.26,25.0111,1.0,1.0,1.0
49.27,27.4944,1.0,1.0,1.0
49.28,32.0,1.0,1.0,1.0
49.29,29.5056,1.0,1.0,1.0
49.3,25.0,1.0,1.0,1.0
49.31,25.4944,1.0,1.0,1.0
49.32,21.0,1.0,1.0,1.0
49.33,16.5056,1.0,1.0,1.0
49.34,19.4944,1.0,1.0,1.0
49.35,52.5056,1.0,1.0,1.0
49.36,34.0,1.0,1.0,1.0
49.37,23.0,1.0,1.0,1.0
49.38,38.0,1.0,1.0,1.0
49.39,36.4944,1.0,1.0,1.0
49.4,36.0,1.0,1.0,1.0
49.41,29.5056,1.0,1.0,1.0
49.42,34.0,1.0,1.0,1.0
49.43,39.0,1.0,1.0,1.0
49.44,22.9889,1.0,1.0,1.0
49.45,33.0111,1.0,1.0,1.0
49.46,41.9889,1.0,1.0,1.0
49.47,28.0111,1.0,1.0,1.0
49.48,25.0,1.0,1.0,1.0
49.49,31.4944,1.0,1.0,1.0
49.5,52.9889,1.0,1.0,1.0
49.51,28.5167,1.0,1.0,1.0
49.52,48.0,1.0,1.0,1.0
49.53,30.0,1.0,1.0,1.0
49.54,31.0,1.0,1.0,1.0
49.55,48.0,1.0,1.0,1.0
49.56,35.0,1.0,1.0,1.0
49.57,42.0,1.0,1.0,1.0
49.58,35.0,1.0,1.0,1.0
49.59,38.4944,1.0,1.0,1.0
49.6,52.5056,1.0,1.0,1.0
49.61,20.4833,1.0,1.0,1.0
49.62,32.5056,1.0,1.0,1.0
49.63,37.0111,1.0,1.0,1.0
49.64,27.9889,1.0,1.0,1.0
49.65,40.0111,1.0,1.0,1.0
49.66,33.0,1.0,1.0,1.0
49.67,24.4944,1.0,1.0,1.0
49.68,28.5056,1.0,1.0,1.0
49.69,21.0,1.0,1.0,1.0
49.7,29.0,1.0,1.0,1.0
49.71,18.9889,1.0,1.0,1.0
49.72,17.5056,1.0,1.0,1.0
49.73,24.5056,1.0,1.0,1.0
49.74,33.0,1.0,1.0,1.0
49.75,12.0,1.0,1.0,1.0
49.76,20.0,1.0,1.0,1.0
49.77,12.0,1.0,1.0,1.0
49.78,23.0,1.0,1.0,1.0
49.79,17.0,1.0,1.0,1.0
49.8,4.4944,1.0,1.0,1.0
49.81,29.5056,1.0,1.0,1.0
49.82,21.0,1.0,1.0,1.0
49.83,29.0,1.0,1.0,1.0
49.84,26.0,1.0,1.0,1.0
49.85,18.9889,1.0,1.0,1.0
49.86,17.0,1.0,1.0,1.0
49.87,20.0111,1.0,1.0,1.0
49.88,24.0,1.0,1.0,1.0
49.89,11.0,1.0,1.0,1.0
49.9,21.0,1.0,1.0,1.0
49.91,9.0,1.0,1.0,1.0
49.92,5.0,1.0,1.0,1.0
49.93,13.0,1.0,1.0,1.0
49.94,18.0,1.0,1.0,1.0
49.95,18.0,1.0,1.0,1.0
49.96,28.4944,1.0,1.0,1.0
49.97,12.0,1.0,1.0,1.0
49.98,12.0,1.0,1.0,1.0
49.99,10.5056,1.0,1.0,1.0
50.0,7.4944,1.0,1.0,1.0