File: XRD:XRR/SCO/22135_SCOT/22135_SCOT_XRD_002.csv
#twotheta, yobs, ycal, bkg, diff
42.0,7.4944,1.0,1.0,1.0
42.01,17.5056,1.0,1.0,1.0
42.02,8.0,1.0,1.0,1.0
42.03,10.4944,1.0,1.0,1.0
42.04,13.5056,1.0,1.0,1.0
42.05,15.4944,1.0,1.0,1.0
42.06,11.5056,1.0,1.0,1.0
42.07,10.4944,1.0,1.0,1.0
42.08,11.5056,1.0,1.0,1.0
42.09,13.0,1.0,1.0,1.0
42.1,8.0,1.0,1.0,1.0
42.11,5.0,1.0,1.0,1.0
42.12,19.0,1.0,1.0,1.0
42.13,13.0,1.0,1.0,1.0
42.14,14.0,1.0,1.0,1.0
42.15,17.4944,1.0,1.0,1.0
42.16,11.5056,1.0,1.0,1.0
42.17,13.9889,1.0,1.0,1.0
42.18,13.0111,1.0,1.0,1.0
42.19,15.0,1.0,1.0,1.0
42.2,16.0,1.0,1.0,1.0
42.21,10.0,1.0,1.0,1.0
42.22,11.0,1.0,1.0,1.0
42.23,13.4944,1.0,1.0,1.0
42.24,15.0,1.0,1.0,1.0
42.25,6.5056,1.0,1.0,1.0
42.26,20.4944,1.0,1.0,1.0
42.27,9.4944,1.0,1.0,1.0
42.28,17.0111,1.0,1.0,1.0
42.29,2.0,1.0,1.0,1.0
42.3,12.0,1.0,1.0,1.0
42.31,7.0,1.0,1.0,1.0
42.32,9.0,1.0,1.0,1.0
42.33,5.0,1.0,1.0,1.0
42.34,6.0,1.0,1.0,1.0
42.35,10.4944,1.0,1.0,1.0
42.36,17.0,1.0,1.0,1.0
42.37,9.5056,1.0,1.0,1.0
42.38,9.0,1.0,1.0,1.0
42.39,10.0,1.0,1.0,1.0
42.4,9.4944,1.0,1.0,1.0
42.41,10.5056,1.0,1.0,1.0
42.42,7.9889,1.0,1.0,1.0
42.43,6.0111,1.0,1.0,1.0
42.44,13.4944,1.0,1.0,1.0
42.45,2.5056,1.0,1.0,1.0
42.46,3.0,1.0,1.0,1.0
42.47,12.0,1.0,1.0,1.0
42.48,9.0,1.0,1.0,1.0
42.49,10.0,1.0,1.0,1.0
42.5,4.4944,1.0,1.0,1.0
42.51,11.5056,1.0,1.0,1.0
42.52,5.0,1.0,1.0,1.0
42.53,6.0,1.0,1.0,1.0
42.54,17.0,1.0,1.0,1.0
42.55,6.0,1.0,1.0,1.0
42.56,8.0,1.0,1.0,1.0
42.57,5.0,1.0,1.0,1.0
42.58,8.4944,1.0,1.0,1.0
42.59,12.5056,1.0,1.0,1.0
42.6,5.0,1.0,1.0,1.0
42.61,5.0,1.0,1.0,1.0
42.62,5.0,1.0,1.0,1.0
42.63,13.0,1.0,1.0,1.0
42.64,4.0,1.0,1.0,1.0
42.65,4.4944,1.0,1.0,1.0
42.66,5.5056,1.0,1.0,1.0
42.67,0.0,1.0,1.0,1.0
42.68,10.9889,1.0,1.0,1.0
42.69,4.0111,1.0,1.0,1.0
42.7,3.0,1.0,1.0,1.0
42.71,7.0,1.0,1.0,1.0
42.72,12.0,1.0,1.0,1.0
42.73,5.0,1.0,1.0,1.0
42.74,0.0,1.0,1.0,1.0
42.75,7.0,1.0,1.0,1.0
42.76,9.0,1.0,1.0,1.0
42.77,2.0,1.0,1.0,1.0
42.78,2.0,1.0,1.0,1.0
42.79,12.0,1.0,1.0,1.0
42.8,2.0,1.0,1.0,1.0
42.81,9.0,1.0,1.0,1.0
42.82,5.0,1.0,1.0,1.0
42.83,2.0,1.0,1.0,1.0
42.84,7.0,1.0,1.0,1.0
42.85,9.0,1.0,1.0,1.0
42.86,0.0,1.0,1.0,1.0
42.87,6.0,1.0,1.0,1.0
42.88,9.9889,1.0,1.0,1.0
42.89,5.0111,1.0,1.0,1.0
42.9,11.0,1.0,1.0,1.0
42.91,20.0,1.0,1.0,1.0
42.92,13.4944,1.0,1.0,1.0
42.93,13.5056,1.0,1.0,1.0
42.94,6.0,1.0,1.0,1.0
42.95,5.4944,1.0,1.0,1.0
42.96,19.5056,1.0,1.0,1.0
42.97,16.0,1.0,1.0,1.0
42.98,10.0,1.0,1.0,1.0
42.99,4.0,1.0,1.0,1.0
43.0,4.0,1.0,1.0,1.0
43.01,14.0,1.0,1.0,1.0
43.02,8.4944,1.0,1.0,1.0
43.03,7.5056,1.0,1.0,1.0
43.04,14.0,1.0,1.0,1.0
43.05,16.0,1.0,1.0,1.0
43.06,6.0,1.0,1.0,1.0
43.07,14.4944,1.0,1.0,1.0
43.08,5.0,1.0,1.0,1.0
43.09,18.5056,1.0,1.0,1.0
43.1,7.0,1.0,1.0,1.0
43.11,15.0,1.0,1.0,1.0
43.12,16.0,1.0,1.0,1.0
43.13,14.0,1.0,1.0,1.0
43.14,5.0,1.0,1.0,1.0
43.15,14.0,1.0,1.0,1.0
43.16,7.0,1.0,1.0,1.0
43.17,11.4944,1.0,1.0,1.0
43.18,6.5056,1.0,1.0,1.0
43.19,15.4944,1.0,1.0,1.0
43.2,17.5056,1.0,1.0,1.0
43.21,4.0,1.0,1.0,1.0
43.22,11.0,1.0,1.0,1.0
43.23,18.0,1.0,1.0,1.0
43.24,16.0,1.0,1.0,1.0
43.25,18.0,1.0,1.0,1.0
43.26,8.0,1.0,1.0,1.0
43.27,25.0,1.0,1.0,1.0
43.28,18.0,1.0,1.0,1.0
43.29,38.4944,1.0,1.0,1.0
43.3,13.5056,1.0,1.0,1.0
43.31,21.9889,1.0,1.0,1.0
43.32,17.0111,1.0,1.0,1.0
43.33,11.0,1.0,1.0,1.0
43.34,18.4944,1.0,1.0,1.0
43.35,28.0,1.0,1.0,1.0
43.36,15.5056,1.0,1.0,1.0
43.37,20.0,1.0,1.0,1.0
43.38,31.0,1.0,1.0,1.0
43.39,21.4944,1.0,1.0,1.0
43.4,20.4944,1.0,1.0,1.0
43.41,28.5056,1.0,1.0,1.0
43.42,17.0,1.0,1.0,1.0
43.43,10.5056,1.0,1.0,1.0
43.44,12.4944,1.0,1.0,1.0
43.45,20.5056,1.0,1.0,1.0
43.46,15.0,1.0,1.0,1.0
43.47,25.4944,1.0,1.0,1.0
43.48,16.4944,1.0,1.0,1.0
43.49,18.5056,1.0,1.0,1.0
43.5,30.5056,1.0,1.0,1.0
43.51,21.0,1.0,1.0,1.0
43.52,20.0,1.0,1.0,1.0
43.53,19.0,1.0,1.0,1.0
43.54,25.4944,1.0,1.0,1.0
43.55,38.5056,1.0,1.0,1.0
43.56,13.9889,1.0,1.0,1.0
43.57,9.0111,1.0,1.0,1.0
43.58,14.4944,1.0,1.0,1.0
43.59,23.5056,1.0,1.0,1.0
43.6,22.0,1.0,1.0,1.0
43.61,15.4944,1.0,1.0,1.0
43.62,18.5056,1.0,1.0,1.0
43.63,12.9889,1.0,1.0,1.0
43.64,21.0111,1.0,1.0,1.0
43.65,26.9889,1.0,1.0,1.0
43.66,19.0111,1.0,1.0,1.0
43.67,22.4944,1.0,1.0,1.0
43.68,17.0,1.0,1.0,1.0
43.69,24.5056,1.0,1.0,1.0
43.7,21.9889,1.0,1.0,1.0
43.71,29.5056,1.0,1.0,1.0
43.72,12.5056,1.0,1.0,1.0
43.73,13.0,1.0,1.0,1.0
43.74,28.0,1.0,1.0,1.0
43.75,26.9889,1.0,1.0,1.0
43.76,15.0111,1.0,1.0,1.0
43.77,7.0,1.0,1.0,1.0
43.78,11.4944,1.0,1.0,1.0
43.79,15.5056,1.0,1.0,1.0
43.8,9.0,1.0,1.0,1.0
43.81,14.0,1.0,1.0,1.0
43.82,17.0,1.0,1.0,1.0
43.83,16.4944,1.0,1.0,1.0
43.84,17.5056,1.0,1.0,1.0
43.85,9.0,1.0,1.0,1.0
43.86,9.0,1.0,1.0,1.0
43.87,11.0,1.0,1.0,1.0
43.88,16.4944,1.0,1.0,1.0
43.89,13.5056,1.0,1.0,1.0
43.9,6.0,1.0,1.0,1.0
43.91,6.0,1.0,1.0,1.0
43.92,12.0,1.0,1.0,1.0
43.93,3.4944,1.0,1.0,1.0
43.94,10.5056,1.0,1.0,1.0
43.95,14.0,1.0,1.0,1.0
43.96,13.0,1.0,1.0,1.0
43.97,4.0,1.0,1.0,1.0
43.98,12.0,1.0,1.0,1.0
43.99,10.0,1.0,1.0,1.0
44.0,6.0,1.0,1.0,1.0
44.01,17.0,1.0,1.0,1.0
44.02,11.0,1.0,1.0,1.0
44.03,27.0,1.0,1.0,1.0
44.04,9.0,1.0,1.0,1.0
44.05,8.0,1.0,1.0,1.0
44.06,9.4944,1.0,1.0,1.0
44.07,9.5056,1.0,1.0,1.0
44.08,3.0,1.0,1.0,1.0
44.09,2.0,1.0,1.0,1.0
44.1,21.0,1.0,1.0,1.0
44.11,11.0,1.0,1.0,1.0
44.12,11.0,1.0,1.0,1.0
44.13,7.0,1.0,1.0,1.0
44.14,5.0,1.0,1.0,1.0
44.15,5.0,1.0,1.0,1.0
44.16,6.4944,1.0,1.0,1.0
44.17,11.5056,1.0,1.0,1.0
44.18,12.0,1.0,1.0,1.0
44.19,6.9889,1.0,1.0,1.0
44.2,11.0111,1.0,1.0,1.0
44.21,2.0,1.0,1.0,1.0
44.22,18.0,1.0,1.0,1.0
44.23,8.0,1.0,1.0,1.0
44.24,13.0,1.0,1.0,1.0
44.25,11.0,1.0,1.0,1.0
44.26,6.0,1.0,1.0,1.0
44.27,9.0,1.0,1.0,1.0
44.28,9.0,1.0,1.0,1.0
44.29,11.0,1.0,1.0,1.0
44.3,15.0,1.0,1.0,1.0
44.31,20.4944,1.0,1.0,1.0
44.32,17.0,1.0,1.0,1.0
44.33,9.5056,1.0,1.0,1.0
44.34,25.0,1.0,1.0,1.0
44.35,22.0,1.0,1.0,1.0
44.36,23.0,1.0,1.0,1.0
44.37,23.0,1.0,1.0,1.0
44.38,22.0,1.0,1.0,1.0
44.39,28.0,1.0,1.0,1.0
44.4,21.0,1.0,1.0,1.0
44.41,16.0,1.0,1.0,1.0
44.42,20.0,1.0,1.0,1.0
44.43,32.0,1.0,1.0,1.0
44.44,37.0,1.0,1.0,1.0
44.45,30.4944,1.0,1.0,1.0
44.46,14.5056,1.0,1.0,1.0
44.47,33.0,1.0,1.0,1.0
44.48,23.0,1.0,1.0,1.0
44.49,24.0,1.0,1.0,1.0
44.5,24.4944,1.0,1.0,1.0
44.51,34.5056,1.0,1.0,1.0
44.52,25.4944,1.0,1.0,1.0
44.53,27.0,1.0,1.0,1.0
44.54,38.9889,1.0,1.0,1.0
44.55,38.5056,1.0,1.0,1.0
44.56,36.0111,1.0,1.0,1.0
44.57,46.0,1.0,1.0,1.0
44.58,27.4944,1.0,1.0,1.0
44.59,39.0,1.0,1.0,1.0
44.6,47.0,1.0,1.0,1.0
44.61,55.5056,1.0,1.0,1.0
44.62,30.0,1.0,1.0,1.0
44.63,44.0,1.0,1.0,1.0
44.64,24.9889,1.0,1.0,1.0
44.65,47.0,1.0,1.0,1.0
44.66,46.0,1.0,1.0,1.0
44.67,49.5056,1.0,1.0,1.0
44.68,58.5056,1.0,1.0,1.0
44.69,52.0,1.0,1.0,1.0
44.7,50.4944,1.0,1.0,1.0
44.71,53.5056,1.0,1.0,1.0
44.72,40.9889,1.0,1.0,1.0
44.73,35.0111,1.0,1.0,1.0
44.74,52.0,1.0,1.0,1.0
44.75,64.4944,1.0,1.0,1.0
44.76,59.4944,1.0,1.0,1.0
44.77,44.0111,1.0,1.0,1.0
44.78,63.0,1.0,1.0,1.0
44.79,56.4944,1.0,1.0,1.0
44.8,64.0,1.0,1.0,1.0
44.81,68.4944,1.0,1.0,1.0
44.82,59.5056,1.0,1.0,1.0
44.83,47.0,1.0,1.0,1.0
44.84,45.4944,1.0,1.0,1.0
44.85,65.5056,1.0,1.0,1.0
44.86,70.5056,1.0,1.0,1.0
44.87,81.0,1.0,1.0,1.0
44.88,56.0,1.0,1.0,1.0
44.89,58.4944,1.0,1.0,1.0
44.9,69.0,1.0,1.0,1.0
44.91,33.5056,1.0,1.0,1.0
44.92,53.0,1.0,1.0,1.0
44.93,64.4833,1.0,1.0,1.0
44.94,54.5167,1.0,1.0,1.0
44.95,41.9889,1.0,1.0,1.0
44.96,72.5056,1.0,1.0,1.0
44.97,56.9889,1.0,1.0,1.0
44.98,53.0111,1.0,1.0,1.0
44.99,53.5056,1.0,1.0,1.0
45.0,51.4833,1.0,1.0,1.0
45.01,53.5167,1.0,1.0,1.0
45.02,54.9889,1.0,1.0,1.0
45.03,71.0111,1.0,1.0,1.0
45.04,49.4944,1.0,1.0,1.0
45.05,53.0,1.0,1.0,1.0
45.06,45.5056,1.0,1.0,1.0
45.07,33.4944,1.0,1.0,1.0
45.08,43.5056,1.0,1.0,1.0
45.09,42.0,1.0,1.0,1.0
45.1,60.0,1.0,1.0,1.0
45.11,51.4944,1.0,1.0,1.0
45.12,52.5056,1.0,1.0,1.0
45.13,52.9889,1.0,1.0,1.0
45.14,37.0111,1.0,1.0,1.0
45.15,47.9889,1.0,1.0,1.0
45.16,49.0,1.0,1.0,1.0
45.17,39.0111,1.0,1.0,1.0
45.18,46.4944,1.0,1.0,1.0
45.19,41.5056,1.0,1.0,1.0
45.2,32.0,1.0,1.0,1.0
45.21,40.4944,1.0,1.0,1.0
45.22,44.5056,1.0,1.0,1.0
45.23,50.0,1.0,1.0,1.0
45.24,53.4944,1.0,1.0,1.0
45.25,31.5056,1.0,1.0,1.0
45.26,40.4944,1.0,1.0,1.0
45.27,30.0,1.0,1.0,1.0
45.28,35.4944,1.0,1.0,1.0
45.29,40.4944,1.0,1.0,1.0
45.3,48.0111,1.0,1.0,1.0
45.31,47.5056,1.0,1.0,1.0
45.32,61.4944,1.0,1.0,1.0
45.33,44.5056,1.0,1.0,1.0
45.34,40.4833,1.0,1.0,1.0
45.35,64.5056,1.0,1.0,1.0
45.36,71.0111,1.0,1.0,1.0
45.37,45.9889,1.0,1.0,1.0
45.38,48.5056,1.0,1.0,1.0
45.39,68.4944,1.0,1.0,1.0
45.4,63.0111,1.0,1.0,1.0
45.41,60.9778,1.0,1.0,1.0
45.42,66.5167,1.0,1.0,1.0
45.43,59.4833,1.0,1.0,1.0
45.44,76.0222,1.0,1.0,1.0
45.45,68.9889,1.0,1.0,1.0
45.46,63.5056,1.0,1.0,1.0
45.47,88.9889,1.0,1.0,1.0
45.48,93.5056,1.0,1.0,1.0
45.49,116.5056,1.0,1.0,1.0
45.5,110.9889,1.0,1.0,1.0
45.51,139.5056,1.0,1.0,1.0
45.52,121.5056,1.0,1.0,1.0
45.53,147.0,1.0,1.0,1.0
45.54,148.9889,1.0,1.0,1.0
45.55,173.0111,1.0,1.0,1.0
45.56,148.5056,1.0,1.0,1.0
45.57,179.9889,1.0,1.0,1.0
45.58,202.4944,1.0,1.0,1.0
45.59,158.0,1.0,1.0,1.0
45.6,204.5056,1.0,1.0,1.0
45.61,192.0,1.0,1.0,1.0
45.62,240.4944,1.0,1.0,1.0
45.63,242.9778,1.0,1.0,1.0
45.64,282.5167,1.0,1.0,1.0
45.65,284.4833,1.0,1.0,1.0
45.66,319.9889,1.0,1.0,1.0
45.67,316.5056,1.0,1.0,1.0
45.68,354.4722,1.0,1.0,1.0
45.69,350.0222,1.0,1.0,1.0
45.7,375.5056,1.0,1.0,1.0
45.71,426.0,1.0,1.0,1.0
45.72,414.4722,1.0,1.0,1.0
45.73,462.55,1.0,1.0,1.0
45.74,448.4722,1.0,1.0,1.0
45.75,523.4722,1.0,1.0,1.0
45.76,571.0333,1.0,1.0,1.0
45.77,563.4833,1.0,1.0,1.0
45.78,589.5167,1.0,1.0,1.0
45.79,631.4833,1.0,1.0,1.0
45.8,680.0,1.0,1.0,1.0
45.81,722.5056,1.0,1.0,1.0
45.82,738.9889,1.0,1.0,1.0
45.83,781.4944,1.0,1.0,1.0
45.84,768.0222,1.0,1.0,1.0
45.85,830.45,1.0,1.0,1.0
45.86,908.9778,1.0,1.0,1.0
45.87,927.5167,1.0,1.0,1.0
45.88,974.4944,1.0,1.0,1.0
45.89,1006.49,1.0,1.0,1.0
45.9,1112.01,1.0,1.0,1.0
45.91,1140.0,1.0,1.0,1.0
45.92,1201.48,1.0,1.0,1.0
45.93,1280.49,1.0,1.0,1.0
45.94,1329.97,1.0,1.0,1.0
45.95,1433.54,1.0,1.0,1.0
45.96,1434.92,1.0,1.0,1.0
45.97,1491.03,1.0,1.0,1.0
45.98,1665.04,1.0,1.0,1.0
45.99,1626.42,1.0,1.0,1.0
46.0,1800.06,1.0,1.0,1.0
46.01,1831.44,1.0,1.0,1.0
46.02,2002.49,1.0,1.0,1.0
46.03,1986.43,1.0,1.0,1.0
46.04,2257.59,1.0,1.0,1.0
46.05,2218.87,1.0,1.0,1.0
46.06,2450.55,1.0,1.0,1.0
46.07,2448.51,1.0,1.0,1.0
46.08,2650.51,1.0,1.0,1.0
46.09,2767.98,1.0,1.0,1.0
46.1,2909.97,1.0,1.0,1.0
46.11,2941.46,1.0,1.0,1.0
46.12,3098.01,1.0,1.0,1.0
46.13,3387.87,1.0,1.0,1.0
46.14,3516.55,1.0,1.0,1.0
46.15,3700.06,1.0,1.0,1.0
46.16,3934.01,1.0,1.0,1.0
46.17,4084.36,1.0,1.0,1.0
46.18,4415.59,1.0,1.0,1.0
46.19,4654.86,1.0,1.0,1.0
46.2,4796.0,1.0,1.0,1.0
46.21,5275.54,1.0,1.0,1.0
46.22,5471.26,1.0,1.0,1.0
46.23,6021.0,1.0,1.0,1.0
46.24,6315.64,1.0,1.0,1.0
46.25,6792.35,1.0,1.0,1.0
46.26,7349.99,1.0,1.0,1.0
46.27,7845.42,1.0,1.0,1.0
46.28,8647.8,1.0,1.0,1.0
46.29,9409.54,1.0,1.0,1.0
46.3,9989.88,1.0,1.0,1.0
46.31,11231.9,1.0,1.0,1.0
46.32,12504.4,1.0,1.0,1.0
46.33,13905.1,1.0,1.0,1.0
46.34,15925.5,1.0,1.0,1.0
46.35,18294.084,1.0,1.0,1.0
46.36,21119.2,1.0,1.0,1.0
46.37,25095.6,1.0,1.0,1.0
46.38,31401.8,1.0,1.0,1.0
46.39,41554.1,1.0,1.0,1.0
46.4,60853.332,1.0,1.0,1.0
46.41,100224,1.0,1.0,1.0
46.42,171439,1.0,1.0,1.0
46.43,289184,1.0,1.0,1.0
46.44,513162,1.0,1.0,1.0
46.45,941534,1.0,1.0,1.0
46.46,1928249.75,1.0,1.0,1.0
46.47,7536399.5,1.0,1.0,1.0
46.48,27848188.0,1.0,1.0,1.0
46.49,26984344.0,1.0,1.0,1.0
46.5,3101329.0,1.0,1.0,1.0
46.51,1093251.25,1.0,1.0,1.0
46.52,599314,1.0,1.0,1.0
46.53,367262,1.0,1.0,1.0
46.54,234462,1.0,1.0,1.0
46.55,147765,1.0,1.0,1.0
46.56,92719.2,1.0,1.0,1.0
46.57,58454.5,1.0,1.0,1.0
46.58,38054.4,1.0,1.0,1.0
46.59,26300.9,1.0,1.0,1.0
46.6,18011.3,1.0,1.0,1.0
46.61,12698,1.0,1.0,1.0
46.62,9092.29,1.0,1.0,1.0
46.63,6935.189,1.0,1.0,1.0
46.64,5274.16,1.0,1.0,1.0
46.65,3903.66,1.0,1.0,1.0
46.66,3034.58,1.0,1.0,1.0
46.67,2427.07,1.0,1.0,1.0
46.68,1970.02,1.0,1.0,1.0
46.69,1545.04,1.0,1.0,1.0
46.7,1260.99,1.0,1.0,1.0
46.71,1138.99,1.0,1.0,1.0
46.72,896.0555,1.0,1.0,1.0
46.73,773.5278,1.0,1.0,1.0
46.74,712.4944,1.0,1.0,1.0
46.75,559.5389,1.0,1.0,1.0
46.76,485.9333,1.0,1.0,1.0
46.77,403.0555,1.0,1.0,1.0
46.78,381.9889,1.0,1.0,1.0
46.79,342.0111,1.0,1.0,1.0
46.8,280.5056,1.0,1.0,1.0
46.81,277.0,1.0,1.0,1.0
46.82,220.5056,1.0,1.0,1.0
46.83,196.5278,1.0,1.0,1.0
46.84,181.9667,1.0,1.0,1.0
46.85,152.5278,1.0,1.0,1.0
46.86,175.4944,1.0,1.0,1.0
46.87,154.4944,1.0,1.0,1.0
46.88,158.5056,1.0,1.0,1.0
46.89,163.9889,1.0,1.0,1.0
46.9,175.0,1.0,1.0,1.0
46.91,151.5056,1.0,1.0,1.0
46.92,166.0111,1.0,1.0,1.0
46.93,125.4944,1.0,1.0,1.0
46.94,136.0,1.0,1.0,1.0
46.95,126.0,1.0,1.0,1.0
46.96,155.0111,1.0,1.0,1.0
46.97,150.4944,1.0,1.0,1.0
46.98,166.9556,1.0,1.0,1.0
46.99,174.0222,1.0,1.0,1.0
47.0,147.0222,1.0,1.0,1.0
47.01,144.4944,1.0,1.0,1.0
47.02,180.4722,1.0,1.0,1.0
47.03,177.0222,1.0,1.0,1.0
47.04,181.0111,1.0,1.0,1.0
47.05,177.4944,1.0,1.0,1.0
47.06,191.9889,1.0,1.0,1.0
47.07,199.0,1.0,1.0,1.0
47.08,191.0,1.0,1.0,1.0
47.09,188.5056,1.0,1.0,1.0
47.1,190.5056,1.0,1.0,1.0
47.11,193.4944,1.0,1.0,1.0
47.12,218.0,1.0,1.0,1.0
47.13,208.0,1.0,1.0,1.0
47.14,177.4833,1.0,1.0,1.0
47.15,194.4944,1.0,1.0,1.0
47.16,213.0222,1.0,1.0,1.0
47.17,213.9889,1.0,1.0,1.0
47.18,224.5056,1.0,1.0,1.0
47.19,202.0,1.0,1.0,1.0
47.2,198.5167,1.0,1.0,1.0
47.21,174.4833,1.0,1.0,1.0
47.22,192.9889,1.0,1.0,1.0
47.23,210.0,1.0,1.0,1.0
47.24,211.0222,1.0,1.0,1.0
47.25,204.4722,1.0,1.0,1.0
47.26,193.0,1.0,1.0,1.0
47.27,190.0222,1.0,1.0,1.0
47.28,167.5056,1.0,1.0,1.0
47.29,176.4944,1.0,1.0,1.0
47.3,181.0,1.0,1.0,1.0
47.31,204.5056,1.0,1.0,1.0
47.32,192.4944,1.0,1.0,1.0
47.33,176.9889,1.0,1.0,1.0
47.34,159.0111,1.0,1.0,1.0
47.35,161.9778,1.0,1.0,1.0
47.36,155.0333,1.0,1.0,1.0
47.37,138.4833,1.0,1.0,1.0
47.38,153.5167,1.0,1.0,1.0
47.39,154.4833,1.0,1.0,1.0
47.4,133.5056,1.0,1.0,1.0
47.41,143.5056,1.0,1.0,1.0
47.42,160.0,1.0,1.0,1.0
47.43,124.9889,1.0,1.0,1.0
47.44,126.5167,1.0,1.0,1.0
47.45,125.9889,1.0,1.0,1.0
47.46,146.0,1.0,1.0,1.0
47.47,123.5167,1.0,1.0,1.0
47.48,118.4944,1.0,1.0,1.0
47.49,117.9889,1.0,1.0,1.0
47.5,110.5056,1.0,1.0,1.0
47.51,117.4944,1.0,1.0,1.0
47.52,116.0,1.0,1.0,1.0
47.53,81.5167,1.0,1.0,1.0
47.54,115.0,1.0,1.0,1.0
47.55,94.9889,1.0,1.0,1.0
47.56,69.0111,1.0,1.0,1.0
47.57,68.0,1.0,1.0,1.0
47.58,85.0,1.0,1.0,1.0
47.59,71.0,1.0,1.0,1.0
47.6,70.4944,1.0,1.0,1.0
47.61,78.0,1.0,1.0,1.0
47.62,75.9889,1.0,1.0,1.0
47.63,86.5056,1.0,1.0,1.0
47.64,60.5056,1.0,1.0,1.0
47.65,49.0,1.0,1.0,1.0
47.66,46.5056,1.0,1.0,1.0
47.67,46.4944,1.0,1.0,1.0
47.68,35.4944,1.0,1.0,1.0
47.69,41.0,1.0,1.0,1.0
47.7,39.0111,1.0,1.0,1.0
47.71,64.9889,1.0,1.0,1.0
47.72,37.0111,1.0,1.0,1.0
47.73,31.0,1.0,1.0,1.0
47.74,37.0,1.0,1.0,1.0
47.75,51.0,1.0,1.0,1.0
47.76,42.4944,1.0,1.0,1.0
47.77,24.5056,1.0,1.0,1.0
47.78,33.4833,1.0,1.0,1.0
47.79,35.5167,1.0,1.0,1.0
47.8,31.4944,1.0,1.0,1.0
47.81,25.5056,1.0,1.0,1.0
47.82,9.0,1.0,1.0,1.0
47.83,20.4944,1.0,1.0,1.0
47.84,18.5056,1.0,1.0,1.0
47.85,6.0,1.0,1.0,1.0
47.86,22.0,1.0,1.0,1.0
47.87,23.4944,1.0,1.0,1.0
47.88,18.5056,1.0,1.0,1.0
47.89,8.0,1.0,1.0,1.0
47.9,28.0,1.0,1.0,1.0
47.91,11.9889,1.0,1.0,1.0
47.92,11.0111,1.0,1.0,1.0
47.93,18.9889,1.0,1.0,1.0
47.94,18.5056,1.0,1.0,1.0
47.95,25.0,1.0,1.0,1.0
47.96,25.5056,1.0,1.0,1.0
47.97,12.0,1.0,1.0,1.0
47.98,15.9889,1.0,1.0,1.0
47.99,18.0111,1.0,1.0,1.0
48.0,20.4944,1.0,1.0,1.0
48.01,15.5056,1.0,1.0,1.0
48.02,28.0,1.0,1.0,1.0
48.03,28.0,1.0,1.0,1.0
48.04,27.0,1.0,1.0,1.0
48.05,9.9889,1.0,1.0,1.0
48.06,24.0111,1.0,1.0,1.0
48.07,29.4944,1.0,1.0,1.0
48.08,26.5056,1.0,1.0,1.0
48.09,37.4944,1.0,1.0,1.0
48.1,37.5056,1.0,1.0,1.0
48.11,13.0,1.0,1.0,1.0
48.12,32.0,1.0,1.0,1.0
48.13,30.4944,1.0,1.0,1.0
48.14,40.5056,1.0,1.0,1.0
48.15,25.0,1.0,1.0,1.0
48.16,42.0,1.0,1.0,1.0
48.17,45.4944,1.0,1.0,1.0
48.18,29.5056,1.0,1.0,1.0
48.19,36.4944,1.0,1.0,1.0
48.2,41.0,1.0,1.0,1.0
48.21,27.4944,1.0,1.0,1.0
48.22,27.0111,1.0,1.0,1.0
48.23,35.4944,1.0,1.0,1.0
48.24,48.5056,1.0,1.0,1.0
48.25,41.4944,1.0,1.0,1.0
48.26,37.0,1.0,1.0,1.0
48.27,40.5056,1.0,1.0,1.0
48.28,48.0,1.0,1.0,1.0
48.29,44.0,1.0,1.0,1.0
48.3,58.4944,1.0,1.0,1.0
48.31,64.9889,1.0,1.0,1.0
48.32,48.0111,1.0,1.0,1.0
48.33,62.9889,1.0,1.0,1.0
48.34,64.0111,1.0,1.0,1.0
48.35,61.4944,1.0,1.0,1.0
48.36,61.4944,1.0,1.0,1.0
48.37,53.5167,1.0,1.0,1.0
48.38,57.4944,1.0,1.0,1.0
48.39,62.5056,1.0,1.0,1.0
48.4,51.0,1.0,1.0,1.0
48.41,68.4944,1.0,1.0,1.0
48.42,33.9889,1.0,1.0,1.0
48.43,62.5167,1.0,1.0,1.0
48.44,47.0,1.0,1.0,1.0
48.45,56.4944,1.0,1.0,1.0
48.46,64.0,1.0,1.0,1.0
48.47,81.4944,1.0,1.0,1.0
48.48,63.0,1.0,1.0,1.0
48.49,65.4944,1.0,1.0,1.0
48.5,66.0111,1.0,1.0,1.0
48.51,50.5056,1.0,1.0,1.0
48.52,66.4833,1.0,1.0,1.0
48.53,62.5056,1.0,1.0,1.0
48.54,72.5056,1.0,1.0,1.0
48.55,52.0,1.0,1.0,1.0
48.56,55.4833,1.0,1.0,1.0
48.57,69.5167,1.0,1.0,1.0
48.58,43.5056,1.0,1.0,1.0
48.59,67.9889,1.0,1.0,1.0
48.6,70.0111,1.0,1.0,1.0
48.61,57.0,1.0,1.0,1.0
48.62,69.0,1.0,1.0,1.0
48.63,74.0,1.0,1.0,1.0
48.64,62.0,1.0,1.0,1.0
48.65,49.0,1.0,1.0,1.0
48.66,58.9889,1.0,1.0,1.0
48.67,46.5056,1.0,1.0,1.0
48.68,49.4944,1.0,1.0,1.0
48.69,79.0111,1.0,1.0,1.0
48.7,46.0,1.0,1.0,1.0
48.71,36.4944,1.0,1.0,1.0
48.72,53.9889,1.0,1.0,1.0
48.73,56.5056,1.0,1.0,1.0
48.74,44.0111,1.0,1.0,1.0
48.75,41.0,1.0,1.0,1.0
48.76,54.0,1.0,1.0,1.0
48.77,66.4833,1.0,1.0,1.0
48.78,54.0111,1.0,1.0,1.0
48.79,34.0,1.0,1.0,1.0
48.8,32.4944,1.0,1.0,1.0
48.81,43.5056,1.0,1.0,1.0
48.82,41.5056,1.0,1.0,1.0
48.83,60.4722,1.0,1.0,1.0
48.84,35.5278,1.0,1.0,1.0
48.85,34.0,1.0,1.0,1.0
48.86,41.0,1.0,1.0,1.0
48.87,39.4944,1.0,1.0,1.0
48.88,25.0,1.0,1.0,1.0
48.89,23.0,1.0,1.0,1.0
48.9,39.5056,1.0,1.0,1.0
48.91,34.0,1.0,1.0,1.0
48.92,39.4944,1.0,1.0,1.0
48.93,15.4944,1.0,1.0,1.0
48.94,32.0111,1.0,1.0,1.0
48.95,37.0,1.0,1.0,1.0
48.96,14.4944,1.0,1.0,1.0
48.97,31.0,1.0,1.0,1.0
48.98,32.5056,1.0,1.0,1.0
48.99,25.0,1.0,1.0,1.0
49.0,26.0,1.0,1.0,1.0
49.01,24.0,1.0,1.0,1.0
49.02,16.0,1.0,1.0,1.0
49.03,15.0,1.0,1.0,1.0
49.04,10.0,1.0,1.0,1.0
49.05,13.0,1.0,1.0,1.0
49.06,9.4944,1.0,1.0,1.0
49.07,16.5056,1.0,1.0,1.0
49.08,13.4944,1.0,1.0,1.0
49.09,15.5056,1.0,1.0,1.0
49.1,9.9889,1.0,1.0,1.0
49.11,6.0111,1.0,1.0,1.0
49.12,17.0,1.0,1.0,1.0
49.13,21.0,1.0,1.0,1.0
49.14,8.4944,1.0,1.0,1.0
49.15,13.5056,1.0,1.0,1.0
49.16,7.0,1.0,1.0,1.0
49.17,8.0,1.0,1.0,1.0
49.18,4.0,1.0,1.0,1.0
49.19,5.0,1.0,1.0,1.0
49.2,15.0,1.0,1.0,1.0
49.21,5.0,1.0,1.0,1.0
49.22,9.0,1.0,1.0,1.0
49.23,15.0,1.0,1.0,1.0
49.24,27.0,1.0,1.0,1.0
49.25,0.0,1.0,1.0,1.0
49.26,9.4944,1.0,1.0,1.0
49.27,6.5056,1.0,1.0,1.0
49.28,15.4944,1.0,1.0,1.0
49.29,6.5056,1.0,1.0,1.0
49.3,3.9889,1.0,1.0,1.0
49.31,2.0111,1.0,1.0,1.0
49.32,16.0,1.0,1.0,1.0
49.33,11.0,1.0,1.0,1.0
49.34,0.0,1.0,1.0,1.0
49.35,0.0,1.0,1.0,1.0
49.36,4.9889,1.0,1.0,1.0
49.37,3.0111,1.0,1.0,1.0
49.38,18.0,1.0,1.0,1.0
49.39,8.0,1.0,1.0,1.0
49.4,3.0,1.0,1.0,1.0
49.41,4.0,1.0,1.0,1.0
49.42,2.0,1.0,1.0,1.0
49.43,9.0,1.0,1.0,1.0
49.44,4.0,1.0,1.0,1.0
49.45,6.0,1.0,1.0,1.0
49.46,14.0,1.0,1.0,1.0
49.47,0.0,1.0,1.0,1.0
49.48,3.0,1.0,1.0,1.0
49.49,41.0,1.0,1.0,1.0
49.5,4.0,1.0,1.0,1.0
49.51,3.0,1.0,1.0,1.0
49.52,11.0,1.0,1.0,1.0
49.53,5.0,1.0,1.0,1.0
49.54,13.0,1.0,1.0,1.0
49.55,6.0,1.0,1.0,1.0
49.56,4.0,1.0,1.0,1.0
49.57,8.0,1.0,1.0,1.0
49.58,4.0,1.0,1.0,1.0
49.59,5.0,1.0,1.0,1.0
49.6,10.0,1.0,1.0,1.0
49.61,11.0,1.0,1.0,1.0
49.62,13.0,1.0,1.0,1.0
49.63,13.0,1.0,1.0,1.0
49.64,8.0,1.0,1.0,1.0
49.65,14.4944,1.0,1.0,1.0
49.66,10.4944,1.0,1.0,1.0
49.67,8.0111,1.0,1.0,1.0
49.68,8.0,1.0,1.0,1.0
49.69,19.0,1.0,1.0,1.0
49.7,14.0,1.0,1.0,1.0
49.71,9.0,1.0,1.0,1.0
49.72,8.0,1.0,1.0,1.0
49.73,19.0,1.0,1.0,1.0
49.74,27.0,1.0,1.0,1.0
49.75,11.0,1.0,1.0,1.0
49.76,7.0,1.0,1.0,1.0
49.77,30.0,1.0,1.0,1.0
49.78,15.9889,1.0,1.0,1.0
49.79,20.5056,1.0,1.0,1.0
49.8,18.5056,1.0,1.0,1.0
49.81,25.4944,1.0,1.0,1.0
49.82,13.5056,1.0,1.0,1.0
49.83,21.0,1.0,1.0,1.0
49.84,30.9889,1.0,1.0,1.0
49.85,8.0111,1.0,1.0,1.0
49.86,19.0,1.0,1.0,1.0
49.87,17.9889,1.0,1.0,1.0
49.88,14.5056,1.0,1.0,1.0
49.89,13.0,1.0,1.0,1.0
49.9,22.5056,1.0,1.0,1.0
49.91,14.0,1.0,1.0,1.0
49.92,9.0,1.0,1.0,1.0
49.93,6.0,1.0,1.0,1.0
49.94,6.0,1.0,1.0,1.0
49.95,22.0,1.0,1.0,1.0
49.96,16.0,1.0,1.0,1.0
49.97,13.0,1.0,1.0,1.0
49.98,15.0,1.0,1.0,1.0
49.99,10.0,1.0,1.0,1.0
50.0,12.0,1.0,1.0,1.0
50.01,5.0,1.0,1.0,1.0
50.02,13.0,1.0,1.0,1.0
50.03,16.9889,1.0,1.0,1.0
50.04,23.0111,1.0,1.0,1.0
50.05,13.0,1.0,1.0,1.0
50.06,13.0,1.0,1.0,1.0
50.07,12.0,1.0,1.0,1.0
50.08,23.0,1.0,1.0,1.0
50.09,13.0,1.0,1.0,1.0
50.1,10.0,1.0,1.0,1.0
50.11,25.0,1.0,1.0,1.0
50.12,16.0,1.0,1.0,1.0
50.13,6.4944,1.0,1.0,1.0
50.14,11.5056,1.0,1.0,1.0
50.15,7.0,1.0,1.0,1.0
50.16,16.0,1.0,1.0,1.0
50.17,8.0,1.0,1.0,1.0
50.18,8.0,1.0,1.0,1.0
50.19,8.0,1.0,1.0,1.0
50.2,12.0,1.0,1.0,1.0
50.21,11.0,1.0,1.0,1.0
50.22,16.0,1.0,1.0,1.0
50.23,9.0,1.0,1.0,1.0
50.24,13.0,1.0,1.0,1.0
50.25,15.0,1.0,1.0,1.0
50.26,12.0,1.0,1.0,1.0
50.27,6.0,1.0,1.0,1.0
50.28,10.0,1.0,1.0,1.0
50.29,12.0,1.0,1.0,1.0
50.3,11.0,1.0,1.0,1.0
50.31,6.9889,1.0,1.0,1.0
50.32,10.0111,1.0,1.0,1.0
50.33,17.0,1.0,1.0,1.0
50.34,10.0,1.0,1.0,1.0
50.35,3.0,1.0,1.0,1.0
50.36,0.0,1.0,1.0,1.0
50.37,12.0,1.0,1.0,1.0
50.38,5.0,1.0,1.0,1.0
50.39,5.0,1.0,1.0,1.0
50.4,0.0,1.0,1.0,1.0
50.41,7.0,1.0,1.0,1.0
50.42,12.0,1.0,1.0,1.0
50.43,14.0,1.0,1.0,1.0
50.44,5.0,1.0,1.0,1.0
50.45,7.0,1.0,1.0,1.0
50.46,4.0,1.0,1.0,1.0
50.47,1.0,1.0,1.0,1.0
50.48,7.0,1.0,1.0,1.0
50.49,8.0,1.0,1.0,1.0
50.5,8.0,1.0,1.0,1.0
50.51,20.0,1.0,1.0,1.0
50.52,0.0,1.0,1.0,1.0
50.53,5.0,1.0,1.0,1.0
50.54,0.0,1.0,1.0,1.0
50.55,3.0,1.0,1.0,1.0
50.56,3.0,1.0,1.0,1.0
50.57,2.0,1.0,1.0,1.0
50.58,10.0,1.0,1.0,1.0
50.59,4.0,1.0,1.0,1.0
50.6,2.0,1.0,1.0,1.0
50.61,6.0,1.0,1.0,1.0
50.62,9.0,1.0,1.0,1.0
50.63,6.0,1.0,1.0,1.0
50.64,4.0,1.0,1.0,1.0
50.65,7.0,1.0,1.0,1.0
50.66,10.0,1.0,1.0,1.0
50.67,5.0,1.0,1.0,1.0
50.68,10.0,1.0,1.0,1.0
50.69,4.0,1.0,1.0,1.0
50.7,0.0,1.0,1.0,1.0
50.71,7.0,1.0,1.0,1.0
50.72,4.0,1.0,1.0,1.0
50.73,6.0,1.0,1.0,1.0
50.74,3.0,1.0,1.0,1.0
50.75,7.0,1.0,1.0,1.0
50.76,4.0,1.0,1.0,1.0
50.77,3.0,1.0,1.0,1.0
50.78,4.0,1.0,1.0,1.0
50.79,0.0,1.0,1.0,1.0
50.8,9.4944,1.0,1.0,1.0
50.81,8.5056,1.0,1.0,1.0
50.82,5.0,1.0,1.0,1.0
50.83,43.0,1.0,1.0,1.0
50.84,5.0,1.0,1.0,1.0
50.85,3.0,1.0,1.0,1.0
50.86,0.0,1.0,1.0,1.0
50.87,7.0,1.0,1.0,1.0
50.88,2.4944,1.0,1.0,1.0
50.89,2.5056,1.0,1.0,1.0
50.9,0.0,1.0,1.0,1.0
50.91,6.0,1.0,1.0,1.0
50.92,10.0,1.0,1.0,1.0
50.93,3.0,1.0,1.0,1.0
50.94,6.0,1.0,1.0,1.0
50.95,7.0,1.0,1.0,1.0
50.96,13.4944,1.0,1.0,1.0
50.97,7.5056,1.0,1.0,1.0
50.98,3.0,1.0,1.0,1.0
50.99,13.0,1.0,1.0,1.0
51.0,8.0,1.0,1.0,1.0
51.01,11.0,1.0,1.0,1.0
51.02,4.0,1.0,1.0,1.0
51.03,2.0,1.0,1.0,1.0
51.04,4.0,1.0,1.0,1.0
51.05,7.0,1.0,1.0,1.0
51.06,6.0,1.0,1.0,1.0
51.07,8.0,1.0,1.0,1.0
51.08,5.0,1.0,1.0,1.0
51.09,7.0,1.0,1.0,1.0
51.1,5.4944,1.0,1.0,1.0
51.11,5.5056,1.0,1.0,1.0
51.12,4.0,1.0,1.0,1.0
51.13,7.0,1.0,1.0,1.0
51.14,6.0,1.0,1.0,1.0
51.15,3.0,1.0,1.0,1.0
51.16,12.0,1.0,1.0,1.0
51.17,4.0,1.0,1.0,1.0
51.18,4.0,1.0,1.0,1.0
51.19,4.0,1.0,1.0,1.0
51.2,6.0,1.0,1.0,1.0
51.21,11.0,1.0,1.0,1.0
51.22,4.0,1.0,1.0,1.0
51.23,2.0,1.0,1.0,1.0
51.24,2.0,1.0,1.0,1.0
51.25,5.0,1.0,1.0,1.0
51.26,3.0,1.0,1.0,1.0
51.27,6.0,1.0,1.0,1.0
51.28,7.0,1.0,1.0,1.0
51.29,4.0,1.0,1.0,1.0
51.3,7.0,1.0,1.0,1.0
51.31,7.0,1.0,1.0,1.0
51.32,7.0,1.0,1.0,1.0
51.33,8.0,1.0,1.0,1.0
51.34,7.0,1.0,1.0,1.0
51.35,0.0,1.0,1.0,1.0
51.36,3.0,1.0,1.0,1.0
51.37,7.4944,1.0,1.0,1.0
51.38,8.5056,1.0,1.0,1.0
51.39,2.0,1.0,1.0,1.0
51.4,6.0,1.0,1.0,1.0
51.41,4.4944,1.0,1.0,1.0
51.42,12.4944,1.0,1.0,1.0
51.43,10.5056,1.0,1.0,1.0
51.44,5.5056,1.0,1.0,1.0
51.45,2.0,1.0,1.0,1.0
51.46,4.0,1.0,1.0,1.0
51.47,11.4944,1.0,1.0,1.0
51.48,2.5056,1.0,1.0,1.0
51.49,7.0,1.0,1.0,1.0
51.5,3.0,1.0,1.0,1.0
51.51,4.0,1.0,1.0,1.0
51.52,5.0,1.0,1.0,1.0
51.53,4.0,1.0,1.0,1.0
51.54,0.0,1.0,1.0,1.0
51.55,19.0,1.0,1.0,1.0
51.56,2.0,1.0,1.0,1.0
51.57,2.0,1.0,1.0,1.0
51.58,5.0,1.0,1.0,1.0
51.59,0.0,1.0,1.0,1.0
51.6,8.4944,1.0,1.0,1.0
51.61,7.5056,1.0,1.0,1.0
51.62,0.0,1.0,1.0,1.0
51.63,16.0,1.0,1.0,1.0
51.64,6.0,1.0,1.0,1.0
51.65,4.0,1.0,1.0,1.0
51.66,3.0,1.0,1.0,1.0
51.67,9.0,1.0,1.0,1.0
51.68,5.0,1.0,1.0,1.0
51.69,8.4944,1.0,1.0,1.0
51.7,2.5056,1.0,1.0,1.0
51.71,12.0,1.0,1.0,1.0
51.72,5.4944,1.0,1.0,1.0
51.73,2.5056,1.0,1.0,1.0
51.74,4.0,1.0,1.0,1.0
51.75,0.0,1.0,1.0,1.0
51.76,5.0,1.0,1.0,1.0
51.77,0.0,1.0,1.0,1.0
51.78,3.0,1.0,1.0,1.0
51.79,2.0,1.0,1.0,1.0
51.8,6.0,1.0,1.0,1.0
51.81,5.0,1.0,1.0,1.0
51.82,13.0,1.0,1.0,1.0
51.83,2.0,1.0,1.0,1.0
51.84,2.0,1.0,1.0,1.0
51.85,8.4944,1.0,1.0,1.0
51.86,4.0,1.0,1.0,1.0
51.87,1.5056,1.0,1.0,1.0
51.88,2.4944,1.0,1.0,1.0
51.89,4.0,1.0,1.0,1.0
51.9,6.5056,1.0,1.0,1.0
51.91,2.0,1.0,1.0,1.0
51.92,0.0,1.0,1.0,1.0
51.93,14.0,1.0,1.0,1.0
51.94,5.0,1.0,1.0,1.0
51.95,1.4944,1.0,1.0,1.0
51.96,0.5056,1.0,1.0,1.0
51.97,3.0,1.0,1.0,1.0
51.98,4.4944,1.0,1.0,1.0
51.99,7.5056,1.0,1.0,1.0
52.0,8.0,1.0,1.0,1.0