File: XRD:XRR/LCO/22148a_LCOL/22148a_LCOL_XRD.csv
#twotheta, yobs, ycal, bkg, diff
42.0,9.9889,1.0,1.0,1.0
42.01,11.0111,1.0,1.0,1.0
42.02,12.0,1.0,1.0,1.0
42.03,15.4944,1.0,1.0,1.0
42.04,16.0,1.0,1.0,1.0
42.05,19.5056,1.0,1.0,1.0
42.06,17.0,1.0,1.0,1.0
42.07,24.0,1.0,1.0,1.0
42.08,17.4944,1.0,1.0,1.0
42.09,14.5056,1.0,1.0,1.0
42.1,18.4944,1.0,1.0,1.0
42.11,14.0,1.0,1.0,1.0
42.12,7.5056,1.0,1.0,1.0
42.13,12.0,1.0,1.0,1.0
42.14,10.4944,1.0,1.0,1.0
42.15,21.5056,1.0,1.0,1.0
42.16,8.4944,1.0,1.0,1.0
42.17,21.5056,1.0,1.0,1.0
42.18,17.0,1.0,1.0,1.0
42.19,20.0,1.0,1.0,1.0
42.2,5.4944,1.0,1.0,1.0
42.21,18.5056,1.0,1.0,1.0
42.22,4.0,1.0,1.0,1.0
42.23,24.0,1.0,1.0,1.0
42.24,2.0,1.0,1.0,1.0
42.25,9.4944,1.0,1.0,1.0
42.26,23.0,1.0,1.0,1.0
42.27,17.5056,1.0,1.0,1.0
42.28,14.0,1.0,1.0,1.0
42.29,20.0,1.0,1.0,1.0
42.3,19.4944,1.0,1.0,1.0
42.31,24.5056,1.0,1.0,1.0
42.32,7.0,1.0,1.0,1.0
42.33,12.0,1.0,1.0,1.0
42.34,15.9889,1.0,1.0,1.0
42.35,21.0111,1.0,1.0,1.0
42.36,11.0,1.0,1.0,1.0
42.37,17.9889,1.0,1.0,1.0
42.38,24.0111,1.0,1.0,1.0
42.39,22.4944,1.0,1.0,1.0
42.4,19.5056,1.0,1.0,1.0
42.41,17.0,1.0,1.0,1.0
42.42,27.4944,1.0,1.0,1.0
42.43,19.5056,1.0,1.0,1.0
42.44,13.0,1.0,1.0,1.0
42.45,21.0,1.0,1.0,1.0
42.46,16.0,1.0,1.0,1.0
42.47,18.4944,1.0,1.0,1.0
42.48,26.5056,1.0,1.0,1.0
42.49,17.0,1.0,1.0,1.0
42.5,12.0,1.0,1.0,1.0
42.51,28.0,1.0,1.0,1.0
42.52,20.0,1.0,1.0,1.0
42.53,5.0,1.0,1.0,1.0
42.54,17.0,1.0,1.0,1.0
42.55,30.4944,1.0,1.0,1.0
42.56,10.5056,1.0,1.0,1.0
42.57,32.0,1.0,1.0,1.0
42.58,34.0,1.0,1.0,1.0
42.59,17.0,1.0,1.0,1.0
42.6,18.0,1.0,1.0,1.0
42.61,22.0,1.0,1.0,1.0
42.62,29.0,1.0,1.0,1.0
42.63,22.0,1.0,1.0,1.0
42.64,15.0,1.0,1.0,1.0
42.65,31.0,1.0,1.0,1.0
42.66,11.0,1.0,1.0,1.0
42.67,17.4944,1.0,1.0,1.0
42.68,34.5056,1.0,1.0,1.0
42.69,37.0,1.0,1.0,1.0
42.7,36.0,1.0,1.0,1.0
42.71,31.4944,1.0,1.0,1.0
42.72,29.0,1.0,1.0,1.0
42.73,22.5056,1.0,1.0,1.0
42.74,23.0,1.0,1.0,1.0
42.75,21.4944,1.0,1.0,1.0
42.76,20.5056,1.0,1.0,1.0
42.77,33.0,1.0,1.0,1.0
42.78,16.0,1.0,1.0,1.0
42.79,18.4944,1.0,1.0,1.0
42.8,30.5056,1.0,1.0,1.0
42.81,15.0,1.0,1.0,1.0
42.82,24.0,1.0,1.0,1.0
42.83,26.0,1.0,1.0,1.0
42.84,35.0,1.0,1.0,1.0
42.85,14.0,1.0,1.0,1.0
42.86,18.0,1.0,1.0,1.0
42.87,19.0,1.0,1.0,1.0
42.88,30.0,1.0,1.0,1.0
42.89,18.4944,1.0,1.0,1.0
42.9,16.5056,1.0,1.0,1.0
42.91,12.4944,1.0,1.0,1.0
42.92,10.0,1.0,1.0,1.0
42.93,9.5056,1.0,1.0,1.0
42.94,25.0,1.0,1.0,1.0
42.95,15.4944,1.0,1.0,1.0
42.96,11.0,1.0,1.0,1.0
42.97,23.0,1.0,1.0,1.0
42.98,15.5056,1.0,1.0,1.0
42.99,17.9889,1.0,1.0,1.0
43.0,9.5056,1.0,1.0,1.0
43.01,19.5056,1.0,1.0,1.0
43.02,20.0,1.0,1.0,1.0
43.03,12.0,1.0,1.0,1.0
43.04,19.0,1.0,1.0,1.0
43.05,13.0,1.0,1.0,1.0
43.06,17.4944,1.0,1.0,1.0
43.07,22.5056,1.0,1.0,1.0
43.08,20.0,1.0,1.0,1.0
43.09,14.0,1.0,1.0,1.0
43.1,20.0,1.0,1.0,1.0
43.11,12.9889,1.0,1.0,1.0
43.12,20.5056,1.0,1.0,1.0
43.13,18.4944,1.0,1.0,1.0
43.14,10.0111,1.0,1.0,1.0
43.15,20.4944,1.0,1.0,1.0
43.16,31.5056,1.0,1.0,1.0
43.17,29.0,1.0,1.0,1.0
43.18,14.0,1.0,1.0,1.0
43.19,15.0,1.0,1.0,1.0
43.2,15.0,1.0,1.0,1.0
43.21,20.0,1.0,1.0,1.0
43.22,34.0,1.0,1.0,1.0
43.23,17.4944,1.0,1.0,1.0
43.24,21.5056,1.0,1.0,1.0
43.25,18.0,1.0,1.0,1.0
43.26,26.0,1.0,1.0,1.0
43.27,27.0,1.0,1.0,1.0
43.28,16.9889,1.0,1.0,1.0
43.29,72.5056,1.0,1.0,1.0
43.3,28.5056,1.0,1.0,1.0
43.31,16.0,1.0,1.0,1.0
43.32,26.0,1.0,1.0,1.0
43.33,39.0,1.0,1.0,1.0
43.34,37.0,1.0,1.0,1.0
43.35,23.4944,1.0,1.0,1.0
43.36,37.5056,1.0,1.0,1.0
43.37,41.0,1.0,1.0,1.0
43.38,31.0,1.0,1.0,1.0
43.39,40.0,1.0,1.0,1.0
43.4,30.0,1.0,1.0,1.0
43.41,48.4944,1.0,1.0,1.0
43.42,34.4944,1.0,1.0,1.0
43.43,40.0,1.0,1.0,1.0
43.44,36.0111,1.0,1.0,1.0
43.45,30.0,1.0,1.0,1.0
43.46,34.4944,1.0,1.0,1.0
43.47,22.0,1.0,1.0,1.0
43.48,38.5056,1.0,1.0,1.0
43.49,40.9889,1.0,1.0,1.0
43.5,43.5056,1.0,1.0,1.0
43.51,45.0,1.0,1.0,1.0
43.52,56.4944,1.0,1.0,1.0
43.53,38.0111,1.0,1.0,1.0
43.54,39.0,1.0,1.0,1.0
43.55,47.0,1.0,1.0,1.0
43.56,44.0,1.0,1.0,1.0
43.57,44.0,1.0,1.0,1.0
43.58,28.0,1.0,1.0,1.0
43.59,23.0,1.0,1.0,1.0
43.6,63.4944,1.0,1.0,1.0
43.61,40.0,1.0,1.0,1.0
43.62,55.5056,1.0,1.0,1.0
43.63,49.4833,1.0,1.0,1.0
43.64,59.5056,1.0,1.0,1.0
43.65,43.0111,1.0,1.0,1.0
43.66,33.4944,1.0,1.0,1.0
43.67,62.0,1.0,1.0,1.0
43.68,44.4944,1.0,1.0,1.0
43.69,56.4944,1.0,1.0,1.0
43.7,42.5167,1.0,1.0,1.0
43.71,27.4944,1.0,1.0,1.0
43.72,49.4944,1.0,1.0,1.0
43.73,35.0111,1.0,1.0,1.0
43.74,45.4833,1.0,1.0,1.0
43.75,46.0111,1.0,1.0,1.0
43.76,31.4944,1.0,1.0,1.0
43.77,31.5056,1.0,1.0,1.0
43.78,46.0,1.0,1.0,1.0
43.79,37.0,1.0,1.0,1.0
43.8,37.5056,1.0,1.0,1.0
43.81,37.0,1.0,1.0,1.0
43.82,37.4944,1.0,1.0,1.0
43.83,25.5056,1.0,1.0,1.0
43.84,27.0,1.0,1.0,1.0
43.85,30.0,1.0,1.0,1.0
43.86,18.4944,1.0,1.0,1.0
43.87,48.5056,1.0,1.0,1.0
43.88,31.0,1.0,1.0,1.0
43.89,21.0,1.0,1.0,1.0
43.9,43.9889,1.0,1.0,1.0
43.91,33.0111,1.0,1.0,1.0
43.92,22.9889,1.0,1.0,1.0
43.93,33.0111,1.0,1.0,1.0
43.94,16.4944,1.0,1.0,1.0
43.95,18.5056,1.0,1.0,1.0
43.96,29.0,1.0,1.0,1.0
43.97,23.0,1.0,1.0,1.0
43.98,24.0,1.0,1.0,1.0
43.99,11.0,1.0,1.0,1.0
44.0,21.4944,1.0,1.0,1.0
44.01,21.0,1.0,1.0,1.0
44.02,19.5056,1.0,1.0,1.0
44.03,16.0,1.0,1.0,1.0
44.04,27.0,1.0,1.0,1.0
44.05,21.0,1.0,1.0,1.0
44.06,12.0,1.0,1.0,1.0
44.07,17.4944,1.0,1.0,1.0
44.08,32.0,1.0,1.0,1.0
44.09,26.5056,1.0,1.0,1.0
44.1,16.4944,1.0,1.0,1.0
44.11,34.0,1.0,1.0,1.0
44.12,25.4944,1.0,1.0,1.0
44.13,21.0111,1.0,1.0,1.0
44.14,27.0,1.0,1.0,1.0
44.15,27.4944,1.0,1.0,1.0
44.16,22.0,1.0,1.0,1.0
44.17,36.0,1.0,1.0,1.0
44.18,34.5056,1.0,1.0,1.0
44.19,32.4944,1.0,1.0,1.0
44.2,55.0,1.0,1.0,1.0
44.21,54.4944,1.0,1.0,1.0
44.22,49.9889,1.0,1.0,1.0
44.23,60.5056,1.0,1.0,1.0
44.24,47.0111,1.0,1.0,1.0
44.25,61.5056,1.0,1.0,1.0
44.26,52.0,1.0,1.0,1.0
44.27,51.9889,1.0,1.0,1.0
44.28,66.5056,1.0,1.0,1.0
44.29,67.4944,1.0,1.0,1.0
44.3,59.4944,1.0,1.0,1.0
44.31,69.0111,1.0,1.0,1.0
44.32,103.4944,1.0,1.0,1.0
44.33,71.9889,1.0,1.0,1.0
44.34,95.5056,1.0,1.0,1.0
44.35,81.5056,1.0,1.0,1.0
44.36,83.0,1.0,1.0,1.0
44.37,87.9889,1.0,1.0,1.0
44.38,81.0222,1.0,1.0,1.0
44.39,113.4833,1.0,1.0,1.0
44.4,99.5167,1.0,1.0,1.0
44.41,108.0,1.0,1.0,1.0
44.42,114.0,1.0,1.0,1.0
44.43,107.9889,1.0,1.0,1.0
44.44,111.0,1.0,1.0,1.0
44.45,106.0,1.0,1.0,1.0
44.46,121.5056,1.0,1.0,1.0
44.47,113.5056,1.0,1.0,1.0
44.48,120.4944,1.0,1.0,1.0
44.49,132.9889,1.0,1.0,1.0
44.5,102.0111,1.0,1.0,1.0
44.51,139.0,1.0,1.0,1.0
44.52,145.4833,1.0,1.0,1.0
44.53,142.0111,1.0,1.0,1.0
44.54,124.0,1.0,1.0,1.0
44.55,135.5056,1.0,1.0,1.0
44.56,152.4944,1.0,1.0,1.0
44.57,128.0111,1.0,1.0,1.0
44.58,132.4944,1.0,1.0,1.0
44.59,138.9889,1.0,1.0,1.0
44.6,148.0,1.0,1.0,1.0
44.61,158.5056,1.0,1.0,1.0
44.62,119.5056,1.0,1.0,1.0
44.63,111.4833,1.0,1.0,1.0
44.64,127.0222,1.0,1.0,1.0
44.65,119.4944,1.0,1.0,1.0
44.66,125.4944,1.0,1.0,1.0
44.67,111.4944,1.0,1.0,1.0
44.68,124.0111,1.0,1.0,1.0
44.69,129.4944,1.0,1.0,1.0
44.7,99.0,1.0,1.0,1.0
44.71,103.4944,1.0,1.0,1.0
44.72,117.4833,1.0,1.0,1.0
44.73,112.0222,1.0,1.0,1.0
44.74,101.4944,1.0,1.0,1.0
44.75,95.4944,1.0,1.0,1.0
44.76,88.5056,1.0,1.0,1.0
44.77,62.5167,1.0,1.0,1.0
44.78,72.0,1.0,1.0,1.0
44.79,90.4944,1.0,1.0,1.0
44.8,82.0,1.0,1.0,1.0
44.81,66.0,1.0,1.0,1.0
44.82,47.0,1.0,1.0,1.0
44.83,52.0,1.0,1.0,1.0
44.84,62.0,1.0,1.0,1.0
44.85,50.5056,1.0,1.0,1.0
44.86,44.0,1.0,1.0,1.0
44.87,49.0,1.0,1.0,1.0
44.88,29.0,1.0,1.0,1.0
44.89,42.9889,1.0,1.0,1.0
44.9,32.0,1.0,1.0,1.0
44.91,50.0111,1.0,1.0,1.0
44.92,39.9889,1.0,1.0,1.0
44.93,41.0111,1.0,1.0,1.0
44.94,40.4944,1.0,1.0,1.0
44.95,41.4944,1.0,1.0,1.0
44.96,42.0111,1.0,1.0,1.0
44.97,39.0,1.0,1.0,1.0
44.98,53.9889,1.0,1.0,1.0
44.99,51.0,1.0,1.0,1.0
45.0,55.4944,1.0,1.0,1.0
45.01,61.5167,1.0,1.0,1.0
45.02,80.4833,1.0,1.0,1.0
45.03,73.5167,1.0,1.0,1.0
45.04,80.4944,1.0,1.0,1.0
45.05,72.4944,1.0,1.0,1.0
45.06,107.9889,1.0,1.0,1.0
45.07,119.5056,1.0,1.0,1.0
45.08,142.4944,1.0,1.0,1.0
45.09,156.0,1.0,1.0,1.0
45.1,143.4944,1.0,1.0,1.0
45.11,203.5278,1.0,1.0,1.0
45.12,209.9667,1.0,1.0,1.0
45.13,215.0222,1.0,1.0,1.0
45.14,214.4944,1.0,1.0,1.0
45.15,293.0,1.0,1.0,1.0
45.16,290.0,1.0,1.0,1.0
45.17,299.4611,1.0,1.0,1.0
45.18,297.0333,1.0,1.0,1.0
45.19,347.4833,1.0,1.0,1.0
45.2,382.0,1.0,1.0,1.0
45.21,368.4944,1.0,1.0,1.0
45.22,487.4722,1.0,1.0,1.0
45.23,515.9889,1.0,1.0,1.0
45.24,527.5278,1.0,1.0,1.0
45.25,540.9889,1.0,1.0,1.0
45.26,648.0,1.0,1.0,1.0
45.27,689.5056,1.0,1.0,1.0
45.28,697.4722,1.0,1.0,1.0
45.29,798.0333,1.0,1.0,1.0
45.3,839.45,1.0,1.0,1.0
45.31,885.0111,1.0,1.0,1.0
45.32,963.4722,1.0,1.0,1.0
45.33,952.5056,1.0,1.0,1.0
45.34,1019.97,1.0,1.0,1.0
45.35,1092.55,1.0,1.0,1.0
45.36,1165.0,1.0,1.0,1.0
45.37,1187.48,1.0,1.0,1.0
45.38,1245.97,1.0,1.0,1.0
45.39,1255.48,1.0,1.0,1.0
45.4,1431.48,1.0,1.0,1.0
45.41,1486.03,1.0,1.0,1.0
45.42,1484.52,1.0,1.0,1.0
45.43,1608.47,1.0,1.0,1.0
45.44,1642.01,1.0,1.0,1.0
45.45,1649.47,1.0,1.0,1.0
45.46,1774.47,1.0,1.0,1.0
45.47,1931.98,1.0,1.0,1.0
45.48,1926.98,1.0,1.0,1.0
45.49,1992.54,1.0,1.0,1.0
45.5,2059.52,1.0,1.0,1.0
45.51,2116.49,1.0,1.0,1.0
45.52,2163.92,1.0,1.0,1.0
45.53,2277.52,1.0,1.0,1.0
45.54,2382.51,1.0,1.0,1.0
45.55,2465.96,1.0,1.0,1.0
45.56,2583.09,1.0,1.0,1.0
45.57,2568.92,1.0,1.0,1.0
45.58,2738.439,1.0,1.0,1.0
45.59,2728.06,1.0,1.0,1.0
45.6,2843.51,1.0,1.0,1.0
45.61,2971.42,1.0,1.0,1.0
45.62,2930.02,1.0,1.0,1.0
45.63,3141.92,1.0,1.0,1.0
45.64,3239.13,1.0,1.0,1.0
45.65,3105.46,1.0,1.0,1.0
45.66,3394.96,1.0,1.0,1.0
45.67,3317.48,1.0,1.0,1.0
45.68,3400.52,1.0,1.0,1.0
45.69,3490.561,1.0,1.0,1.0
45.7,3626.93,1.0,1.0,1.0
45.71,3680.41,1.0,1.0,1.0
45.72,3703.07,1.0,1.0,1.0
45.73,3720.47,1.0,1.0,1.0
45.74,3756.48,1.0,1.0,1.0
45.75,3903.04,1.0,1.0,1.0
45.76,3984.48,1.0,1.0,1.0
45.77,4049.92,1.0,1.0,1.0
45.78,4092.52,1.0,1.0,1.0
45.79,4153.561,1.0,1.0,1.0
45.8,4087.06,1.0,1.0,1.0
45.81,4297.37,1.0,1.0,1.0
45.82,4263.55,1.0,1.0,1.0
45.83,4272.96,1.0,1.0,1.0
45.84,4266.09,1.0,1.0,1.0
45.85,4229.49,1.0,1.0,1.0
45.86,4426.45,1.0,1.0,1.0
45.87,4397.94,1.0,1.0,1.0
45.88,4513.561,1.0,1.0,1.0
45.89,4480.97,1.0,1.0,1.0
45.9,4641.0,1.0,1.0,1.0
45.91,4586.45,1.0,1.0,1.0
45.92,4497.48,1.0,1.0,1.0
45.93,4556.53,1.0,1.0,1.0
45.94,4600.54,1.0,1.0,1.0
45.95,4533.46,1.0,1.0,1.0
45.96,4728.97,1.0,1.0,1.0
45.97,4586.03,1.0,1.0,1.0
45.98,4570.439,1.0,1.0,1.0
45.99,4601.04,1.0,1.0,1.0
46.0,4664.11,1.0,1.0,1.0
46.01,4645.91,1.0,1.0,1.0
46.02,4597.561,1.0,1.0,1.0
46.03,4506.37,1.0,1.0,1.0
46.04,4586.71,1.0,1.0,1.0
46.05,4452.83,1.0,1.0,1.0
46.06,4573.09,1.0,1.0,1.0
46.07,4529.02,1.0,1.0,1.0
46.08,4416.0,1.0,1.0,1.0
46.09,4323.51,1.0,1.0,1.0
46.1,4506.43,1.0,1.0,1.0
46.11,4289.57,1.0,1.0,1.0
46.12,4322.46,1.0,1.0,1.0
46.13,4378.46,1.0,1.0,1.0
46.14,4246.57,1.0,1.0,1.0
46.15,4219.47,1.0,1.0,1.0
46.16,4231.98,1.0,1.0,1.0
46.17,4009.04,1.0,1.0,1.0
46.18,3933.53,1.0,1.0,1.0
46.19,3947.49,1.0,1.0,1.0
46.2,3862.46,1.0,1.0,1.0
46.21,3775.62,1.0,1.0,1.0
46.22,3727.43,1.0,1.0,1.0
46.23,3774.52,1.0,1.0,1.0
46.24,3581.55,1.0,1.0,1.0
46.25,3529.46,1.0,1.0,1.0
46.26,3401.96,1.0,1.0,1.0
46.27,3350.09,1.0,1.0,1.0
46.28,3255.96,1.0,1.0,1.0
46.29,3119.58,1.0,1.0,1.0
46.3,3121.91,1.0,1.0,1.0
46.31,3098.02,1.0,1.0,1.0
46.32,3066.0,1.0,1.0,1.0
46.33,3012.02,1.0,1.0,1.0
46.34,2857.49,1.0,1.0,1.0
46.35,2684.57,1.0,1.0,1.0
46.36,2697.54,1.0,1.0,1.0
46.37,2666.99,1.0,1.0,1.0
46.38,2453.46,1.0,1.0,1.0
46.39,2561.06,1.0,1.0,1.0
46.4,2295.47,1.0,1.0,1.0
46.41,2224.08,1.0,1.0,1.0
46.42,2192.98,1.0,1.0,1.0
46.43,2073.51,1.0,1.0,1.0
46.44,2046.48,1.0,1.0,1.0
46.45,1966.51,1.0,1.0,1.0
46.46,1932.49,1.0,1.0,1.0
46.47,1818.99,1.0,1.0,1.0
46.48,1750.53,1.0,1.0,1.0
46.49,1601.53,1.0,1.0,1.0
46.5,1556.52,1.0,1.0,1.0
46.51,1446.52,1.0,1.0,1.0
46.52,1383.96,1.0,1.0,1.0
46.53,1330.54,1.0,1.0,1.0
46.54,1181.03,1.0,1.0,1.0
46.55,1216.98,1.0,1.0,1.0
46.56,1117.56,1.0,1.0,1.0
46.57,1128.45,1.0,1.0,1.0
46.58,951.0667,1.0,1.0,1.0
46.59,942.9556,1.0,1.0,1.0
46.6,927.5389,1.0,1.0,1.0
46.61,846.9889,1.0,1.0,1.0
46.62,751.5278,1.0,1.0,1.0
46.63,670.0,1.0,1.0,1.0
46.64,654.4722,1.0,1.0,1.0
46.65,645.9889,1.0,1.0,1.0
46.66,565.0333,1.0,1.0,1.0
46.67,537.5278,1.0,1.0,1.0
46.68,514.4611,1.0,1.0,1.0
46.69,474.4944,1.0,1.0,1.0
46.7,363.5389,1.0,1.0,1.0
46.71,423.5056,1.0,1.0,1.0
46.72,390.5056,1.0,1.0,1.0
46.73,335.9889,1.0,1.0,1.0
46.74,320.5056,1.0,1.0,1.0
46.75,260.4944,1.0,1.0,1.0
46.76,262.0,1.0,1.0,1.0
46.77,234.0111,1.0,1.0,1.0
46.78,236.4944,1.0,1.0,1.0
46.79,193.4944,1.0,1.0,1.0
46.8,178.5167,1.0,1.0,1.0
46.81,166.0111,1.0,1.0,1.0
46.82,147.4944,1.0,1.0,1.0
46.83,171.5056,1.0,1.0,1.0
46.84,165.4833,1.0,1.0,1.0
46.85,167.0,1.0,1.0,1.0
46.86,159.0,1.0,1.0,1.0
46.87,162.5056,1.0,1.0,1.0
46.88,138.4944,1.0,1.0,1.0
46.89,153.0222,1.0,1.0,1.0
46.9,161.9889,1.0,1.0,1.0
46.91,154.5056,1.0,1.0,1.0
46.92,173.4944,1.0,1.0,1.0
46.93,143.4722,1.0,1.0,1.0
46.94,209.5167,1.0,1.0,1.0
46.95,223.9889,1.0,1.0,1.0
46.96,219.0333,1.0,1.0,1.0
46.97,206.4833,1.0,1.0,1.0
46.98,234.4833,1.0,1.0,1.0
46.99,237.5167,1.0,1.0,1.0
47.0,304.9778,1.0,1.0,1.0
47.01,321.5056,1.0,1.0,1.0
47.02,309.0,1.0,1.0,1.0
47.03,354.5056,1.0,1.0,1.0
47.04,360.5056,1.0,1.0,1.0
47.05,392.4722,1.0,1.0,1.0
47.06,385.0111,1.0,1.0,1.0
47.07,448.9667,1.0,1.0,1.0
47.08,429.0,1.0,1.0,1.0
47.09,471.5167,1.0,1.0,1.0
47.1,505.4944,1.0,1.0,1.0
47.11,501.5167,1.0,1.0,1.0
47.12,502.4722,1.0,1.0,1.0
47.13,547.5389,1.0,1.0,1.0
47.14,590.4722,1.0,1.0,1.0
47.15,574.0,1.0,1.0,1.0
47.16,575.5056,1.0,1.0,1.0
47.17,632.4944,1.0,1.0,1.0
47.18,639.9667,1.0,1.0,1.0
47.19,704.9889,1.0,1.0,1.0
47.2,685.0111,1.0,1.0,1.0
47.21,706.0333,1.0,1.0,1.0
47.22,729.9778,1.0,1.0,1.0
47.23,749.9778,1.0,1.0,1.0
47.24,760.4611,1.0,1.0,1.0
47.25,836.0222,1.0,1.0,1.0
47.26,845.4944,1.0,1.0,1.0
47.27,884.5389,1.0,1.0,1.0
47.28,870.4722,1.0,1.0,1.0
47.29,909.5389,1.0,1.0,1.0
47.3,941.9667,1.0,1.0,1.0
47.31,945.5167,1.0,1.0,1.0
47.32,896.4611,1.0,1.0,1.0
47.33,913.0,1.0,1.0,1.0
47.34,1004.54,1.0,1.0,1.0
47.35,945.4944,1.0,1.0,1.0
47.36,1009.01,1.0,1.0,1.0
47.37,964.0222,1.0,1.0,1.0
47.38,1006.98,1.0,1.0,1.0
47.39,945.4833,1.0,1.0,1.0
47.4,991.5056,1.0,1.0,1.0
47.41,1029.97,1.0,1.0,1.0
47.42,989.0333,1.0,1.0,1.0
47.43,988.5167,1.0,1.0,1.0
47.44,964.9778,1.0,1.0,1.0
47.45,1061.49,1.0,1.0,1.0
47.46,1020.02,1.0,1.0,1.0
47.47,1071.93,1.0,1.0,1.0
47.48,1081.01,1.0,1.0,1.0
47.49,1072.04,1.0,1.0,1.0
47.5,1099.51,1.0,1.0,1.0
47.51,1047.45,1.0,1.0,1.0
47.52,1125.47,1.0,1.0,1.0
47.53,1196.04,1.0,1.0,1.0
47.54,1103.49,1.0,1.0,1.0
47.55,1147.03,1.0,1.0,1.0
47.56,1226.51,1.0,1.0,1.0
47.57,1193.51,1.0,1.0,1.0
47.58,1189.98,1.0,1.0,1.0
47.59,1229.94,1.0,1.0,1.0
47.6,1269.49,1.0,1.0,1.0
47.61,1307.54,1.0,1.0,1.0
47.62,1367.47,1.0,1.0,1.0
47.63,1331.03,1.0,1.0,1.0
47.64,1398.43,1.0,1.0,1.0
47.65,1422.0,1.0,1.0,1.0
47.66,1519.06,1.0,1.0,1.0
47.67,1526.46,1.0,1.0,1.0
47.68,1669.53,1.0,1.0,1.0
47.69,1797.94,1.0,1.0,1.0
47.7,1870.53,1.0,1.0,1.0
47.71,1935.41,1.0,1.0,1.0
47.72,2051.03,1.0,1.0,1.0
47.73,2173.07,1.0,1.0,1.0
47.74,2302.89,1.0,1.0,1.0
47.75,2551.41,1.0,1.0,1.0
47.76,2782.58,1.0,1.0,1.0
47.77,3067.94,1.0,1.0,1.0
47.78,3412.98,1.0,1.0,1.0
47.79,3878.98,1.0,1.0,1.0
47.8,4296.88,1.0,1.0,1.0
47.81,4830.03,1.0,1.0,1.0
47.82,5562.82,1.0,1.0,1.0
47.83,6527.811,1.0,1.0,1.0
47.84,7728.93,1.0,1.0,1.0
47.85,9479.23,1.0,1.0,1.0
47.86,11953.3,1.0,1.0,1.0
47.87,15479.7,1.0,1.0,1.0
47.88,20933.5,1.0,1.0,1.0
47.89,30164.7,1.0,1.0,1.0
47.9,46472,1.0,1.0,1.0
47.91,73319.2,1.0,1.0,1.0
47.92,124588,1.0,1.0,1.0
47.93,246781,1.0,1.0,1.0
47.94,797978,1.0,1.0,1.0
47.95,1913390.25,1.0,1.0,1.0
47.96,2993079.0,1.0,1.0,1.0
47.97,8081479.5,1.0,1.0,1.0
47.98,14760429.0,1.0,1.0,1.0
47.99,9042081.0,1.0,1.0,1.0
48.0,2270837.25,1.0,1.0,1.0
48.01,544664,1.0,1.0,1.0
48.02,269417,1.0,1.0,1.0
48.03,155430,1.0,1.0,1.0
48.04,95244.7,1.0,1.0,1.0
48.05,59564.1,1.0,1.0,1.0
48.06,37981.5,1.0,1.0,1.0
48.07,26718.416,1.0,1.0,1.0
48.08,19396.6,1.0,1.0,1.0
48.09,14473.5,1.0,1.0,1.0
48.1,10828.4,1.0,1.0,1.0
48.11,8398.62,1.0,1.0,1.0
48.12,6781.24,1.0,1.0,1.0
48.13,5460.12,1.0,1.0,1.0
48.14,4579.55,1.0,1.0,1.0
48.15,3970.53,1.0,1.0,1.0
48.16,3273.65,1.0,1.0,1.0
48.17,2870.89,1.0,1.0,1.0
48.18,2506.14,1.0,1.0,1.0
48.19,2277.03,1.0,1.0,1.0
48.2,1873.53,1.0,1.0,1.0
48.21,1681.54,1.0,1.0,1.0
48.22,1434.0,1.0,1.0,1.0
48.23,1326.09,1.0,1.0,1.0
48.24,1172.47,1.0,1.0,1.0
48.25,1101.51,1.0,1.0,1.0
48.26,992.9889,1.0,1.0,1.0
48.27,899.9667,1.0,1.0,1.0
48.28,818.0444,1.0,1.0,1.0
48.29,783.0222,1.0,1.0,1.0
48.3,683.4722,1.0,1.0,1.0
48.31,575.0333,1.0,1.0,1.0
48.32,558.0,1.0,1.0,1.0
48.33,552.5389,1.0,1.0,1.0
48.34,496.9667,1.0,1.0,1.0
48.35,478.5167,1.0,1.0,1.0
48.36,442.0,1.0,1.0,1.0
48.37,393.0111,1.0,1.0,1.0
48.38,376.9667,1.0,1.0,1.0
48.39,381.5278,1.0,1.0,1.0
48.4,334.0111,1.0,1.0,1.0
48.41,326.4833,1.0,1.0,1.0
48.42,309.5278,1.0,1.0,1.0
48.43,291.4833,1.0,1.0,1.0
48.44,290.0,1.0,1.0,1.0
48.45,278.0333,1.0,1.0,1.0
48.46,266.9889,1.0,1.0,1.0
48.47,260.4944,1.0,1.0,1.0
48.48,273.5056,1.0,1.0,1.0
48.49,246.0,1.0,1.0,1.0
48.5,219.9667,1.0,1.0,1.0
48.51,226.0444,1.0,1.0,1.0
48.52,187.9778,1.0,1.0,1.0
48.53,203.5056,1.0,1.0,1.0
48.54,203.9889,1.0,1.0,1.0
48.55,199.0111,1.0,1.0,1.0
48.56,205.4944,1.0,1.0,1.0
48.57,176.0,1.0,1.0,1.0
48.58,156.0111,1.0,1.0,1.0
48.59,191.0,1.0,1.0,1.0
48.6,193.0111,1.0,1.0,1.0
48.61,164.0,1.0,1.0,1.0
48.62,189.4833,1.0,1.0,1.0
48.63,159.5056,1.0,1.0,1.0
48.64,169.4944,1.0,1.0,1.0
48.65,145.0,1.0,1.0,1.0
48.66,179.4944,1.0,1.0,1.0
48.67,173.0111,1.0,1.0,1.0
48.68,146.9889,1.0,1.0,1.0
48.69,130.0,1.0,1.0,1.0
48.7,175.9889,1.0,1.0,1.0
48.71,171.4944,1.0,1.0,1.0
48.72,150.5278,1.0,1.0,1.0
48.73,134.0,1.0,1.0,1.0
48.74,149.0111,1.0,1.0,1.0
48.75,135.5056,1.0,1.0,1.0
48.76,135.9889,1.0,1.0,1.0
48.77,138.4944,1.0,1.0,1.0
48.78,149.5056,1.0,1.0,1.0
48.79,105.0,1.0,1.0,1.0
48.8,107.5056,1.0,1.0,1.0
48.81,123.4833,1.0,1.0,1.0
48.82,126.0222,1.0,1.0,1.0
48.83,88.0,1.0,1.0,1.0
48.84,118.4833,1.0,1.0,1.0
48.85,108.0111,1.0,1.0,1.0
48.86,112.5056,1.0,1.0,1.0
48.87,112.4833,1.0,1.0,1.0
48.88,103.5056,1.0,1.0,1.0
48.89,103.9889,1.0,1.0,1.0
48.9,95.0111,1.0,1.0,1.0
48.91,114.0111,1.0,1.0,1.0
48.92,87.4722,1.0,1.0,1.0
48.93,81.0222,1.0,1.0,1.0
48.94,68.0,1.0,1.0,1.0
48.95,87.4944,1.0,1.0,1.0
48.96,63.0111,1.0,1.0,1.0
48.97,73.9889,1.0,1.0,1.0
48.98,77.5056,1.0,1.0,1.0
48.99,75.0,1.0,1.0,1.0
49.0,60.0,1.0,1.0,1.0
49.01,63.4833,1.0,1.0,1.0
49.02,54.5056,1.0,1.0,1.0
49.03,61.0,1.0,1.0,1.0
49.04,54.5056,1.0,1.0,1.0
49.05,46.0,1.0,1.0,1.0
49.06,51.0,1.0,1.0,1.0
49.07,60.5056,1.0,1.0,1.0
49.08,40.4944,1.0,1.0,1.0
49.09,46.5056,1.0,1.0,1.0
49.1,18.0,1.0,1.0,1.0
49.11,50.0,1.0,1.0,1.0
49.12,28.4944,1.0,1.0,1.0
49.13,38.0111,1.0,1.0,1.0
49.14,37.0,1.0,1.0,1.0
49.15,22.9889,1.0,1.0,1.0
49.16,17.5056,1.0,1.0,1.0
49.17,30.0,1.0,1.0,1.0
49.18,31.5056,1.0,1.0,1.0
49.19,24.0,1.0,1.0,1.0
49.2,23.0,1.0,1.0,1.0
49.21,34.0,1.0,1.0,1.0
49.22,28.4944,1.0,1.0,1.0
49.23,21.0,1.0,1.0,1.0
49.24,24.0,1.0,1.0,1.0
49.25,12.5056,1.0,1.0,1.0
49.26,18.0,1.0,1.0,1.0
49.27,18.0,1.0,1.0,1.0
49.28,18.0,1.0,1.0,1.0
49.29,20.9889,1.0,1.0,1.0
49.3,15.0111,1.0,1.0,1.0
49.31,9.0,1.0,1.0,1.0
49.32,23.0,1.0,1.0,1.0
49.33,8.0,1.0,1.0,1.0
49.34,8.0,1.0,1.0,1.0
49.35,20.0,1.0,1.0,1.0
49.36,18.0,1.0,1.0,1.0
49.37,17.0,1.0,1.0,1.0
49.38,17.0,1.0,1.0,1.0
49.39,17.4944,1.0,1.0,1.0
49.4,25.0,1.0,1.0,1.0
49.41,16.5056,1.0,1.0,1.0
49.42,29.0,1.0,1.0,1.0
49.43,30.0,1.0,1.0,1.0
49.44,28.9889,1.0,1.0,1.0
49.45,20.5056,1.0,1.0,1.0
49.46,25.5056,1.0,1.0,1.0
49.47,20.4944,1.0,1.0,1.0
49.48,19.0,1.0,1.0,1.0
49.49,64.4944,1.0,1.0,1.0
49.5,18.0111,1.0,1.0,1.0
49.51,24.4944,1.0,1.0,1.0
49.52,26.4944,1.0,1.0,1.0
49.53,19.0111,1.0,1.0,1.0
49.54,23.0,1.0,1.0,1.0
49.55,15.4944,1.0,1.0,1.0
49.56,19.5056,1.0,1.0,1.0
49.57,20.0,1.0,1.0,1.0
49.58,35.4944,1.0,1.0,1.0
49.59,38.0,1.0,1.0,1.0
49.6,25.0,1.0,1.0,1.0
49.61,27.5056,1.0,1.0,1.0
49.62,23.0,1.0,1.0,1.0
49.63,22.0,1.0,1.0,1.0
49.64,37.0,1.0,1.0,1.0
49.65,18.0,1.0,1.0,1.0
49.66,19.4944,1.0,1.0,1.0
49.67,34.5056,1.0,1.0,1.0
49.68,33.0,1.0,1.0,1.0
49.69,16.0,1.0,1.0,1.0
49.7,27.0,1.0,1.0,1.0
49.71,21.0,1.0,1.0,1.0
49.72,13.0,1.0,1.0,1.0
49.73,39.0,1.0,1.0,1.0
49.74,18.0,1.0,1.0,1.0
49.75,21.0,1.0,1.0,1.0
49.76,20.4944,1.0,1.0,1.0
49.77,24.5056,1.0,1.0,1.0
49.78,27.0,1.0,1.0,1.0
49.79,18.4944,1.0,1.0,1.0
49.8,7.0,1.0,1.0,1.0
49.81,24.5056,1.0,1.0,1.0
49.82,13.0,1.0,1.0,1.0
49.83,13.9889,1.0,1.0,1.0
49.84,29.0111,1.0,1.0,1.0
49.85,19.0,1.0,1.0,1.0
49.86,21.0,1.0,1.0,1.0
49.87,21.0,1.0,1.0,1.0
49.88,18.4944,1.0,1.0,1.0
49.89,13.5056,1.0,1.0,1.0
49.9,17.4944,1.0,1.0,1.0
49.91,21.5056,1.0,1.0,1.0
49.92,9.0,1.0,1.0,1.0
49.93,19.0,1.0,1.0,1.0
49.94,21.4944,1.0,1.0,1.0
49.95,19.0,1.0,1.0,1.0
49.96,22.4944,1.0,1.0,1.0
49.97,20.0111,1.0,1.0,1.0
49.98,70.4944,1.0,1.0,1.0
49.99,24.5056,1.0,1.0,1.0
50.0,22.0,1.0,1.0,1.0
50.01,25.0,1.0,1.0,1.0
50.02,17.0,1.0,1.0,1.0
50.03,7.0,1.0,1.0,1.0
50.04,11.0,1.0,1.0,1.0
50.05,18.0,1.0,1.0,1.0
50.06,15.0,1.0,1.0,1.0
50.07,16.0,1.0,1.0,1.0
50.08,9.0,1.0,1.0,1.0
50.09,12.4944,1.0,1.0,1.0
50.1,10.5056,1.0,1.0,1.0
50.11,15.0,1.0,1.0,1.0
50.12,7.0,1.0,1.0,1.0
50.13,6.0,1.0,1.0,1.0
50.14,8.0,1.0,1.0,1.0
50.15,7.4944,1.0,1.0,1.0
50.16,12.5056,1.0,1.0,1.0
50.17,7.0,1.0,1.0,1.0
50.18,17.0,1.0,1.0,1.0
50.19,7.0,1.0,1.0,1.0
50.2,9.0,1.0,1.0,1.0
50.21,14.0,1.0,1.0,1.0
50.22,12.0,1.0,1.0,1.0
50.23,9.0,1.0,1.0,1.0
50.24,8.4944,1.0,1.0,1.0
50.25,12.4944,1.0,1.0,1.0
50.26,4.0111,1.0,1.0,1.0
50.27,4.0,1.0,1.0,1.0
50.28,6.0,1.0,1.0,1.0
50.29,16.0,1.0,1.0,1.0
50.3,13.0,1.0,1.0,1.0
50.31,13.0,1.0,1.0,1.0
50.32,1.0,1.0,1.0,1.0
50.33,11.0,1.0,1.0,1.0
50.34,8.0,1.0,1.0,1.0
50.35,12.0,1.0,1.0,1.0
50.36,13.0,1.0,1.0,1.0
50.37,10.0,1.0,1.0,1.0
50.38,6.0,1.0,1.0,1.0
50.39,10.0,1.0,1.0,1.0
50.4,3.0,1.0,1.0,1.0
50.41,13.4944,1.0,1.0,1.0
50.42,2.5056,1.0,1.0,1.0
50.43,13.0,1.0,1.0,1.0
50.44,15.0,1.0,1.0,1.0
50.45,15.0,1.0,1.0,1.0
50.46,13.0,1.0,1.0,1.0
50.47,13.0,1.0,1.0,1.0
50.48,25.0,1.0,1.0,1.0
50.49,12.4833,1.0,1.0,1.0
50.5,48.5167,1.0,1.0,1.0
50.51,12.0,1.0,1.0,1.0
50.52,14.0,1.0,1.0,1.0
50.53,15.0,1.0,1.0,1.0
50.54,11.0,1.0,1.0,1.0
50.55,11.0,1.0,1.0,1.0
50.56,10.4944,1.0,1.0,1.0
50.57,17.5056,1.0,1.0,1.0
50.58,21.9889,1.0,1.0,1.0
50.59,10.0111,1.0,1.0,1.0
50.6,20.0,1.0,1.0,1.0
50.61,12.0,1.0,1.0,1.0
50.62,15.4944,1.0,1.0,1.0
50.63,8.5056,1.0,1.0,1.0
50.64,23.4944,1.0,1.0,1.0
50.65,20.5056,1.0,1.0,1.0
50.66,14.0,1.0,1.0,1.0
50.67,14.0,1.0,1.0,1.0
50.68,13.4944,1.0,1.0,1.0
50.69,18.5056,1.0,1.0,1.0
50.7,18.0,1.0,1.0,1.0
50.71,14.0,1.0,1.0,1.0
50.72,16.4944,1.0,1.0,1.0
50.73,13.5056,1.0,1.0,1.0
50.74,4.4944,1.0,1.0,1.0
50.75,19.0,1.0,1.0,1.0
50.76,12.5056,1.0,1.0,1.0
50.77,10.0,1.0,1.0,1.0
50.78,9.0,1.0,1.0,1.0
50.79,25.4944,1.0,1.0,1.0
50.8,13.5056,1.0,1.0,1.0
50.81,17.0,1.0,1.0,1.0
50.82,10.4944,1.0,1.0,1.0
50.83,4.5056,1.0,1.0,1.0
50.84,8.0,1.0,1.0,1.0
50.85,2.4944,1.0,1.0,1.0
50.86,4.5056,1.0,1.0,1.0
50.87,8.0,1.0,1.0,1.0
50.88,9.0,1.0,1.0,1.0
50.89,7.0,1.0,1.0,1.0
50.9,13.0,1.0,1.0,1.0
50.91,20.0,1.0,1.0,1.0
50.92,11.4944,1.0,1.0,1.0
50.93,10.5056,1.0,1.0,1.0
50.94,12.0,1.0,1.0,1.0
50.95,17.4944,1.0,1.0,1.0
50.96,11.0,1.0,1.0,1.0
50.97,11.0,1.0,1.0,1.0
50.98,14.5056,1.0,1.0,1.0
50.99,6.4944,1.0,1.0,1.0
51.0,6.5056,1.0,1.0,1.0
51.01,4.0,1.0,1.0,1.0
51.02,10.0,1.0,1.0,1.0
51.03,3.0,1.0,1.0,1.0
51.04,10.0,1.0,1.0,1.0
51.05,9.0,1.0,1.0,1.0
51.06,2.0,1.0,1.0,1.0
51.07,14.0,1.0,1.0,1.0
51.08,16.0,1.0,1.0,1.0
51.09,11.0,1.0,1.0,1.0
51.1,9.0,1.0,1.0,1.0
51.11,12.4944,1.0,1.0,1.0
51.12,10.5056,1.0,1.0,1.0
51.13,7.0,1.0,1.0,1.0
51.14,13.0,1.0,1.0,1.0
51.15,11.9889,1.0,1.0,1.0
51.16,6.0111,1.0,1.0,1.0
51.17,5.0,1.0,1.0,1.0
51.18,12.0,1.0,1.0,1.0
51.19,2.0,1.0,1.0,1.0
51.2,4.0,1.0,1.0,1.0
51.21,7.0,1.0,1.0,1.0
51.22,11.0,1.0,1.0,1.0
51.23,3.0,1.0,1.0,1.0
51.24,9.0,1.0,1.0,1.0
51.25,7.0,1.0,1.0,1.0
51.26,10.0,1.0,1.0,1.0
51.27,10.0,1.0,1.0,1.0
51.28,8.0,1.0,1.0,1.0
51.29,14.4944,1.0,1.0,1.0
51.3,18.4944,1.0,1.0,1.0
51.31,10.5056,1.0,1.0,1.0
51.32,7.5056,1.0,1.0,1.0
51.33,10.0,1.0,1.0,1.0
51.34,6.0,1.0,1.0,1.0
51.35,13.0,1.0,1.0,1.0
51.36,14.0,1.0,1.0,1.0
51.37,4.0,1.0,1.0,1.0
51.38,14.9889,1.0,1.0,1.0
51.39,14.5056,1.0,1.0,1.0
51.4,15.5056,1.0,1.0,1.0
51.41,11.0,1.0,1.0,1.0
51.42,8.0,1.0,1.0,1.0
51.43,5.0,1.0,1.0,1.0
51.44,19.0,1.0,1.0,1.0
51.45,14.0,1.0,1.0,1.0
51.46,5.0,1.0,1.0,1.0
51.47,2.0,1.0,1.0,1.0
51.48,7.0,1.0,1.0,1.0
51.49,2.0,1.0,1.0,1.0
51.5,14.0,1.0,1.0,1.0
51.51,3.0,1.0,1.0,1.0
51.52,4.0,1.0,1.0,1.0
51.53,14.0,1.0,1.0,1.0
51.54,6.0,1.0,1.0,1.0
51.55,12.0,1.0,1.0,1.0
51.56,4.0,1.0,1.0,1.0
51.57,14.0,1.0,1.0,1.0
51.58,21.4944,1.0,1.0,1.0
51.59,8.5056,1.0,1.0,1.0
51.6,3.0,1.0,1.0,1.0
51.61,12.0,1.0,1.0,1.0
51.62,15.0,1.0,1.0,1.0
51.63,4.0,1.0,1.0,1.0
51.64,3.0,1.0,1.0,1.0
51.65,11.0,1.0,1.0,1.0
51.66,9.0,1.0,1.0,1.0
51.67,12.0,1.0,1.0,1.0
51.68,6.0,1.0,1.0,1.0
51.69,9.0,1.0,1.0,1.0
51.7,17.0,1.0,1.0,1.0
51.71,6.4944,1.0,1.0,1.0
51.72,23.5056,1.0,1.0,1.0
51.73,2.0,1.0,1.0,1.0
51.74,6.0,1.0,1.0,1.0
51.75,9.0,1.0,1.0,1.0
51.76,8.0,1.0,1.0,1.0
51.77,15.4944,1.0,1.0,1.0
51.78,14.5056,1.0,1.0,1.0
51.79,8.0,1.0,1.0,1.0
51.8,11.0,1.0,1.0,1.0
51.81,5.0,1.0,1.0,1.0
51.82,11.4944,1.0,1.0,1.0
51.83,13.5056,1.0,1.0,1.0
51.84,17.0,1.0,1.0,1.0
51.85,9.0,1.0,1.0,1.0
51.86,17.4944,1.0,1.0,1.0
51.87,13.5056,1.0,1.0,1.0
51.88,14.0,1.0,1.0,1.0
51.89,6.0,1.0,1.0,1.0
51.9,14.0,1.0,1.0,1.0
51.91,8.0,1.0,1.0,1.0
51.92,8.0,1.0,1.0,1.0
51.93,13.0,1.0,1.0,1.0
51.94,10.0,1.0,1.0,1.0
51.95,6.0,1.0,1.0,1.0
51.96,12.0,1.0,1.0,1.0
51.97,6.0,1.0,1.0,1.0
51.98,22.0,1.0,1.0,1.0
51.99,18.0,1.0,1.0,1.0
52.0,9.4944,1.0,1.0,1.0
0.4,845353,1.0,1.0,1.0
0.41,881113,1.0,1.0,1.0
0.42,913112,1.0,1.0,1.0
0.43,943813.5,1.0,1.0,1.0
0.44,971042,1.0,1.0,1.0
0.45,995856.0,1.0,1.0,1.0
0.46,1017605.5,1.0,1.0,1.0
0.47,1035204.5,1.0,1.0,1.0
0.48,1054328.5,1.0,1.0,1.0
0.49,1065138.5,1.0,1.0,1.0
0.5,1071292.5,1.0,1.0,1.0
0.51,1076493.5,1.0,1.0,1.0
0.52,1077091.5,1.0,1.0,1.0
0.53,1074542.0,1.0,1.0,1.0
0.54,1069938.0,1.0,1.0,1.0
0.55,1064046.0,1.0,1.0,1.0
0.56,1056465.0,1.0,1.0,1.0
0.57,1043319.5,1.0,1.0,1.0
0.58,1028443.0,1.0,1.0,1.0
0.59,1009202.0,1.0,1.0,1.0
0.6,988334.0,1.0,1.0,1.0
0.61,963031.5,1.0,1.0,1.0
0.62,939002,1.0,1.0,1.0
0.63,908868.0,1.0,1.0,1.0
0.64,879772,1.0,1.0,1.0
0.65,847214,1.0,1.0,1.0
0.66,811636,1.0,1.0,1.0
0.67,776445,1.0,1.0,1.0
0.68,739222.0,1.0,1.0,1.0
0.69,703720,1.0,1.0,1.0
0.7,667535,1.0,1.0,1.0
0.71,628463,1.0,1.0,1.0
0.72,591796,1.0,1.0,1.0
0.73,554896,1.0,1.0,1.0
0.74,520062,1.0,1.0,1.0
0.75,485671,1.0,1.0,1.0
0.76,452086,1.0,1.0,1.0
0.77,419285,1.0,1.0,1.0
0.78,387585,1.0,1.0,1.0
0.79,358485,1.0,1.0,1.0
0.8,331159,1.0,1.0,1.0
0.81,304764,1.0,1.0,1.0
0.82,280371,1.0,1.0,1.0
0.83,258396,1.0,1.0,1.0
0.84,237975,1.0,1.0,1.0
0.85,218469,1.0,1.0,1.0
0.86,201420,1.0,1.0,1.0
0.87,185364,1.0,1.0,1.0
0.88,171033,1.0,1.0,1.0
0.89,158133,1.0,1.0,1.0
0.9,145476,1.0,1.0,1.0
0.91,134747,1.0,1.0,1.0
0.92,124908,1.0,1.0,1.0
0.93,114987,1.0,1.0,1.0
0.94,107301,1.0,1.0,1.0
0.95,100083,1.0,1.0,1.0
0.96,92693,1.0,1.0,1.0
0.97,86259.5,1.0,1.0,1.0
0.98,80142,1.0,1.0,1.0
0.99,74757,1.0,1.0,1.0
1.0,69417.5,1.0,1.0,1.0
1.01,65716.5,1.0,1.0,1.0
1.02,61414.5,1.0,1.0,1.0
1.03,57371.5,1.0,1.0,1.0
1.04,53607.5,1.0,1.0,1.0
1.05,50209.5,1.0,1.0,1.0
1.06,47420.0,1.0,1.0,1.0
1.07,44464,1.0,1.0,1.0
1.08,42251.5,1.0,1.0,1.0
1.09,39922.5,1.0,1.0,1.0
1.1,37852.0,1.0,1.0,1.0
1.11,36257,1.0,1.0,1.0
1.12,33894.5,1.0,1.0,1.0
1.13,32403,1.0,1.0,1.0
1.14,31060.0,1.0,1.0,1.0
1.15,30200.0,1.0,1.0,1.0
1.16,28969.502,1.0,1.0,1.0
1.17,27885.498,1.0,1.0,1.0
1.18,26923,1.0,1.0,1.0
1.19,25865,1.0,1.0,1.0
1.2,25210.5,1.0,1.0,1.0
1.21,24392,1.0,1.0,1.0
1.22,23460.502,1.0,1.0,1.0
1.23,22700.0,1.0,1.0,1.0
1.24,22325.5,1.0,1.0,1.0
1.25,21553.498,1.0,1.0,1.0
1.26,21144.502,1.0,1.0,1.0
1.27,20749.998,1.0,1.0,1.0
1.28,20049.002,1.0,1.0,1.0
1.29,19620.502,1.0,1.0,1.0
1.3,19225.498,1.0,1.0,1.0
1.31,18750.5,1.0,1.0,1.0
1.32,18350.0,1.0,1.0,1.0
1.33,18043.498,1.0,1.0,1.0
1.34,17417.002,1.0,1.0,1.0
1.35,17515.0,1.0,1.0,1.0
1.36,17112.002,1.0,1.0,1.0
1.37,16453.0,1.0,1.0,1.0
1.38,16162.002,1.0,1.0,1.0
1.39,15975.0,1.0,1.0,1.0
1.4,15491.001,1.0,1.0,1.0
1.41,15219.498,1.0,1.0,1.0
1.42,14958.002,1.0,1.0,1.0
1.43,14614.499,1.0,1.0,1.0
1.44,14232.002,1.0,1.0,1.0
1.45,13900.499,1.0,1.0,1.0
1.46,13375.499,1.0,1.0,1.0
1.47,13599.001,1.0,1.0,1.0
1.48,12904.0,1.0,1.0,1.0
1.49,12599.002,1.0,1.0,1.0
1.5,12349.999,1.0,1.0,1.0
1.51,12017.001,1.0,1.0,1.0
1.52,11681.501,1.0,1.0,1.0
1.53,11529.499,1.0,1.0,1.0
1.54,11092.002,1.0,1.0,1.0
1.55,10793.001,1.0,1.0,1.0
1.56,10668.5,1.0,1.0,1.0
1.57,10179.5,1.0,1.0,1.0
1.58,10117.998,1.0,1.0,1.0
1.59,10000.502,1.0,1.0,1.0
1.6,9330.5,1.0,1.0,1.0
1.61,9101.999,1.0,1.0,1.0
1.62,8843.502,1.0,1.0,1.0
1.63,8741.999,1.0,1.0,1.0
1.64,8260.501,1.0,1.0,1.0
1.65,8123.0,1.0,1.0,1.0
1.66,7896,1.0,1.0,1.0
1.67,7623,1.0,1.0,1.0
1.68,7458.001,1.0,1.0,1.0
1.69,7226.0,1.0,1.0,1.0
1.7,6956.5,1.0,1.0,1.0
1.71,6484.001,1.0,1.0,1.0
1.72,6403,1.0,1.0,1.0
1.73,6179,1.0,1.0,1.0
1.74,6113.001,1.0,1.0,1.0
1.75,5909,1.0,1.0,1.0
1.76,5664.501,1.0,1.0,1.0
1.77,5574.0,1.0,1.0,1.0
1.78,5265.5,1.0,1.0,1.0
1.79,5133.5,1.0,1.0,1.0
1.8,4846.5,1.0,1.0,1.0
1.81,4792,1.0,1.0,1.0
1.82,4763.5,1.0,1.0,1.0
1.83,4592.0,1.0,1.0,1.0
1.84,4410.5,1.0,1.0,1.0
1.85,4291.001,1.0,1.0,1.0
1.86,4331.5,1.0,1.0,1.0
1.87,4076.5,1.0,1.0,1.0
1.88,4054.0,1.0,1.0,1.0
1.89,3917.0,1.0,1.0,1.0
1.9,3762.0,1.0,1.0,1.0
1.91,3718.5,1.0,1.0,1.0
1.92,3769,1.0,1.0,1.0
1.93,3539.999,1.0,1.0,1.0
1.94,3512,1.0,1.0,1.0
1.95,3362,1.0,1.0,1.0
1.96,3292.5,1.0,1.0,1.0
1.97,3374,1.0,1.0,1.0
1.98,3264.5,1.0,1.0,1.0
1.99,3239,1.0,1.0,1.0
2.0,3258.5,1.0,1.0,1.0
2.01,3170,1.0,1.0,1.0
2.02,3139,1.0,1.0,1.0
2.03,3158.5,1.0,1.0,1.0
2.04,2929.501,1.0,1.0,1.0
2.05,2970.999,1.0,1.0,1.0
2.06,2870.501,1.0,1.0,1.0
2.07,2964.5,1.0,1.0,1.0
2.08,2952,1.0,1.0,1.0
2.09,2840.5,1.0,1.0,1.0
2.1,2913.5,1.0,1.0,1.0
2.11,2905.5,1.0,1.0,1.0
2.12,2800,1.0,1.0,1.0
2.13,2789.5,1.0,1.0,1.0
2.14,2726.5,1.0,1.0,1.0
2.15,2704.5,1.0,1.0,1.0
2.16,2637.499,1.0,1.0,1.0
2.17,2632,1.0,1.0,1.0
2.18,2589.5,1.0,1.0,1.0
2.19,2607.5,1.0,1.0,1.0
2.2,2661.5,1.0,1.0,1.0
2.21,2521.0,1.0,1.0,1.0
2.22,2523.5,1.0,1.0,1.0
2.23,2458.5,1.0,1.0,1.0
2.24,2558.0,1.0,1.0,1.0
2.25,2450.5,1.0,1.0,1.0
2.26,2457.0,1.0,1.0,1.0
2.27,2508.5,1.0,1.0,1.0
2.28,2313,1.0,1.0,1.0
2.29,2312.5,1.0,1.0,1.0
2.3,2185,1.0,1.0,1.0
2.31,2243,1.0,1.0,1.0
2.32,2230,1.0,1.0,1.0
2.33,2206,1.0,1.0,1.0
2.34,2172,1.0,1.0,1.0
2.35,2092.5,1.0,1.0,1.0
2.36,2087.999,1.0,1.0,1.0
2.37,2163,1.0,1.0,1.0
2.38,2112.5,1.0,1.0,1.0
2.39,1944,1.0,1.0,1.0
2.4,1951,1.0,1.0,1.0
2.41,1913.5,1.0,1.0,1.0
2.42,1801.0,1.0,1.0,1.0
2.43,1823,1.0,1.0,1.0
2.44,1830.5,1.0,1.0,1.0
2.45,1778,1.0,1.0,1.0
2.46,1690.5,1.0,1.0,1.0
2.47,1679,1.0,1.0,1.0
2.48,1689.5,1.0,1.0,1.0
2.49,1563,1.0,1.0,1.0
2.5,1529.5,1.0,1.0,1.0
2.51,1524.5,1.0,1.0,1.0
2.52,1473.5,1.0,1.0,1.0
2.53,1485.5,1.0,1.0,1.0
2.54,1424.5,1.0,1.0,1.0
2.55,1432,1.0,1.0,1.0
2.56,1375,1.0,1.0,1.0
2.57,1373.5,1.0,1.0,1.0
2.58,1312,1.0,1.0,1.0
2.59,1288,1.0,1.0,1.0
2.6,1251,1.0,1.0,1.0
2.61,1218.5,1.0,1.0,1.0
2.62,1237.5,1.0,1.0,1.0
2.63,1199.5,1.0,1.0,1.0
2.64,1193.5,1.0,1.0,1.0
2.65,1205,1.0,1.0,1.0
2.66,1135,1.0,1.0,1.0
2.67,1088,1.0,1.0,1.0
2.68,1115.5,1.0,1.0,1.0
2.69,1115,1.0,1.0,1.0
2.7,1091.5,1.0,1.0,1.0
2.71,1084.5,1.0,1.0,1.0
2.72,1019.5,1.0,1.0,1.0
2.73,1025,1.0,1.0,1.0
2.74,1090.5,1.0,1.0,1.0
2.75,1060.0,1.0,1.0,1.0
2.76,965.5004,1.0,1.0,1.0
2.77,981.0003,1.0,1.0,1.0
2.78,1046.5,1.0,1.0,1.0
2.79,998.0,1.0,1.0,1.0
2.8,938.9999,1.0,1.0,1.0
2.81,1018.5,1.0,1.0,1.0
2.82,943.0,1.0,1.0,1.0
2.83,929.0,1.0,1.0,1.0
2.84,956.5001,1.0,1.0,1.0
2.85,962.5001,1.0,1.0,1.0
2.86,903.0003,1.0,1.0,1.0
2.87,868.0,1.0,1.0,1.0
2.88,906.0001,1.0,1.0,1.0
2.89,859.9998,1.0,1.0,1.0
2.9,929.4999,1.0,1.0,1.0
2.91,970.5001,1.0,1.0,1.0
2.92,964.4999,1.0,1.0,1.0
2.93,925.5002,1.0,1.0,1.0
2.94,879.9999,1.0,1.0,1.0
2.95,849.4996,1.0,1.0,1.0
2.96,872.0002,1.0,1.0,1.0
2.97,864.0003,1.0,1.0,1.0
2.98,901.4998,1.0,1.0,1.0
2.99,871.5001,1.0,1.0,1.0
3.0,881.5002,1.0,1.0,1.0
3.01,818.4998,1.0,1.0,1.0
3.02,834.9999,1.0,1.0,1.0
3.03,849.9999,1.0,1.0,1.0
3.04,786.5002,1.0,1.0,1.0
3.05,825.0002,1.0,1.0,1.0
3.06,795.9998,1.0,1.0,1.0
3.07,825.0001,1.0,1.0,1.0
3.08,810.5004,1.0,1.0,1.0
3.09,827.4998,1.0,1.0,1.0
3.1,786.9999,1.0,1.0,1.0
3.11,778.0002,1.0,1.0,1.0
3.12,802.9997,1.0,1.0,1.0
3.13,768.4999,1.0,1.0,1.0
3.14,839.5002,1.0,1.0,1.0
3.15,798.9997,1.0,1.0,1.0
3.16,749.0003,1.0,1.0,1.0
3.17,782.4998,1.0,1.0,1.0
3.18,772.0002,1.0,1.0,1.0
3.19,773.4995,1.0,1.0,1.0
3.2,761.0002,1.0,1.0,1.0
3.21,757.5005,1.0,1.0,1.0
3.22,672.4998,1.0,1.0,1.0
3.23,640.0,1.0,1.0,1.0
3.24,721.4999,1.0,1.0,1.0
3.25,786.9996,1.0,1.0,1.0
3.26,750.0005,1.0,1.0,1.0
3.27,728.9999,1.0,1.0,1.0
3.28,629.4998,1.0,1.0,1.0
3.29,649.4999,1.0,1.0,1.0
3.3,739.5002,1.0,1.0,1.0
3.31,661.0002,1.0,1.0,1.0
3.32,661.9998,1.0,1.0,1.0
3.33,602.0004,1.0,1.0,1.0
3.34,647.9998,1.0,1.0,1.0
3.35,662.4996,1.0,1.0,1.0
3.36,612.0003,1.0,1.0,1.0
3.37,651.5002,1.0,1.0,1.0
3.38,643.4998,1.0,1.0,1.0
3.39,617.0001,1.0,1.0,1.0
3.4,562.0003,1.0,1.0,1.0
3.41,534.4995,1.0,1.0,1.0
3.42,582.0003,1.0,1.0,1.0
3.43,555.4999,1.0,1.0,1.0
3.44,588.4998,1.0,1.0,1.0
3.45,593.0,1.0,1.0,1.0
3.46,576.4998,1.0,1.0,1.0
3.47,563.9998,1.0,1.0,1.0
3.48,543.5001,1.0,1.0,1.0
3.49,559.5002,1.0,1.0,1.0
3.5,550.5002,1.0,1.0,1.0
3.51,548.9997,1.0,1.0,1.0
3.52,482.5002,1.0,1.0,1.0
3.53,515.4998,1.0,1.0,1.0
3.54,540.0003,1.0,1.0,1.0
3.55,546.9998,1.0,1.0,1.0
3.56,565.5002,1.0,1.0,1.0
3.57,453.0,1.0,1.0,1.0
3.58,531.4994,1.0,1.0,1.0
3.59,523.5004,1.0,1.0,1.0
3.6,434.5003,1.0,1.0,1.0
3.61,478.4999,1.0,1.0,1.0
3.62,514.5002,1.0,1.0,1.0
3.63,517.4996,1.0,1.0,1.0
3.64,516.0001,1.0,1.0,1.0
3.65,499.5001,1.0,1.0,1.0
3.66,499.4999,1.0,1.0,1.0
3.67,537.9999,1.0,1.0,1.0
3.68,522.5001,1.0,1.0,1.0
3.69,478.0001,1.0,1.0,1.0
3.7,551.0001,1.0,1.0,1.0
3.71,519.4998,1.0,1.0,1.0
3.72,506.5001,1.0,1.0,1.0
3.73,432.9999,1.0,1.0,1.0
3.74,510.0003,1.0,1.0,1.0
3.75,519.9997,1.0,1.0,1.0
3.76,507.0001,1.0,1.0,1.0
3.77,490.9998,1.0,1.0,1.0
3.78,523.4999,1.0,1.0,1.0
3.79,480.5003,1.0,1.0,1.0
3.8,473.5002,1.0,1.0,1.0
3.81,461.4998,1.0,1.0,1.0
3.82,477.0002,1.0,1.0,1.0
3.83,540.4999,1.0,1.0,1.0
3.84,463.4998,1.0,1.0,1.0
3.85,510.5001,1.0,1.0,1.0
3.86,478.0,1.0,1.0,1.0
3.87,469.4998,1.0,1.0,1.0
3.88,477.0002,1.0,1.0,1.0
3.89,506.5003,1.0,1.0,1.0
3.9,522.9995,1.0,1.0,1.0
3.91,502.0001,1.0,1.0,1.0
3.92,448.4998,1.0,1.0,1.0
3.93,522.0002,1.0,1.0,1.0
3.94,484.5002,1.0,1.0,1.0
3.95,502.9998,1.0,1.0,1.0
3.96,462.0,1.0,1.0,1.0
3.97,511.4999,1.0,1.0,1.0
3.98,474.0002,1.0,1.0,1.0
3.99,488.4998,1.0,1.0,1.0
4.0,456.0001,1.0,1.0,1.0
4.01,501.0001,1.0,1.0,1.0
4.02,468.4997,1.0,1.0,1.0
4.03,434.5002,1.0,1.0,1.0
4.04,466.9996,1.0,1.0,1.0
4.05,457.0004,1.0,1.0,1.0
4.06,435.9999,1.0,1.0,1.0
4.07,475.5001,1.0,1.0,1.0
4.08,472.0002,1.0,1.0,1.0
4.09,405.5003,1.0,1.0,1.0
4.1,408.4997,1.0,1.0,1.0
4.11,440.9997,1.0,1.0,1.0
4.12,428.0001,1.0,1.0,1.0
4.13,444.5001,1.0,1.0,1.0
4.14,433.5001,1.0,1.0,1.0
4.15,434.0002,1.0,1.0,1.0
4.16,358.9997,1.0,1.0,1.0
4.17,448.5001,1.0,1.0,1.0
4.18,463.0002,1.0,1.0,1.0
4.19,412.4998,1.0,1.0,1.0
4.2,434.9997,1.0,1.0,1.0
4.21,442.0006,1.0,1.0,1.0
4.22,420.9996,1.0,1.0,1.0
4.23,453.0001,1.0,1.0,1.0
4.24,444.9999,1.0,1.0,1.0
4.25,432.0001,1.0,1.0,1.0
4.26,434.4998,1.0,1.0,1.0
4.27,409.5001,1.0,1.0,1.0
4.28,436.0002,1.0,1.0,1.0
4.29,422.0,1.0,1.0,1.0
4.3,448.9998,1.0,1.0,1.0
4.31,451.4997,1.0,1.0,1.0
4.32,358.5005,1.0,1.0,1.0
4.33,404.4999,1.0,1.0,1.0
4.34,429.0,1.0,1.0,1.0
4.35,390.9998,1.0,1.0,1.0
4.36,423.5002,1.0,1.0,1.0
4.37,377.9998,1.0,1.0,1.0
4.38,426.5004,1.0,1.0,1.0
4.39,412.4999,1.0,1.0,1.0
4.4,431.4999,1.0,1.0,1.0
4.41,406.5001,1.0,1.0,1.0
4.42,383.4996,1.0,1.0,1.0
4.43,433.5001,1.0,1.0,1.0
4.44,379.0004,1.0,1.0,1.0
4.45,362.9999,1.0,1.0,1.0
4.46,425.0,1.0,1.0,1.0
4.47,365.4996,1.0,1.0,1.0
4.48,438.0003,1.0,1.0,1.0
4.49,384.9999,1.0,1.0,1.0
4.5,432.0002,1.0,1.0,1.0