File: XRD:XRR/SCO/22153_SCO(CL)/22153_SCO(CL)_XRD.csv
#twotheta, yobs, ycal, bkg, diff
42.0,7.0,1.0,1.0,1.0
42.01,4.0,1.0,1.0,1.0
42.02,7.0,1.0,1.0,1.0
42.03,8.0,1.0,1.0,1.0
42.04,14.0,1.0,1.0,1.0
42.05,11.4944,1.0,1.0,1.0
42.06,6.5056,1.0,1.0,1.0
42.07,9.0,1.0,1.0,1.0
42.08,8.0,1.0,1.0,1.0
42.09,6.0,1.0,1.0,1.0
42.1,8.0,1.0,1.0,1.0
42.11,6.0,1.0,1.0,1.0
42.12,11.0,1.0,1.0,1.0
42.13,13.0,1.0,1.0,1.0
42.14,11.0,1.0,1.0,1.0
42.15,13.0,1.0,1.0,1.0
42.16,7.0,1.0,1.0,1.0
42.17,13.0,1.0,1.0,1.0
42.18,12.0,1.0,1.0,1.0
42.19,5.0,1.0,1.0,1.0
42.2,0.0,1.0,1.0,1.0
42.21,16.0,1.0,1.0,1.0
42.22,11.0,1.0,1.0,1.0
42.23,13.0,1.0,1.0,1.0
42.24,12.4944,1.0,1.0,1.0
42.25,3.5056,1.0,1.0,1.0
42.26,4.0,1.0,1.0,1.0
42.27,8.4944,1.0,1.0,1.0
42.28,9.5056,1.0,1.0,1.0
42.29,5.0,1.0,1.0,1.0
42.3,4.0,1.0,1.0,1.0
42.31,5.0,1.0,1.0,1.0
42.32,5.0,1.0,1.0,1.0
42.33,4.0,1.0,1.0,1.0
42.34,4.0,1.0,1.0,1.0
42.35,2.0,1.0,1.0,1.0
42.36,16.0,1.0,1.0,1.0
42.37,8.0,1.0,1.0,1.0
42.38,7.4944,1.0,1.0,1.0
42.39,3.5056,1.0,1.0,1.0
42.4,10.0,1.0,1.0,1.0
42.41,7.0,1.0,1.0,1.0
42.42,10.0,1.0,1.0,1.0
42.43,6.0,1.0,1.0,1.0
42.44,3.0,1.0,1.0,1.0
42.45,11.0,1.0,1.0,1.0
42.46,5.4944,1.0,1.0,1.0
42.47,8.5056,1.0,1.0,1.0
42.48,5.0,1.0,1.0,1.0
42.49,8.4944,1.0,1.0,1.0
42.5,7.5056,1.0,1.0,1.0
42.51,13.0,1.0,1.0,1.0
42.52,6.0,1.0,1.0,1.0
42.53,17.0,1.0,1.0,1.0
42.54,12.0,1.0,1.0,1.0
42.55,0.0,1.0,1.0,1.0
42.56,2.4944,1.0,1.0,1.0
42.57,7.5056,1.0,1.0,1.0
42.58,4.0,1.0,1.0,1.0
42.59,4.0,1.0,1.0,1.0
42.6,9.0,1.0,1.0,1.0
42.61,8.4944,1.0,1.0,1.0
42.62,5.5056,1.0,1.0,1.0
42.63,13.0,1.0,1.0,1.0
42.64,11.0,1.0,1.0,1.0
42.65,9.0,1.0,1.0,1.0
42.66,6.0,1.0,1.0,1.0
42.67,5.0,1.0,1.0,1.0
42.68,9.0,1.0,1.0,1.0
42.69,14.0,1.0,1.0,1.0
42.7,5.4944,1.0,1.0,1.0
42.71,2.5056,1.0,1.0,1.0
42.72,7.0,1.0,1.0,1.0
42.73,4.0,1.0,1.0,1.0
42.74,12.0,1.0,1.0,1.0
42.75,11.0,1.0,1.0,1.0
42.76,12.4944,1.0,1.0,1.0
42.77,15.5056,1.0,1.0,1.0
42.78,0.0,1.0,1.0,1.0
42.79,8.0,1.0,1.0,1.0
42.8,7.4944,1.0,1.0,1.0
42.81,11.5056,1.0,1.0,1.0
42.82,17.4944,1.0,1.0,1.0
42.83,12.5056,1.0,1.0,1.0
42.84,7.0,1.0,1.0,1.0
42.85,11.0,1.0,1.0,1.0
42.86,12.9889,1.0,1.0,1.0
42.87,18.0111,1.0,1.0,1.0
42.88,15.0,1.0,1.0,1.0
42.89,9.0,1.0,1.0,1.0
42.9,14.0,1.0,1.0,1.0
42.91,12.0,1.0,1.0,1.0
42.92,6.0,1.0,1.0,1.0
42.93,15.0,1.0,1.0,1.0
42.94,0.0,1.0,1.0,1.0
42.95,12.0,1.0,1.0,1.0
42.96,14.0,1.0,1.0,1.0
42.97,6.0,1.0,1.0,1.0
42.98,14.4944,1.0,1.0,1.0
42.99,18.0,1.0,1.0,1.0
43.0,13.5056,1.0,1.0,1.0
43.01,18.0,1.0,1.0,1.0
43.02,15.0,1.0,1.0,1.0
43.03,12.0,1.0,1.0,1.0
43.04,11.0,1.0,1.0,1.0
43.05,15.0,1.0,1.0,1.0
43.06,6.0,1.0,1.0,1.0
43.07,9.0,1.0,1.0,1.0
43.08,13.9889,1.0,1.0,1.0
43.09,15.0111,1.0,1.0,1.0
43.1,15.4944,1.0,1.0,1.0
43.11,15.5056,1.0,1.0,1.0
43.12,19.0,1.0,1.0,1.0
43.13,5.0,1.0,1.0,1.0
43.14,16.4944,1.0,1.0,1.0
43.15,23.5056,1.0,1.0,1.0
43.16,0.0,1.0,1.0,1.0
43.17,17.0,1.0,1.0,1.0
43.18,23.0,1.0,1.0,1.0
43.19,7.0,1.0,1.0,1.0
43.2,17.0,1.0,1.0,1.0
43.21,9.0,1.0,1.0,1.0
43.22,16.0,1.0,1.0,1.0
43.23,12.0,1.0,1.0,1.0
43.24,11.0,1.0,1.0,1.0
43.25,14.4944,1.0,1.0,1.0
43.26,10.5056,1.0,1.0,1.0
43.27,18.0,1.0,1.0,1.0
43.28,20.0,1.0,1.0,1.0
43.29,26.4944,1.0,1.0,1.0
43.3,16.5056,1.0,1.0,1.0
43.31,17.0,1.0,1.0,1.0
43.32,15.0,1.0,1.0,1.0
43.33,13.0,1.0,1.0,1.0
43.34,16.0,1.0,1.0,1.0
43.35,21.9889,1.0,1.0,1.0
43.36,8.0111,1.0,1.0,1.0
43.37,7.0,1.0,1.0,1.0
43.38,9.0,1.0,1.0,1.0
43.39,12.0,1.0,1.0,1.0
43.4,10.0,1.0,1.0,1.0
43.41,16.0,1.0,1.0,1.0
43.42,16.0,1.0,1.0,1.0
43.43,22.0,1.0,1.0,1.0
43.44,12.0,1.0,1.0,1.0
43.45,7.0,1.0,1.0,1.0
43.46,19.9889,1.0,1.0,1.0
43.47,11.5056,1.0,1.0,1.0
43.48,11.5056,1.0,1.0,1.0
43.49,9.0,1.0,1.0,1.0
43.5,10.0,1.0,1.0,1.0
43.51,13.9889,1.0,1.0,1.0
43.52,15.0111,1.0,1.0,1.0
43.53,13.0,1.0,1.0,1.0
43.54,5.0,1.0,1.0,1.0
43.55,16.0,1.0,1.0,1.0
43.56,14.0,1.0,1.0,1.0
43.57,10.0,1.0,1.0,1.0
43.58,12.0,1.0,1.0,1.0
43.59,9.0,1.0,1.0,1.0
43.6,9.0,1.0,1.0,1.0
43.61,13.0,1.0,1.0,1.0
43.62,12.0,1.0,1.0,1.0
43.63,16.0,1.0,1.0,1.0
43.64,21.0,1.0,1.0,1.0
43.65,25.4944,1.0,1.0,1.0
43.66,20.5056,1.0,1.0,1.0
43.67,20.0,1.0,1.0,1.0
43.68,11.0,1.0,1.0,1.0
43.69,13.0,1.0,1.0,1.0
43.7,6.0,1.0,1.0,1.0
43.71,8.0,1.0,1.0,1.0
43.72,12.0,1.0,1.0,1.0
43.73,18.4944,1.0,1.0,1.0
43.74,18.5056,1.0,1.0,1.0
43.75,11.0,1.0,1.0,1.0
43.76,10.0,1.0,1.0,1.0
43.77,12.0,1.0,1.0,1.0
43.78,14.0,1.0,1.0,1.0
43.79,20.4944,1.0,1.0,1.0
43.8,20.5056,1.0,1.0,1.0
43.81,23.0,1.0,1.0,1.0
43.82,10.0,1.0,1.0,1.0
43.83,10.4944,1.0,1.0,1.0
43.84,18.5056,1.0,1.0,1.0
43.85,3.0,1.0,1.0,1.0
43.86,5.0,1.0,1.0,1.0
43.87,4.4944,1.0,1.0,1.0
43.88,13.5056,1.0,1.0,1.0
43.89,9.0,1.0,1.0,1.0
43.9,2.0,1.0,1.0,1.0
43.91,14.4944,1.0,1.0,1.0
43.92,14.5056,1.0,1.0,1.0
43.93,11.0,1.0,1.0,1.0
43.94,6.0,1.0,1.0,1.0
43.95,10.0,1.0,1.0,1.0
43.96,6.4944,1.0,1.0,1.0
43.97,20.5056,1.0,1.0,1.0
43.98,20.0,1.0,1.0,1.0
43.99,9.0,1.0,1.0,1.0
44.0,15.0,1.0,1.0,1.0
44.01,9.0,1.0,1.0,1.0
44.02,7.0,1.0,1.0,1.0
44.03,7.0,1.0,1.0,1.0
44.04,16.0,1.0,1.0,1.0
44.05,12.0,1.0,1.0,1.0
44.06,8.0,1.0,1.0,1.0
44.07,5.0,1.0,1.0,1.0
44.08,6.0,1.0,1.0,1.0
44.09,18.0,1.0,1.0,1.0
44.1,25.0,1.0,1.0,1.0
44.11,22.0,1.0,1.0,1.0
44.12,16.0,1.0,1.0,1.0
44.13,27.4833,1.0,1.0,1.0
44.14,15.5167,1.0,1.0,1.0
44.15,18.0,1.0,1.0,1.0
44.16,30.0,1.0,1.0,1.0
44.17,15.0,1.0,1.0,1.0
44.18,16.0,1.0,1.0,1.0
44.19,27.4944,1.0,1.0,1.0
44.2,24.0,1.0,1.0,1.0
44.21,34.5056,1.0,1.0,1.0
44.22,34.9889,1.0,1.0,1.0
44.23,32.5056,1.0,1.0,1.0
44.24,34.0,1.0,1.0,1.0
44.25,36.5056,1.0,1.0,1.0
44.26,49.9889,1.0,1.0,1.0
44.27,46.0111,1.0,1.0,1.0
44.28,36.0,1.0,1.0,1.0
44.29,28.0,1.0,1.0,1.0
44.3,32.0,1.0,1.0,1.0
44.31,44.0,1.0,1.0,1.0
44.32,61.9667,1.0,1.0,1.0
44.33,42.5278,1.0,1.0,1.0
44.34,31.4833,1.0,1.0,1.0
44.35,59.0222,1.0,1.0,1.0
44.36,45.9889,1.0,1.0,1.0
44.37,65.0,1.0,1.0,1.0
44.38,69.0111,1.0,1.0,1.0
44.39,61.9889,1.0,1.0,1.0
44.4,50.5056,1.0,1.0,1.0
44.41,59.5056,1.0,1.0,1.0
44.42,51.4833,1.0,1.0,1.0
44.43,43.0111,1.0,1.0,1.0
44.44,63.0,1.0,1.0,1.0
44.45,75.0,1.0,1.0,1.0
44.46,69.0,1.0,1.0,1.0
44.47,80.5056,1.0,1.0,1.0
44.48,63.0,1.0,1.0,1.0
44.49,92.9889,1.0,1.0,1.0
44.5,67.0,1.0,1.0,1.0
44.51,76.0,1.0,1.0,1.0
44.52,75.5056,1.0,1.0,1.0
44.53,70.0,1.0,1.0,1.0
44.54,73.4944,1.0,1.0,1.0
44.55,91.0111,1.0,1.0,1.0
44.56,81.9889,1.0,1.0,1.0
44.57,78.5056,1.0,1.0,1.0
44.58,83.5056,1.0,1.0,1.0
44.59,79.4944,1.0,1.0,1.0
44.6,86.4944,1.0,1.0,1.0
44.61,77.0111,1.0,1.0,1.0
44.62,80.0,1.0,1.0,1.0
44.63,68.0,1.0,1.0,1.0
44.64,70.4722,1.0,1.0,1.0
44.65,84.0,1.0,1.0,1.0
44.66,75.5278,1.0,1.0,1.0
44.67,75.4722,1.0,1.0,1.0
44.68,104.0111,1.0,1.0,1.0
44.69,81.0,1.0,1.0,1.0
44.7,73.0,1.0,1.0,1.0
44.71,82.5056,1.0,1.0,1.0
44.72,102.0,1.0,1.0,1.0
44.73,71.0111,1.0,1.0,1.0
44.74,89.9889,1.0,1.0,1.0
44.75,68.5056,1.0,1.0,1.0
44.76,81.4944,1.0,1.0,1.0
44.77,96.0111,1.0,1.0,1.0
44.78,84.4944,1.0,1.0,1.0
44.79,102.0,1.0,1.0,1.0
44.8,66.0,1.0,1.0,1.0
44.81,62.9889,1.0,1.0,1.0
44.82,87.5167,1.0,1.0,1.0
44.83,70.4944,1.0,1.0,1.0
44.84,88.5056,1.0,1.0,1.0
44.85,68.9889,1.0,1.0,1.0
44.86,82.5056,1.0,1.0,1.0
44.87,63.9889,1.0,1.0,1.0
44.88,84.0,1.0,1.0,1.0
44.89,88.0111,1.0,1.0,1.0
44.9,101.5056,1.0,1.0,1.0
44.91,66.9889,1.0,1.0,1.0
44.92,102.4944,1.0,1.0,1.0
44.93,101.0,1.0,1.0,1.0
44.94,103.4944,1.0,1.0,1.0
44.95,98.5167,1.0,1.0,1.0
44.96,121.9889,1.0,1.0,1.0
44.97,144.0111,1.0,1.0,1.0
44.98,129.4833,1.0,1.0,1.0
44.99,133.5056,1.0,1.0,1.0
45.0,167.5167,1.0,1.0,1.0
45.01,200.4722,1.0,1.0,1.0
45.02,189.5056,1.0,1.0,1.0
45.03,208.0111,1.0,1.0,1.0
45.04,202.4722,1.0,1.0,1.0
45.05,226.4944,1.0,1.0,1.0
45.06,282.5056,1.0,1.0,1.0
45.07,310.0111,1.0,1.0,1.0
45.08,286.4833,1.0,1.0,1.0
45.09,369.0111,1.0,1.0,1.0
45.1,362.4722,1.0,1.0,1.0
45.11,403.0333,1.0,1.0,1.0
45.12,427.9556,1.0,1.0,1.0
45.13,472.0222,1.0,1.0,1.0
45.14,524.9889,1.0,1.0,1.0
45.15,609.0333,1.0,1.0,1.0
45.16,654.3945,1.0,1.0,1.0
45.17,685.5389,1.0,1.0,1.0
45.18,666.0222,1.0,1.0,1.0
45.19,771.9667,1.0,1.0,1.0
45.2,854.0222,1.0,1.0,1.0
45.21,876.4611,1.0,1.0,1.0
45.22,935.5056,1.0,1.0,1.0
45.23,1013.42,1.0,1.0,1.0
45.24,1037.08,1.0,1.0,1.0
45.25,1111.55,1.0,1.0,1.0
45.26,1187.38,1.0,1.0,1.0
45.27,1235.08,1.0,1.0,1.0
45.28,1297.96,1.0,1.0,1.0
45.29,1407.01,1.0,1.0,1.0
45.3,1426.01,1.0,1.0,1.0
45.31,1500.45,1.0,1.0,1.0
45.32,1595.53,1.0,1.0,1.0
45.33,1732.91,1.0,1.0,1.0
45.34,1762.56,1.0,1.0,1.0
45.35,1774.51,1.0,1.0,1.0
45.36,1793.52,1.0,1.0,1.0
45.37,1954.97,1.0,1.0,1.0
45.38,1909.0,1.0,1.0,1.0
45.39,2034.47,1.0,1.0,1.0
45.4,2059.43,1.0,1.0,1.0
45.41,2085.49,1.0,1.0,1.0
45.42,2184.03,1.0,1.0,1.0
45.43,2210.54,1.0,1.0,1.0
45.44,2192.48,1.0,1.0,1.0
45.45,2339.94,1.0,1.0,1.0
45.46,2305.02,1.0,1.0,1.0
45.47,2331.98,1.0,1.0,1.0
45.48,2399.0,1.0,1.0,1.0
45.49,2414.63,1.0,1.0,1.0
45.5,2418.34,1.0,1.0,1.0
45.51,2512.08,1.0,1.0,1.0
45.52,2485.45,1.0,1.0,1.0
45.53,2492.06,1.0,1.0,1.0
45.54,2576.48,1.0,1.0,1.0
45.55,2515.46,1.0,1.0,1.0
45.56,2449.51,1.0,1.0,1.0
45.57,2500.43,1.0,1.0,1.0
45.58,2566.02,1.0,1.0,1.0
45.59,2440.61,1.0,1.0,1.0
45.6,2444.48,1.0,1.0,1.0
45.61,2418.49,1.0,1.0,1.0
45.62,2517.54,1.0,1.0,1.0
45.63,2397.47,1.0,1.0,1.0
45.64,2355.42,1.0,1.0,1.0
45.65,2403.64,1.0,1.0,1.0
45.66,2305.42,1.0,1.0,1.0
45.67,2374.04,1.0,1.0,1.0
45.68,2286.98,1.0,1.0,1.0
45.69,2271.07,1.0,1.0,1.0
45.7,2279.42,1.0,1.0,1.0
45.71,2226.49,1.0,1.0,1.0
45.72,2225.51,1.0,1.0,1.0
45.73,2165.02,1.0,1.0,1.0
45.74,1982.99,1.0,1.0,1.0
45.75,2012.54,1.0,1.0,1.0
45.76,1959.0,1.0,1.0,1.0
45.77,1977.54,1.0,1.0,1.0
45.78,1972.45,1.0,1.0,1.0
45.79,2040.02,1.0,1.0,1.0
45.8,1961.03,1.0,1.0,1.0
45.81,1984.52,1.0,1.0,1.0
45.82,1939.44,1.0,1.0,1.0
45.83,1900.98,1.0,1.0,1.0
45.84,1943.12,1.0,1.0,1.0
45.85,1934.89,1.0,1.0,1.0
45.86,1865.07,1.0,1.0,1.0
45.87,1815.04,1.0,1.0,1.0
45.88,1747.41,1.0,1.0,1.0
45.89,1806.56,1.0,1.0,1.0
45.9,1737.93,1.0,1.0,1.0
45.91,1845.56,1.0,1.0,1.0
45.92,1845.99,1.0,1.0,1.0
45.93,1703.52,1.0,1.0,1.0
45.94,1769.99,1.0,1.0,1.0
45.95,1657.46,1.0,1.0,1.0
45.96,1657.06,1.0,1.0,1.0
45.97,1645.97,1.0,1.0,1.0
45.98,1582.02,1.0,1.0,1.0
45.99,1697.01,1.0,1.0,1.0
46.0,1674.49,1.0,1.0,1.0
46.01,1694.9,1.0,1.0,1.0
46.02,1688.04,1.0,1.0,1.0
46.03,1759.02,1.0,1.0,1.0
46.04,1658.04,1.0,1.0,1.0
46.05,1648.44,1.0,1.0,1.0
46.06,1727.55,1.0,1.0,1.0
46.07,1759.02,1.0,1.0,1.0
46.08,1613.51,1.0,1.0,1.0
46.09,1561.91,1.0,1.0,1.0
46.1,1605.0,1.0,1.0,1.0
46.11,1688.03,1.0,1.0,1.0
46.12,1598.49,1.0,1.0,1.0
46.13,1578.52,1.0,1.0,1.0
46.14,1527.52,1.0,1.0,1.0
46.15,1620.97,1.0,1.0,1.0
46.16,1474.52,1.0,1.0,1.0
46.17,1545.56,1.0,1.0,1.0
46.18,1493.9,1.0,1.0,1.0
46.19,1585.53,1.0,1.0,1.0
46.2,1542.56,1.0,1.0,1.0
46.21,1513.93,1.0,1.0,1.0
46.22,1392.04,1.0,1.0,1.0
46.23,1430.0,1.0,1.0,1.0
46.24,1435.93,1.0,1.0,1.0
46.25,1362.07,1.0,1.0,1.0
46.26,1374.0,1.0,1.0,1.0
46.27,1335.0,1.0,1.0,1.0
46.28,1385.01,1.0,1.0,1.0
46.29,1366.99,1.0,1.0,1.0
46.3,1394.01,1.0,1.0,1.0
46.31,1301.01,1.0,1.0,1.0
46.32,1279.97,1.0,1.0,1.0
46.33,1254.51,1.0,1.0,1.0
46.34,1313.0,1.0,1.0,1.0
46.35,1278.48,1.0,1.0,1.0
46.36,1237.53,1.0,1.0,1.0
46.37,1153.52,1.0,1.0,1.0
46.38,1220.03,1.0,1.0,1.0
46.39,1238.47,1.0,1.0,1.0
46.4,1178.98,1.0,1.0,1.0
46.41,1139.49,1.0,1.0,1.0
46.42,1158.04,1.0,1.0,1.0
46.43,1130.0,1.0,1.0,1.0
46.44,1084.97,1.0,1.0,1.0
46.45,1119.56,1.0,1.0,1.0
46.46,1021.49,1.0,1.0,1.0
46.47,1041.93,1.0,1.0,1.0
46.48,1049.57,1.0,1.0,1.0
46.49,1011.47,1.0,1.0,1.0
46.5,1014.01,1.0,1.0,1.0
46.51,1009.98,1.0,1.0,1.0
46.52,987.5389,1.0,1.0,1.0
46.53,958.4722,1.0,1.0,1.0
46.54,985.9667,1.0,1.0,1.0
46.55,933.0778,1.0,1.0,1.0
46.56,944.9445,1.0,1.0,1.0
46.57,985.0111,1.0,1.0,1.0
46.58,915.5278,1.0,1.0,1.0
46.59,855.4167,1.0,1.0,1.0
46.6,923.0555,1.0,1.0,1.0
46.61,795.0111,1.0,1.0,1.0
46.62,827.0222,1.0,1.0,1.0
46.63,877.0111,1.0,1.0,1.0
46.64,769.9667,1.0,1.0,1.0
46.65,790.4611,1.0,1.0,1.0
46.66,793.0333,1.0,1.0,1.0
46.67,716.9889,1.0,1.0,1.0
46.68,744.0444,1.0,1.0,1.0
46.69,680.5056,1.0,1.0,1.0
46.7,683.4611,1.0,1.0,1.0
46.71,724.0333,1.0,1.0,1.0
46.72,651.5056,1.0,1.0,1.0
46.73,681.0,1.0,1.0,1.0
46.74,621.4722,1.0,1.0,1.0
46.75,630.4944,1.0,1.0,1.0
46.76,622.5278,1.0,1.0,1.0
46.77,609.5389,1.0,1.0,1.0
46.78,583.4833,1.0,1.0,1.0
46.79,561.0,1.0,1.0,1.0
46.8,523.9889,1.0,1.0,1.0
46.81,516.9778,1.0,1.0,1.0
46.82,541.0,1.0,1.0,1.0
46.83,538.0333,1.0,1.0,1.0
46.84,512.4722,1.0,1.0,1.0
46.85,528.4944,1.0,1.0,1.0
46.86,523.0333,1.0,1.0,1.0
46.87,488.0222,1.0,1.0,1.0
46.88,445.9778,1.0,1.0,1.0
46.89,471.0111,1.0,1.0,1.0
46.9,407.9778,1.0,1.0,1.0
46.91,446.9778,1.0,1.0,1.0
46.92,439.0555,1.0,1.0,1.0
46.93,449.9667,1.0,1.0,1.0
46.94,417.4944,1.0,1.0,1.0
46.95,552.0111,1.0,1.0,1.0
46.96,420.5278,1.0,1.0,1.0
46.97,373.4833,1.0,1.0,1.0
46.98,373.9778,1.0,1.0,1.0
46.99,388.0333,1.0,1.0,1.0
47.0,359.5056,1.0,1.0,1.0
47.01,354.9889,1.0,1.0,1.0
47.02,358.0111,1.0,1.0,1.0
47.03,359.9667,1.0,1.0,1.0
47.04,357.5278,1.0,1.0,1.0
47.05,347.0,1.0,1.0,1.0
47.06,326.9556,1.0,1.0,1.0
47.07,376.55,1.0,1.0,1.0
47.08,286.4722,1.0,1.0,1.0
47.09,304.0333,1.0,1.0,1.0
47.1,301.9889,1.0,1.0,1.0
47.11,291.4944,1.0,1.0,1.0
47.12,309.9889,1.0,1.0,1.0
47.13,278.0222,1.0,1.0,1.0
47.14,292.0,1.0,1.0,1.0
47.15,304.4833,1.0,1.0,1.0
47.16,301.0,1.0,1.0,1.0
47.17,302.4944,1.0,1.0,1.0
47.18,299.5278,1.0,1.0,1.0
47.19,297.4944,1.0,1.0,1.0
47.2,307.4833,1.0,1.0,1.0
47.21,301.0222,1.0,1.0,1.0
47.22,311.9778,1.0,1.0,1.0
47.23,272.0111,1.0,1.0,1.0
47.24,308.0,1.0,1.0,1.0
47.25,290.9889,1.0,1.0,1.0
47.26,280.4944,1.0,1.0,1.0
47.27,328.0222,1.0,1.0,1.0
47.28,309.0,1.0,1.0,1.0
47.29,300.9667,1.0,1.0,1.0
47.3,289.5167,1.0,1.0,1.0
47.31,332.9889,1.0,1.0,1.0
47.32,345.0222,1.0,1.0,1.0
47.33,369.9889,1.0,1.0,1.0
47.34,361.4944,1.0,1.0,1.0
47.35,395.5167,1.0,1.0,1.0
47.36,346.4833,1.0,1.0,1.0
47.37,408.4833,1.0,1.0,1.0
47.38,439.0333,1.0,1.0,1.0
47.39,423.9778,1.0,1.0,1.0
47.4,449.4944,1.0,1.0,1.0
47.41,461.5278,1.0,1.0,1.0
47.42,423.9889,1.0,1.0,1.0
47.43,484.0,1.0,1.0,1.0
47.44,489.4833,1.0,1.0,1.0
47.45,491.5056,1.0,1.0,1.0
47.46,522.0,1.0,1.0,1.0
47.47,561.0222,1.0,1.0,1.0
47.48,560.45,1.0,1.0,1.0
47.49,567.5167,1.0,1.0,1.0
47.5,580.4722,1.0,1.0,1.0
47.51,674.0333,1.0,1.0,1.0
47.52,631.0111,1.0,1.0,1.0
47.53,720.4722,1.0,1.0,1.0
47.54,736.0111,1.0,1.0,1.0
47.55,783.4611,1.0,1.0,1.0
47.56,805.4833,1.0,1.0,1.0
47.57,853.9667,1.0,1.0,1.0
47.58,936.5389,1.0,1.0,1.0
47.59,1000.51,1.0,1.0,1.0
47.6,1067.48,1.0,1.0,1.0
47.61,1051.02,1.0,1.0,1.0
47.62,1139.01,1.0,1.0,1.0
47.63,1241.45,1.0,1.0,1.0
47.64,1256.51,1.0,1.0,1.0
47.65,1449.47,1.0,1.0,1.0
47.66,1441.0,1.0,1.0,1.0
47.67,1574.96,1.0,1.0,1.0
47.68,1590.48,1.0,1.0,1.0
47.69,1765.04,1.0,1.0,1.0
47.7,1914.97,1.0,1.0,1.0
47.71,2121.01,1.0,1.0,1.0
47.72,2221.49,1.0,1.0,1.0
47.73,2502.45,1.0,1.0,1.0
47.74,2640.94,1.0,1.0,1.0
47.75,2851.89,1.0,1.0,1.0
47.76,3231.52,1.0,1.0,1.0
47.77,3709.51,1.0,1.0,1.0
47.78,3988.0,1.0,1.0,1.0
47.79,4551.76,1.0,1.0,1.0
47.8,5115.99,1.0,1.0,1.0
47.81,6069.54,1.0,1.0,1.0
47.82,7205.689,1.0,1.0,1.0
47.83,8548.93,1.0,1.0,1.0
47.84,10435.7,1.0,1.0,1.0
47.85,13555,1.0,1.0,1.0
47.86,18905,1.0,1.0,1.0
47.87,30097.9,1.0,1.0,1.0
47.88,75910.8,1.0,1.0,1.0
47.89,257563,1.0,1.0,1.0
47.9,641694,1.0,1.0,1.0
47.91,1072863.0,1.0,1.0,1.0
47.92,1430919.25,1.0,1.0,1.0
47.93,1757521.25,1.0,1.0,1.0
47.94,2110280.75,1.0,1.0,1.0
47.95,2661568.0,1.0,1.0,1.0
47.96,3144663.0,1.0,1.0,1.0
47.97,3226903.0,1.0,1.0,1.0
47.98,3392545.5,1.0,1.0,1.0
47.99,3412247.25,1.0,1.0,1.0
48.0,3193265.0,1.0,1.0,1.0
48.01,2878809.5,1.0,1.0,1.0
48.02,2457454.5,1.0,1.0,1.0
48.03,1989023.125,1.0,1.0,1.0
48.04,1560097.75,1.0,1.0,1.0
48.05,1222428.125,1.0,1.0,1.0
48.06,775198,1.0,1.0,1.0
48.07,322405.375,1.0,1.0,1.0
48.08,129432,1.0,1.0,1.0
48.09,55115.5,1.0,1.0,1.0
48.1,27236.3,1.0,1.0,1.0
48.11,16712.7,1.0,1.0,1.0
48.12,11605.4,1.0,1.0,1.0
48.13,8758.917,1.0,1.0,1.0
48.14,6736.01,1.0,1.0,1.0
48.15,5323.06,1.0,1.0,1.0
48.16,4501.14,1.0,1.0,1.0
48.17,3681.55,1.0,1.0,1.0
48.18,3086.42,1.0,1.0,1.0
48.19,2654.71,1.0,1.0,1.0
48.2,2331.09,1.0,1.0,1.0
48.21,1996.98,1.0,1.0,1.0
48.22,1781.52,1.0,1.0,1.0
48.23,1620.49,1.0,1.0,1.0
48.24,1403.06,1.0,1.0,1.0
48.25,1280.56,1.0,1.0,1.0
48.26,1201.47,1.0,1.0,1.0
48.27,1046.53,1.0,1.0,1.0
48.28,956.4611,1.0,1.0,1.0
48.29,861.5167,1.0,1.0,1.0
48.3,758.0222,1.0,1.0,1.0
48.31,729.4722,1.0,1.0,1.0
48.32,685.4722,1.0,1.0,1.0
48.33,629.5167,1.0,1.0,1.0
48.34,573.5722,1.0,1.0,1.0
48.35,562.9889,1.0,1.0,1.0
48.36,498.0111,1.0,1.0,1.0
48.37,467.5056,1.0,1.0,1.0
48.38,403.9889,1.0,1.0,1.0
48.39,411.5278,1.0,1.0,1.0
48.4,418.9889,1.0,1.0,1.0
48.41,346.9667,1.0,1.0,1.0
48.42,363.0444,1.0,1.0,1.0
48.43,346.4833,1.0,1.0,1.0
48.44,314.9889,1.0,1.0,1.0
48.45,324.5167,1.0,1.0,1.0
48.46,284.5056,1.0,1.0,1.0
48.47,296.0111,1.0,1.0,1.0
48.48,286.4722,1.0,1.0,1.0
48.49,235.4944,1.0,1.0,1.0
48.5,270.0222,1.0,1.0,1.0
48.51,225.5056,1.0,1.0,1.0
48.52,216.4944,1.0,1.0,1.0
48.53,208.5056,1.0,1.0,1.0
48.54,200.4944,1.0,1.0,1.0
48.55,197.0,1.0,1.0,1.0
48.56,182.5167,1.0,1.0,1.0
48.57,190.9889,1.0,1.0,1.0
48.58,171.5056,1.0,1.0,1.0
48.59,175.0,1.0,1.0,1.0
48.6,177.4833,1.0,1.0,1.0
48.61,165.5278,1.0,1.0,1.0
48.62,157.5056,1.0,1.0,1.0
48.63,158.4722,1.0,1.0,1.0
48.64,143.5056,1.0,1.0,1.0
48.65,123.5056,1.0,1.0,1.0
48.66,122.0111,1.0,1.0,1.0
48.67,117.4833,1.0,1.0,1.0
48.68,106.0222,1.0,1.0,1.0
48.69,90.4944,1.0,1.0,1.0
48.7,134.4944,1.0,1.0,1.0
48.71,126.4944,1.0,1.0,1.0
48.72,128.9889,1.0,1.0,1.0
48.73,73.0222,1.0,1.0,1.0
48.74,119.5056,1.0,1.0,1.0
48.75,138.9889,1.0,1.0,1.0
48.76,94.4944,1.0,1.0,1.0
48.77,109.4944,1.0,1.0,1.0
48.78,96.0111,1.0,1.0,1.0
48.79,91.9889,1.0,1.0,1.0
48.8,86.5056,1.0,1.0,1.0
48.81,82.4944,1.0,1.0,1.0
48.82,92.0111,1.0,1.0,1.0
48.83,88.4944,1.0,1.0,1.0
48.84,79.0111,1.0,1.0,1.0
48.85,79.4944,1.0,1.0,1.0
48.86,66.4944,1.0,1.0,1.0
48.87,93.0,1.0,1.0,1.0
48.88,81.5056,1.0,1.0,1.0
48.89,65.5056,1.0,1.0,1.0
48.9,73.5056,1.0,1.0,1.0
48.91,53.4944,1.0,1.0,1.0
48.92,64.0,1.0,1.0,1.0
48.93,67.4944,1.0,1.0,1.0
48.94,71.0,1.0,1.0,1.0
48.95,58.5056,1.0,1.0,1.0
48.96,67.5056,1.0,1.0,1.0
48.97,40.0,1.0,1.0,1.0
48.98,47.4944,1.0,1.0,1.0
48.99,67.0,1.0,1.0,1.0
49.0,49.0,1.0,1.0,1.0
49.01,45.0,1.0,1.0,1.0
49.02,43.0,1.0,1.0,1.0
49.03,55.0,1.0,1.0,1.0
49.04,56.0,1.0,1.0,1.0
49.05,42.0,1.0,1.0,1.0
49.06,48.0,1.0,1.0,1.0
49.07,47.0,1.0,1.0,1.0
49.08,43.0,1.0,1.0,1.0
49.09,51.5056,1.0,1.0,1.0
49.1,44.9889,1.0,1.0,1.0
49.11,33.0111,1.0,1.0,1.0
49.12,34.0,1.0,1.0,1.0
49.13,23.4944,1.0,1.0,1.0
49.14,41.5056,1.0,1.0,1.0
49.15,30.4944,1.0,1.0,1.0
49.16,47.5056,1.0,1.0,1.0
49.17,21.0,1.0,1.0,1.0
49.18,33.4944,1.0,1.0,1.0
49.19,40.0,1.0,1.0,1.0
49.2,35.5056,1.0,1.0,1.0
49.21,27.9889,1.0,1.0,1.0
49.22,24.0111,1.0,1.0,1.0
49.23,27.4833,1.0,1.0,1.0
49.24,42.5167,1.0,1.0,1.0
49.25,19.4944,1.0,1.0,1.0
49.26,17.5056,1.0,1.0,1.0
49.27,29.0,1.0,1.0,1.0
49.28,23.0,1.0,1.0,1.0
49.29,15.0,1.0,1.0,1.0
49.3,25.0,1.0,1.0,1.0
49.31,34.0,1.0,1.0,1.0
49.32,16.0,1.0,1.0,1.0
49.33,128.0,1.0,1.0,1.0
49.34,25.0,1.0,1.0,1.0
49.35,19.0,1.0,1.0,1.0
49.36,27.9889,1.0,1.0,1.0
49.37,20.0111,1.0,1.0,1.0
49.38,26.0,1.0,1.0,1.0
49.39,20.0,1.0,1.0,1.0
49.4,6.0,1.0,1.0,1.0
49.41,21.0,1.0,1.0,1.0
49.42,23.4944,1.0,1.0,1.0
49.43,15.5056,1.0,1.0,1.0
49.44,18.0,1.0,1.0,1.0
49.45,13.0,1.0,1.0,1.0
49.46,15.9889,1.0,1.0,1.0
49.47,13.0111,1.0,1.0,1.0
49.48,15.0,1.0,1.0,1.0
49.49,5.4944,1.0,1.0,1.0
49.5,17.5056,1.0,1.0,1.0
49.51,10.0,1.0,1.0,1.0
49.52,9.0,1.0,1.0,1.0
49.53,9.0,1.0,1.0,1.0
49.54,2.4944,1.0,1.0,1.0
49.55,17.4944,1.0,1.0,1.0
49.56,12.0111,1.0,1.0,1.0
49.57,15.4944,1.0,1.0,1.0
49.58,29.5056,1.0,1.0,1.0
49.59,11.0,1.0,1.0,1.0
49.6,15.0,1.0,1.0,1.0
49.61,8.9889,1.0,1.0,1.0
49.62,11.0111,1.0,1.0,1.0
49.63,13.0,1.0,1.0,1.0
49.64,17.0,1.0,1.0,1.0
49.65,11.0,1.0,1.0,1.0
49.66,22.0,1.0,1.0,1.0
49.67,7.4944,1.0,1.0,1.0
49.68,20.5056,1.0,1.0,1.0
49.69,8.0,1.0,1.0,1.0
49.7,16.0,1.0,1.0,1.0
49.71,9.0,1.0,1.0,1.0
49.72,13.4944,1.0,1.0,1.0
49.73,12.5056,1.0,1.0,1.0
49.74,7.0,1.0,1.0,1.0
49.75,17.0,1.0,1.0,1.0
49.76,12.0,1.0,1.0,1.0
49.77,10.0,1.0,1.0,1.0
49.78,3.9889,1.0,1.0,1.0
49.79,20.0111,1.0,1.0,1.0
49.8,12.0,1.0,1.0,1.0
49.81,3.0,1.0,1.0,1.0
49.82,12.4944,1.0,1.0,1.0
49.83,18.5056,1.0,1.0,1.0
49.84,17.0,1.0,1.0,1.0
49.85,14.0,1.0,1.0,1.0
49.86,10.4944,1.0,1.0,1.0
49.87,23.5056,1.0,1.0,1.0
49.88,12.0,1.0,1.0,1.0
49.89,17.4944,1.0,1.0,1.0
49.9,22.5056,1.0,1.0,1.0
49.91,6.0,1.0,1.0,1.0
49.92,10.0,1.0,1.0,1.0
49.93,20.0,1.0,1.0,1.0
49.94,20.4944,1.0,1.0,1.0
49.95,19.5056,1.0,1.0,1.0
49.96,10.0,1.0,1.0,1.0
49.97,15.0,1.0,1.0,1.0
49.98,15.9889,1.0,1.0,1.0
49.99,15.0111,1.0,1.0,1.0
50.0,13.0,1.0,1.0,1.0
50.01,3.0,1.0,1.0,1.0
50.02,13.9889,1.0,1.0,1.0
50.03,13.0111,1.0,1.0,1.0
50.04,12.0,1.0,1.0,1.0
50.05,17.0,1.0,1.0,1.0
50.06,12.0,1.0,1.0,1.0
50.07,13.0,1.0,1.0,1.0
50.08,9.0,1.0,1.0,1.0
50.09,14.0,1.0,1.0,1.0
50.1,19.0,1.0,1.0,1.0
50.11,16.9889,1.0,1.0,1.0
50.12,7.0111,1.0,1.0,1.0
50.13,14.0,1.0,1.0,1.0
50.14,13.0,1.0,1.0,1.0
50.15,9.0,1.0,1.0,1.0
50.16,28.0,1.0,1.0,1.0
50.17,7.0,1.0,1.0,1.0
50.18,10.4944,1.0,1.0,1.0
50.19,6.0,1.0,1.0,1.0
50.2,17.5056,1.0,1.0,1.0
50.21,13.0,1.0,1.0,1.0
50.22,13.0,1.0,1.0,1.0
50.23,5.0,1.0,1.0,1.0
50.24,15.0,1.0,1.0,1.0
50.25,6.4944,1.0,1.0,1.0
50.26,14.0,1.0,1.0,1.0
50.27,11.5056,1.0,1.0,1.0
50.28,3.0,1.0,1.0,1.0
50.29,21.0,1.0,1.0,1.0
50.3,6.0,1.0,1.0,1.0
50.31,3.0,1.0,1.0,1.0
50.32,4.0,1.0,1.0,1.0
50.33,7.0,1.0,1.0,1.0
50.34,13.0,1.0,1.0,1.0
50.35,8.0,1.0,1.0,1.0
50.36,7.0,1.0,1.0,1.0
50.37,23.9889,1.0,1.0,1.0
50.38,12.0111,1.0,1.0,1.0
50.39,15.0,1.0,1.0,1.0
50.4,9.4944,1.0,1.0,1.0
50.41,11.5056,1.0,1.0,1.0
50.42,10.4944,1.0,1.0,1.0
50.43,13.5056,1.0,1.0,1.0
50.44,15.0,1.0,1.0,1.0
50.45,4.0,1.0,1.0,1.0
50.46,8.4944,1.0,1.0,1.0
50.47,5.5056,1.0,1.0,1.0
50.48,6.0,1.0,1.0,1.0
50.49,11.0,1.0,1.0,1.0
50.5,11.0,1.0,1.0,1.0
50.51,7.0,1.0,1.0,1.0
50.52,8.0,1.0,1.0,1.0
50.53,11.9889,1.0,1.0,1.0
50.54,20.5056,1.0,1.0,1.0
50.55,4.5056,1.0,1.0,1.0
50.56,16.0,1.0,1.0,1.0
50.57,9.4944,1.0,1.0,1.0
50.58,2.5056,1.0,1.0,1.0
50.59,6.0,1.0,1.0,1.0
50.6,0.0,1.0,1.0,1.0
50.61,17.0,1.0,1.0,1.0
50.62,6.0,1.0,1.0,1.0
50.63,2.0,1.0,1.0,1.0
50.64,5.0,1.0,1.0,1.0
50.65,5.0,1.0,1.0,1.0
50.66,5.0,1.0,1.0,1.0
50.67,12.9889,1.0,1.0,1.0
50.68,15.0111,1.0,1.0,1.0
50.69,13.0,1.0,1.0,1.0
50.7,5.0,1.0,1.0,1.0
50.71,10.4944,1.0,1.0,1.0
50.72,13.0,1.0,1.0,1.0
50.73,14.5056,1.0,1.0,1.0
50.74,11.0,1.0,1.0,1.0
50.75,8.0,1.0,1.0,1.0
50.76,17.0,1.0,1.0,1.0
50.77,1.0,1.0,1.0,1.0
50.78,12.0,1.0,1.0,1.0
50.79,10.0,1.0,1.0,1.0
50.8,7.0,1.0,1.0,1.0
50.81,11.0,1.0,1.0,1.0
50.82,6.0,1.0,1.0,1.0
50.83,7.0,1.0,1.0,1.0
50.84,5.0,1.0,1.0,1.0
50.85,6.0,1.0,1.0,1.0
50.86,10.0,1.0,1.0,1.0
50.87,9.0,1.0,1.0,1.0
50.88,7.0,1.0,1.0,1.0
50.89,8.0,1.0,1.0,1.0
50.9,4.0,1.0,1.0,1.0
50.91,4.0,1.0,1.0,1.0
50.92,2.9889,1.0,1.0,1.0
50.93,2.0111,1.0,1.0,1.0
50.94,5.0,1.0,1.0,1.0
50.95,5.0,1.0,1.0,1.0
50.96,11.9889,1.0,1.0,1.0
50.97,5.0111,1.0,1.0,1.0
50.98,7.4944,1.0,1.0,1.0
50.99,3.5056,1.0,1.0,1.0
51.0,2.0,1.0,1.0,1.0
51.01,11.0,1.0,1.0,1.0
51.02,0.0,1.0,1.0,1.0
51.03,4.0,1.0,1.0,1.0
51.04,15.0,1.0,1.0,1.0
51.05,6.0,1.0,1.0,1.0
51.06,6.0,1.0,1.0,1.0
51.07,8.0,1.0,1.0,1.0
51.08,12.0,1.0,1.0,1.0
51.09,2.0,1.0,1.0,1.0
51.1,2.0,1.0,1.0,1.0
51.11,19.0,1.0,1.0,1.0
51.12,7.0,1.0,1.0,1.0
51.13,9.4944,1.0,1.0,1.0
51.14,7.5056,1.0,1.0,1.0
51.15,0.4944,1.0,1.0,1.0
51.16,13.5056,1.0,1.0,1.0
51.17,16.0,1.0,1.0,1.0
51.18,14.0,1.0,1.0,1.0
51.19,13.0,1.0,1.0,1.0
51.2,2.0,1.0,1.0,1.0
51.21,10.0,1.0,1.0,1.0
51.22,17.0,1.0,1.0,1.0
51.23,6.0,1.0,1.0,1.0
51.24,9.0,1.0,1.0,1.0
51.25,2.0,1.0,1.0,1.0
51.26,2.0,1.0,1.0,1.0
51.27,7.0,1.0,1.0,1.0
51.28,13.0,1.0,1.0,1.0
51.29,9.0,1.0,1.0,1.0
51.3,11.0,1.0,1.0,1.0
51.31,8.0,1.0,1.0,1.0
51.32,9.0,1.0,1.0,1.0
51.33,7.4944,1.0,1.0,1.0
51.34,10.0,1.0,1.0,1.0
51.35,11.5056,1.0,1.0,1.0
51.36,2.0,1.0,1.0,1.0
51.37,10.4944,1.0,1.0,1.0
51.38,8.0,1.0,1.0,1.0
51.39,12.5056,1.0,1.0,1.0
51.4,10.0,1.0,1.0,1.0
51.41,14.0,1.0,1.0,1.0
51.42,15.0,1.0,1.0,1.0
51.43,6.0,1.0,1.0,1.0
51.44,15.0,1.0,1.0,1.0
51.45,10.0,1.0,1.0,1.0
51.46,14.0,1.0,1.0,1.0
51.47,8.0,1.0,1.0,1.0
51.48,3.0,1.0,1.0,1.0
51.49,9.0,1.0,1.0,1.0
51.5,7.0,1.0,1.0,1.0
51.51,4.0,1.0,1.0,1.0
51.52,0.0,1.0,1.0,1.0
51.53,5.0,1.0,1.0,1.0
51.54,12.0,1.0,1.0,1.0
51.55,5.0,1.0,1.0,1.0
51.56,12.0,1.0,1.0,1.0
51.57,10.0,1.0,1.0,1.0
51.58,0.0,1.0,1.0,1.0
51.59,7.0,1.0,1.0,1.0
51.6,3.0,1.0,1.0,1.0
51.61,5.0,1.0,1.0,1.0
51.62,4.0,1.0,1.0,1.0
51.63,9.0,1.0,1.0,1.0
51.64,15.0,1.0,1.0,1.0
51.65,15.0,1.0,1.0,1.0
51.66,6.0,1.0,1.0,1.0
51.67,11.4944,1.0,1.0,1.0
51.68,14.5056,1.0,1.0,1.0
51.69,11.0,1.0,1.0,1.0
51.7,10.0,1.0,1.0,1.0
51.71,10.0,1.0,1.0,1.0
51.72,8.4944,1.0,1.0,1.0
51.73,6.5056,1.0,1.0,1.0
51.74,2.0,1.0,1.0,1.0
51.75,6.0,1.0,1.0,1.0
51.76,14.0,1.0,1.0,1.0
51.77,7.0,1.0,1.0,1.0
51.78,11.0,1.0,1.0,1.0
51.79,7.0,1.0,1.0,1.0
51.8,2.0,1.0,1.0,1.0
51.81,9.0,1.0,1.0,1.0
51.82,10.0,1.0,1.0,1.0
51.83,5.4944,1.0,1.0,1.0
51.84,6.5056,1.0,1.0,1.0
51.85,17.0,1.0,1.0,1.0
51.86,10.0,1.0,1.0,1.0
51.87,13.0,1.0,1.0,1.0
51.88,4.4944,1.0,1.0,1.0
51.89,8.5056,1.0,1.0,1.0
51.9,7.0,1.0,1.0,1.0
51.91,6.0,1.0,1.0,1.0
51.92,0.0,1.0,1.0,1.0
51.93,10.0,1.0,1.0,1.0
51.94,6.0,1.0,1.0,1.0
51.95,2.0,1.0,1.0,1.0
51.96,10.0,1.0,1.0,1.0
51.97,15.0,1.0,1.0,1.0
51.98,5.0,1.0,1.0,1.0
51.99,5.0,1.0,1.0,1.0
52.0,8.0,1.0,1.0,1.0
0.4,312431.0,1.0,1.0,1.0
0.41,331342,1.0,1.0,1.0
0.42,348370.5,1.0,1.0,1.0
0.43,368753.5,1.0,1.0,1.0
0.44,380158.5,1.0,1.0,1.0
0.45,391510,1.0,1.0,1.0
0.46,401376.0,1.0,1.0,1.0
0.47,413782,1.0,1.0,1.0
0.48,424082.5,1.0,1.0,1.0
0.49,435546.0,1.0,1.0,1.0
0.5,444870,1.0,1.0,1.0
0.51,454091.0,1.0,1.0,1.0
0.52,462708.0,1.0,1.0,1.0
0.53,470470,1.0,1.0,1.0
0.54,478026.5,1.0,1.0,1.0
0.55,484104.0,1.0,1.0,1.0
0.56,489416.0,1.0,1.0,1.0
0.57,494781.5,1.0,1.0,1.0
0.58,498096.0,1.0,1.0,1.0
0.59,498245.5,1.0,1.0,1.0
0.6,498770.0,1.0,1.0,1.0
0.61,499143.0,1.0,1.0,1.0
0.62,496258.0,1.0,1.0,1.0
0.63,491537.5,1.0,1.0,1.0
0.64,485008.5,1.0,1.0,1.0
0.65,475467,1.0,1.0,1.0
0.66,464967.5,1.0,1.0,1.0
0.67,451419.0,1.0,1.0,1.0
0.68,433580,1.0,1.0,1.0
0.69,411157,1.0,1.0,1.0
0.7,385774,1.0,1.0,1.0
0.71,355644,1.0,1.0,1.0
0.72,322338,1.0,1.0,1.0
0.73,285698,1.0,1.0,1.0
0.74,249645,1.0,1.0,1.0
0.75,210483,1.0,1.0,1.0
0.76,173591,1.0,1.0,1.0
0.77,139897,1.0,1.0,1.0
0.78,111550,1.0,1.0,1.0
0.79,90416,1.0,1.0,1.0
0.8,76789,1.0,1.0,1.0
0.81,69274.5,1.0,1.0,1.0
0.82,67639.0,1.0,1.0,1.0
0.83,69024.0,1.0,1.0,1.0
0.84,72278.5,1.0,1.0,1.0
0.85,75196.0,1.0,1.0,1.0
0.86,76943,1.0,1.0,1.0
0.87,77183.0,1.0,1.0,1.0
0.88,75898.5,1.0,1.0,1.0
0.89,73913.5,1.0,1.0,1.0
0.9,70919.0,1.0,1.0,1.0
0.91,66764.5,1.0,1.0,1.0
0.92,62547,1.0,1.0,1.0
0.93,57524,1.0,1.0,1.0
0.94,52173.5,1.0,1.0,1.0
0.95,47200.5,1.0,1.0,1.0
0.96,41609.5,1.0,1.0,1.0
0.97,36988.5,1.0,1.0,1.0
0.98,32016.5,1.0,1.0,1.0
0.99,27616.5,1.0,1.0,1.0
1.0,23608.5,1.0,1.0,1.0
1.01,19984,1.0,1.0,1.0
1.02,16977.002,1.0,1.0,1.0
1.03,14254,1.0,1.0,1.0
1.04,12127.501,1.0,1.0,1.0
1.05,10316.501,1.0,1.0,1.0
1.06,9161.501,1.0,1.0,1.0
1.07,8297.002,1.0,1.0,1.0
1.08,7518.5,1.0,1.0,1.0
1.09,7401,1.0,1.0,1.0
1.1,7351.5,1.0,1.0,1.0
1.11,7790,1.0,1.0,1.0
1.12,8258.501,1.0,1.0,1.0
1.13,8790.999,1.0,1.0,1.0
1.14,9273.999,1.0,1.0,1.0
1.15,9804.499,1.0,1.0,1.0
1.16,10795.998,1.0,1.0,1.0
1.17,11268.499,1.0,1.0,1.0
1.18,11781.5,1.0,1.0,1.0
1.19,12103.0,1.0,1.0,1.0
1.2,12524.001,1.0,1.0,1.0
1.21,12808.499,1.0,1.0,1.0
1.22,12678.5,1.0,1.0,1.0
1.23,12782.502,1.0,1.0,1.0
1.24,12607.499,1.0,1.0,1.0
1.25,12452.5,1.0,1.0,1.0
1.26,11999.501,1.0,1.0,1.0
1.27,11367.001,1.0,1.0,1.0
1.28,10991.001,1.0,1.0,1.0
1.29,10204.499,1.0,1.0,1.0
1.3,9741.5,1.0,1.0,1.0
1.31,9195.5,1.0,1.0,1.0
1.32,8406.501,1.0,1.0,1.0
1.33,7826.5,1.0,1.0,1.0
1.34,7107.001,1.0,1.0,1.0
1.35,6320.5,1.0,1.0,1.0
1.36,5857,1.0,1.0,1.0
1.37,5146.001,1.0,1.0,1.0
1.38,4773.5,1.0,1.0,1.0
1.39,4244,1.0,1.0,1.0
1.4,3756,1.0,1.0,1.0
1.41,3501.5,1.0,1.0,1.0
1.42,3156.5,1.0,1.0,1.0
1.43,2871.5,1.0,1.0,1.0
1.44,2572.0,1.0,1.0,1.0
1.45,2389.0,1.0,1.0,1.0
1.46,2380.5,1.0,1.0,1.0
1.47,2164.5,1.0,1.0,1.0
1.48,2056.499,1.0,1.0,1.0
1.49,2101.5,1.0,1.0,1.0
1.5,2086.5,1.0,1.0,1.0
1.51,2117.5,1.0,1.0,1.0
1.52,2215.5,1.0,1.0,1.0
1.53,2169.5,1.0,1.0,1.0
1.54,2304.5,1.0,1.0,1.0
1.55,2304,1.0,1.0,1.0
1.56,2407,1.0,1.0,1.0
1.57,2506.5,1.0,1.0,1.0
1.58,2531.5,1.0,1.0,1.0
1.59,2603.5,1.0,1.0,1.0
1.6,2718,1.0,1.0,1.0
1.61,2703,1.0,1.0,1.0
1.62,2758.5,1.0,1.0,1.0
1.63,2744,1.0,1.0,1.0
1.64,2742,1.0,1.0,1.0
1.65,2814.0,1.0,1.0,1.0
1.66,2783.999,1.0,1.0,1.0
1.67,2686,1.0,1.0,1.0
1.68,2703,1.0,1.0,1.0
1.69,2631.5,1.0,1.0,1.0
1.7,2567.5,1.0,1.0,1.0
1.71,2624,1.0,1.0,1.0
1.72,2582,1.0,1.0,1.0
1.73,2484,1.0,1.0,1.0
1.74,2395,1.0,1.0,1.0
1.75,2269.5,1.0,1.0,1.0
1.76,2184.5,1.0,1.0,1.0
1.77,2070.5,1.0,1.0,1.0
1.78,2130.0,1.0,1.0,1.0
1.79,1922.5,1.0,1.0,1.0
1.8,1895,1.0,1.0,1.0
1.81,1711,1.0,1.0,1.0
1.82,1815,1.0,1.0,1.0
1.83,1626.5,1.0,1.0,1.0
1.84,1564.0,1.0,1.0,1.0
1.85,1527.5,1.0,1.0,1.0
1.86,1417,1.0,1.0,1.0
1.87,1339,1.0,1.0,1.0
1.88,1321.0,1.0,1.0,1.0
1.89,1259,1.0,1.0,1.0
1.9,1185,1.0,1.0,1.0
1.91,1143,1.0,1.0,1.0
1.92,1128,1.0,1.0,1.0
1.93,1086.001,1.0,1.0,1.0
1.94,998.5002,1.0,1.0,1.0
1.95,1068.5,1.0,1.0,1.0
1.96,983.0002,1.0,1.0,1.0
1.97,892.4998,1.0,1.0,1.0
1.98,867.0002,1.0,1.0,1.0
1.99,858.4999,1.0,1.0,1.0
2.0,899.9998,1.0,1.0,1.0
2.01,888.4998,1.0,1.0,1.0
2.02,867.4999,1.0,1.0,1.0
2.03,871.0003,1.0,1.0,1.0
2.04,885.4998,1.0,1.0,1.0
2.05,904.5002,1.0,1.0,1.0
2.06,860.5002,1.0,1.0,1.0
2.07,871.9996,1.0,1.0,1.0
2.08,908.0,1.0,1.0,1.0
2.09,963.5002,1.0,1.0,1.0
2.1,994.9995,1.0,1.0,1.0
2.11,968.5002,1.0,1.0,1.0
2.12,1057.5,1.0,1.0,1.0
2.13,1026.5,1.0,1.0,1.0
2.14,1051.5,1.0,1.0,1.0
2.15,1061,1.0,1.0,1.0
2.16,1083,1.0,1.0,1.0
2.17,1143,1.0,1.0,1.0
2.18,1116,1.0,1.0,1.0
2.19,1183,1.0,1.0,1.0
2.2,1143.5,1.0,1.0,1.0
2.21,1164.5,1.0,1.0,1.0
2.22,1147.5,1.0,1.0,1.0
2.23,1113.5,1.0,1.0,1.0
2.24,1143,1.0,1.0,1.0
2.25,1088,1.0,1.0,1.0
2.26,1147.5,1.0,1.0,1.0
2.27,1105,1.0,1.0,1.0
2.28,1073.5,1.0,1.0,1.0
2.29,1064,1.0,1.0,1.0
2.3,1043,1.0,1.0,1.0
2.31,1014.0,1.0,1.0,1.0
2.32,968.5002,1.0,1.0,1.0
2.33,951.5001,1.0,1.0,1.0
2.34,929.4996,1.0,1.0,1.0
2.35,830.0,1.0,1.0,1.0
2.36,816.0001,1.0,1.0,1.0
2.37,784.4998,1.0,1.0,1.0
2.38,752.5002,1.0,1.0,1.0
2.39,715.5002,1.0,1.0,1.0
2.4,677.4994,1.0,1.0,1.0
2.41,664.5002,1.0,1.0,1.0
2.42,660.0004,1.0,1.0,1.0
2.43,601.5001,1.0,1.0,1.0
2.44,574.0,1.0,1.0,1.0
2.45,575.4998,1.0,1.0,1.0
2.46,585.0003,1.0,1.0,1.0
2.47,576.4998,1.0,1.0,1.0
2.48,533.4998,1.0,1.0,1.0
2.49,565.0,1.0,1.0,1.0
2.5,537.5002,1.0,1.0,1.0
2.51,542.4998,1.0,1.0,1.0
2.52,627.4999,1.0,1.0,1.0
2.53,573.0004,1.0,1.0,1.0
2.54,606.0001,1.0,1.0,1.0
2.55,615.9995,1.0,1.0,1.0
2.56,579.5005,1.0,1.0,1.0
2.57,627.9999,1.0,1.0,1.0
2.58,672.4995,1.0,1.0,1.0
2.59,699.0,1.0,1.0,1.0
2.6,636.4998,1.0,1.0,1.0
2.61,684.0004,1.0,1.0,1.0
2.62,695.9999,1.0,1.0,1.0
2.63,713.4998,1.0,1.0,1.0
2.64,717.5002,1.0,1.0,1.0
2.65,761.5002,1.0,1.0,1.0
2.66,711.0,1.0,1.0,1.0
2.67,695.4998,1.0,1.0,1.0
2.68,737.0001,1.0,1.0,1.0
2.69,792.9998,1.0,1.0,1.0
2.7,691.5001,1.0,1.0,1.0
2.71,734.9999,1.0,1.0,1.0
2.72,620.5001,1.0,1.0,1.0
2.73,732.0003,1.0,1.0,1.0
2.74,740.4998,1.0,1.0,1.0
2.75,667.5004,1.0,1.0,1.0
2.76,602.4998,1.0,1.0,1.0
2.77,654.0002,1.0,1.0,1.0
2.78,631.4996,1.0,1.0,1.0
2.79,644.5002,1.0,1.0,1.0
2.8,603.4998,1.0,1.0,1.0
2.81,562.5002,1.0,1.0,1.0
2.82,582.4998,1.0,1.0,1.0
2.83,529.0003,1.0,1.0,1.0
2.84,569.0,1.0,1.0,1.0
2.85,547.4998,1.0,1.0,1.0
2.86,494.5002,1.0,1.0,1.0
2.87,516.5001,1.0,1.0,1.0
2.88,499.0,1.0,1.0,1.0
2.89,518.5002,1.0,1.0,1.0
2.9,512.9998,1.0,1.0,1.0
2.91,467.4997,1.0,1.0,1.0
2.92,548.5002,1.0,1.0,1.0
2.93,494.9997,1.0,1.0,1.0
2.94,412.5004,1.0,1.0,1.0
2.95,468.0001,1.0,1.0,1.0
2.96,436.9998,1.0,1.0,1.0
2.97,444.5002,1.0,1.0,1.0
2.98,444.4997,1.0,1.0,1.0
2.99,475.5001,1.0,1.0,1.0
3.0,482.0002,1.0,1.0,1.0
3.01,450.9997,1.0,1.0,1.0
3.02,525.0003,1.0,1.0,1.0
3.03,450.5001,1.0,1.0,1.0
3.04,479.4998,1.0,1.0,1.0
3.05,441.5002,1.0,1.0,1.0
3.06,424.4996,1.0,1.0,1.0
3.07,498.5005,1.0,1.0,1.0
3.08,448.9998,1.0,1.0,1.0
3.09,485.4998,1.0,1.0,1.0
3.1,559.4999,1.0,1.0,1.0
3.11,516.5002,1.0,1.0,1.0
3.12,496.5001,1.0,1.0,1.0
3.13,479.4998,1.0,1.0,1.0
3.14,481.5002,1.0,1.0,1.0
3.15,507.4999,1.0,1.0,1.0
3.16,516.0001,1.0,1.0,1.0
3.17,472.9998,1.0,1.0,1.0
3.18,478.5001,1.0,1.0,1.0
3.19,503.0002,1.0,1.0,1.0
3.2,515.0,1.0,1.0,1.0
3.21,503.9996,1.0,1.0,1.0
3.22,512.0,1.0,1.0,1.0
3.23,444.5003,1.0,1.0,1.0
3.24,492.9999,1.0,1.0,1.0
3.25,487.4999,1.0,1.0,1.0
3.26,456.5004,1.0,1.0,1.0
3.27,503.9998,1.0,1.0,1.0
3.28,455.4996,1.0,1.0,1.0
3.29,465.5006,1.0,1.0,1.0
3.3,441.5001,1.0,1.0,1.0
3.31,455.4996,1.0,1.0,1.0
3.32,461.5001,1.0,1.0,1.0
3.33,459.0002,1.0,1.0,1.0
3.34,431.9998,1.0,1.0,1.0
3.35,507.4997,1.0,1.0,1.0
3.36,500.0004,1.0,1.0,1.0
3.37,419.4999,1.0,1.0,1.0
3.38,454.4999,1.0,1.0,1.0
3.39,408.5001,1.0,1.0,1.0
3.4,386.4998,1.0,1.0,1.0
3.41,429.9999,1.0,1.0,1.0
3.42,454.0002,1.0,1.0,1.0
3.43,389.0,1.0,1.0,1.0
3.44,454.9997,1.0,1.0,1.0
3.45,430.5003,1.0,1.0,1.0
3.46,440.5003,1.0,1.0,1.0
3.47,472.5001,1.0,1.0,1.0
3.48,389.4998,1.0,1.0,1.0
3.49,430.9999,1.0,1.0,1.0
3.5,421.9997,1.0,1.0,1.0
3.51,453.5004,1.0,1.0,1.0
3.52,405.0,1.0,1.0,1.0
3.53,450.4998,1.0,1.0,1.0
3.54,431.0001,1.0,1.0,1.0
3.55,399.0001,1.0,1.0,1.0
3.56,401.5002,1.0,1.0,1.0
3.57,447.9999,1.0,1.0,1.0
3.58,392.4999,1.0,1.0,1.0
3.59,370.5002,1.0,1.0,1.0
3.6,414.4996,1.0,1.0,1.0
3.61,396.0,1.0,1.0,1.0
3.62,397.5004,1.0,1.0,1.0
3.63,422.9998,1.0,1.0,1.0
3.64,459.4998,1.0,1.0,1.0
3.65,430.5001,1.0,1.0,1.0
3.66,462.5002,1.0,1.0,1.0
3.67,420.0001,1.0,1.0,1.0
3.68,417.9998,1.0,1.0,1.0
3.69,436.4998,1.0,1.0,1.0
3.7,431.5004,1.0,1.0,1.0
3.71,438.4998,1.0,1.0,1.0
3.72,432.4998,1.0,1.0,1.0
3.73,421.0,1.0,1.0,1.0
3.74,452.0,1.0,1.0,1.0
3.75,428.4999,1.0,1.0,1.0
3.76,460.4999,1.0,1.0,1.0
3.77,474.0003,1.0,1.0,1.0
3.78,428.9998,1.0,1.0,1.0
3.79,462.0003,1.0,1.0,1.0
3.8,388.9998,1.0,1.0,1.0
3.81,450.5001,1.0,1.0,1.0
3.82,465.4998,1.0,1.0,1.0
3.83,421.0001,1.0,1.0,1.0
3.84,450.0001,1.0,1.0,1.0
3.85,404.9998,1.0,1.0,1.0
3.86,425.5004,1.0,1.0,1.0
3.87,404.4999,1.0,1.0,1.0
3.88,378.5002,1.0,1.0,1.0
3.89,421.9997,1.0,1.0,1.0
3.9,404.0,1.0,1.0,1.0
3.91,395.4998,1.0,1.0,1.0
3.92,388.0001,1.0,1.0,1.0
3.93,389.5002,1.0,1.0,1.0
3.94,380.9999,1.0,1.0,1.0
3.95,416.0001,1.0,1.0,1.0
3.96,423.5001,1.0,1.0,1.0
3.97,409.4999,1.0,1.0,1.0
3.98,397.4997,1.0,1.0,1.0
3.99,404.5001,1.0,1.0,1.0
4.0,403.5003,1.0,1.0,1.0
4.01,367.9999,1.0,1.0,1.0
4.02,385.0,1.0,1.0,1.0
4.03,445.4999,1.0,1.0,1.0
4.04,379.4996,1.0,1.0,1.0
4.05,406.0002,1.0,1.0,1.0
4.06,404.0004,1.0,1.0,1.0
4.07,385.5001,1.0,1.0,1.0
4.08,396.9996,1.0,1.0,1.0
4.09,444.0003,1.0,1.0,1.0
4.1,407.9998,1.0,1.0,1.0
4.11,423.5001,1.0,1.0,1.0
4.12,388.4999,1.0,1.0,1.0
4.13,423.4997,1.0,1.0,1.0
4.14,443.5003,1.0,1.0,1.0
4.15,406.5001,1.0,1.0,1.0
4.16,399.0,1.0,1.0,1.0
4.17,429.0,1.0,1.0,1.0
4.18,423.9997,1.0,1.0,1.0
4.19,433.5006,1.0,1.0,1.0
4.2,417.4996,1.0,1.0,1.0
4.21,424.0001,1.0,1.0,1.0
4.22,425.5002,1.0,1.0,1.0
4.23,391.4997,1.0,1.0,1.0
4.24,383.0,1.0,1.0,1.0
4.25,436.0003,1.0,1.0,1.0
4.26,431.4997,1.0,1.0,1.0
4.27,409.4999,1.0,1.0,1.0
4.28,392.5001,1.0,1.0,1.0
4.29,429.4999,1.0,1.0,1.0
4.3,363.5003,1.0,1.0,1.0
4.31,404.4998,1.0,1.0,1.0
4.32,426.4997,1.0,1.0,1.0
4.33,400.0003,1.0,1.0,1.0
4.34,374.4998,1.0,1.0,1.0
4.35,391.0,1.0,1.0,1.0
4.36,422.0,1.0,1.0,1.0
4.37,424.4999,1.0,1.0,1.0
4.38,376.0001,1.0,1.0,1.0
4.39,393.0001,1.0,1.0,1.0
4.4,405.9999,1.0,1.0,1.0
4.41,407.9998,1.0,1.0,1.0
4.42,421.5004,1.0,1.0,1.0
4.43,383.9998,1.0,1.0,1.0
4.44,408.5002,1.0,1.0,1.0
4.45,347.4998,1.0,1.0,1.0
4.46,412.0001,1.0,1.0,1.0
4.47,400.4997,1.0,1.0,1.0
4.48,379.0005,1.0,1.0,1.0
4.49,386.9995,1.0,1.0,1.0
4.5,408.5004,1.0,1.0,1.0