File: XRD:XRR/SCO/22103_S(CT)L/22103_not_annealed_001_XRD_2-Theta_Omega.asc
*TYPE		=  Raw
*CLASS		=  ASCII CLASS
*SAMPLE		=
*COMMENT	=
*FNAME		=  22103_not_annealed_001_XRD_2-Theta_Omega.asc
*DATE		=  01-Jul-22 05:58

*GROUP_COUNT	=  1
*GONIO		=  SmartLab(In-plane), 0.000000
*ATTACHMENT	=  Z-Phi Stage
*ASC		=  0, 0, 0.000000, 0.000000
*I_MONOCHRO	=  Ge(220)x2, 0.000000
*FILTER		=  None
*C_MONOCHRO	=  None, 0.000000
*SLIT_NAME	=  0, Incident slit
*SLIT_NAME	=  1, Receiving slit # 1
*SLIT_NAME	=  2, Receiving slit # 2
*COUNTER	=  D/teX Ultra 250, 0
*POS_FORMAT	=  0
*SCAN_AXIS	=  2Theta/Omega
*MEAS_MODE	=  Continuous Scanning
*TARGET		=  29
*XRAY_CHAR	=  K-ALPHA1
*WAVE_LENGTH1	=  1.54059
*WAVE_LENGTH2	=  1.54441
*THICKNESS	=  0, 0.000000
*MU		=  0, 0.000000
*SCAN_MODE	=  2Theta/Omega
*SPEED_DIM	=  sec./step
*XUNIT		=  deg.
*YUNIT		=  counts
*SCALE_MODE	=  1
*REP_COUNT	=  0
*SE_COUNT	=  0
*STD_MATERIAL	=  Unknown, Unknown, 0.000000, 0.000000, 0.000000, 0.000000, 0.000000, 0.000000
*LATT_CONS	=  0, Unknown, Unknown, 0.000000, 0.000000, 0.000000, 0.000000, 0.000000, 0.000000
*SEC_COUNT	=  1
*TSPEC_SIZE	=  0
*EXTRA_SIZE	=  0
*MEMO		=

*BEGIN
*GROUP		=  0
*START		=  16
*STOP		=  30
*STEP		=  0.01
*OFFSET		=  -0.017900
*SPEED		=  31.5375
*SLIT_SPEC	=  0, 0.400mm, 0.4, 0.000000
*SLIT_SPEC	=  1, 0.400mm, 0.4, 0.000000
*SLIT_SPEC	=  2, 0.400mm, 0.4, 0.000000
*KV		=  40
*MA		=  30
*LOW		=  0.000000
*HIGH		=  0.000000
*CTEMPER	=  0, 0.000000
*CTEMPER	=  1, 0.000000
*CTEMPER	=  2, 0.000000
*PAREX		=  0, 0.000000
*PAREX		=  1, 0.000000
*PAREX		=  2, 0.000000
*PAREX		=  3, 0.000000
*PAREX		=  4, 0.000000
*PAREX		=  5, 0.000000
*PAREX		=  6, 0.000000
*PAREX		=  7, 0.000000
*PAREX		=  8, 0.000000
*PAREX		=  9, 0.000000
*PAREX		=  10, 0.000000
*PAREX		=  11, 0.000000
*PAREX		=  12, 0.000000
*PAREX		=  13, 0.000000
*PAREX		=  14, 0.000000
*PAREX		=  15, 0.000000
*FULL_SCALE	=  1130236.6
*INDEX		=  0, 0, 0
*COUNT		=  1401
3, 9.49921, 5.50079, 4
2, 13, 0.000000, 2
5.49921, 6.50079, 2, 3
2, 2, 16, 3
0.000000, 4, 3.49921, 7
6.50079, 0.000000, 0.000000, 3
2, 0.000000, 14, 3.49921
5.50079, 4, 4, 4
0.000000, 0.499214, 3.50079, 10
4, 6.49921, 5.50079, 2
0.000000, 2, 0.000000, 4
2, 0.000000, 2, 2
6, 2, 2, 4
5, 2, 2, 3
4, 6, 7, 0.000000
0.000000, 0.000000, 4, 0.000000
4, 7, 2, 6
1, 6, 0.000000, 5
9, 7, 8, 0.000000
2, 4, 13, 4
0.000000, 2, 0.000000, 4
0.000000, 4, 3, 11
2, 2, 0.000000, 4
5, 14, 7, 2
3, 0.000000, 0.000000, 6
1, 0.000000, 10, 2
7, 2, 8, 11
4, 5, 3, 4.49921
5.50079, 2, 0.000000, 0.000000
4, 0.000000, 2, 24
4, 1.49921, 2.50079, 6
3, 9, 5, 2
10, 0.000000, 6, 8.49921
6.50079, 0.000000, 2, 8
0.000000, 6, 7, 11
6, 5, 4, 4
0.000000, 0.000000, 3, 2
2, 0.000000, 5, 3
3, 6, 2, 3
0.000000, 4, 6.49921, 3.50079
0.000000, 4, 7, 3
5, 0.000000, 9, 2
4, 4, 0.000000, 10
2, 4, 0.000000, 4
15, 9, 2, 2
6, 2, 4.49921, 2.50079
8, 6, 0.000000, 5
2, 5, 15.9969, 4.00314
6.49921, 11.5008, 9, 0.000000
4, 5, 8, 9
14.4992, 16.5008, 6, 4
11, 3, 6, 0.000000
4, 5, 2.49921, 8.50079
2, 9, 5, 28
4, 2, 2, 4
2, 9, 2, 0.000000
5, 4, 2, 2
6, 0.000000, 5, 7
13, 9, 4, 10
5, 9.49921, 2.50079, 2
2, 5, 8, 2
7, 8.99843, 4.50079, 8
9, 0.500786, 5, 7
18, 6, 10, 0.000000
0.000000, 3, 0.000000, 9
4, 0.000000, 9, 6
2, 2, 5, 7
6.49921, 8.50079, 7, 4
9.49921, 1.50079, 2, 2
15.4992, 2.50079, 3, 0.000000
2, 7, 9, 0.000000
5, 6, 0.000000, 4
4, 6, 6, 10
2, 4, 8.99843, 8.00157
10, 4, 3, 3
5.99843, 8.00157, 10, 10
8, 0.499214, 9.50079, 2
13, 7, 5, 6.49921
13.5008, 5, 2, 4
8, 8.49921, 3.50079, 4
2, 8, 6, 10
2, 4, 7, 3
4, 13, 0.000000, 6
4, 4, 9, 7
6, 2, 8, 0.000000
3.99843, 4.00157, 4, 7
6, 3.49921, 2.50079, 7.49921
8.50079, 2, 2, 4
0.000000, 7, 7, 5
7, 3, 9, 0.000000
7, 4.49921, 5.50079, 8
2, 4, 2, 3
5, 6, 2, 0.000000
3, 0.000000, 7, 4
4, 7, 2, 13
3, 4, 3, 5
2, 1, 3, 2
4, 2, 3, 0.000000
8, 4, 4, 0.000000
4, 0.000000, 2, 5
2, 2, 5, 0.000000
0.499214, 9.50079, 2, 40
6, 3.49921, 9.50079, 7.99529
11.0047, 8, 2, 5
6, 2, 3, 8
3, 10, 4, 2
2, 4, 2, 0.000000
2, 5, 2, 5
4, 5, 9, 2
2, 8, 2, 0.000000
4, 6, 2, 2
10, 2, 6, 0.000000
9, 2, 5, 2
0.000000, 2, 8, 3
5, 6, 0.000000, 4
5, 6, 4, 3
0.000000, 2, 4, 6
12, 9, 5.49921, 10.5008
2, 7, 4, 6
2.49921, 8.50079, 2, 10
4, 3, 7, 7
13, 5, 4, 12
7, 3, 19, 6
5.49921, 6.50079, 5, 12
0.000000, 2, 4, 10
5, 9.49921, 4.50079, 3
3, 5, 2, 4
10, 8.49921, 7.50079, 8
10, 19, 6, 7
7, 12, 10, 7
4.49921, 5.50079, 3, 6
5, 2, 6.49921, 12
7.50079, 4, 5, 4
9, 2, 0.000000, 4
14.4992, 9.50079, 5, 7
2, 7, 6, 10
7, 12, 7, 6
9, 2, 8, 11
9, 6, 11, 12
6, 3, 7, 8.49921
4.50079, 9, 5, 2
6, 17, 2, 13.4992
6, 6.50079, 6, 0.000000
6, 9.49921, 8.50079, 15
4.99843, 19.0016, 16, 12
10, 15.4992, 25.5008, 14
16, 13, 10, 11
10, 4, 11, 16
21.4992, 15.5008, 12.4992, 14.5008
8, 6.49921, 9.50079, 12
10, 11, 8, 26
25.9984, 21.5008, 34.5008, 27.9984
63.5008, 59, 92, 101.499
94, 111, 166.998, 155.499
165, 229.002, 200, 228.997
236.002, 265.997, 322.002, 309.998
348, 394.498, 396.504, 421.995
486.003, 491.002, 513.495, 507.006
573.991, 580.501, 594.003, 584.998
604.501, 669, 665.501, 716.499
619.499, 724.502, 707, 661.997
721.507, 692.495, 678.501, 640.496
668.505, 723.003, 631.997, 668.498
669.008, 656.49, 647.502, 610.003
556.498, 553.498, 544.504, 523.002
560.498, 485.997, 472.006, 419
451.496, 373.005, 404.499, 372.499
340, 335.504, 318.498, 330.504
301.994, 293.501, 283.006, 280.997
286, 277.997, 297.005, 252
241.501, 271.501, 260.997, 294.501
281.498, 257, 290.502, 296.501
235.997, 272.501, 270.501, 321.501
340.496, 325.002, 336.501, 353
349, 383.998, 343.005, 389.995
358.499, 367.501, 427.002, 399.502
411.995, 495.998, 494.002, 470.501
548, 530.994, 545.002, 581.498
592.505, 634.997, 655.501, 719.003
759.491, 834.005, 890.995, 1034
1061.5, 1174.5, 1289, 1400.49
1551.99, 1885, 2022.99, 2252
2616.49, 3029.99, 3746, 4412.98
5605.49, 7023.47, 9564.45, 13376.9
20064.4, 30841.8, 48340.1, 77787.9
128304, 216878, 390258, 862891
2758493.8, 8771997, 20550458, 27676624
15339486, 6164882, 1946268.5, 688997
343007, 189446, 107408, 63815
40855.3, 26796.7, 17703.1, 12335.6
9068.56, 6757.53, 5392.51, 4237.01
3423.51, 2871.01, 2344.01, 2107.5
1760.52, 1569.49, 1381.5, 1217.5
1186.5, 1075.5, 1024.5, 909.502
818.002, 769.498, 698.501, 632.504
621.498, 517.502, 505.501, 494.499
422.003, 405.499, 378.998, 367.998
354.502, 319, 299.499, 291.002
289.499, 220.002, 257.997, 213.506
215.499, 171, 213.998, 203.002
222.002, 162.496, 177, 181.002
177.502, 155.498, 161.501, 156.002
141.998, 174.002, 130.998, 160.998
132.502, 112.499, 143.502, 100.997
122.499, 136.002, 114, 136.002
111.499, 112.501, 73.4992, 95
85.5008, 105.501, 92.9984, 65.4992
69.5024, 86.9984, 75.4992, 57.5024
56.4992, 62.5008, 67.9984, 65.5008
48.5008, 49.9984, 80.4992, 72.0016
64.5008, 49.4992, 57, 66.4992
53.5008, 81.4976, 62.0031, 50
71.9984, 75.5008, 61.5008, 42.4976
59.0016, 45.5008, 45.4992, 46
49.5008, 34, 39, 49.9984
28.0016, 13, 47.9984, 19.0016
32, 23, 28.9984, 35.5008
20, 30.5008, 21, 24.4992
29.5008, 27.4992, 19.5008, 28
14, 25, 28, 28
26, 12, 25.4992, 24.5008
20, 31.4992, 32, 15
16.5008, 27, 27, 12
17, 25, 27, 21
12.4992, 13.5008, 6.99843, 16.0016
19, 19, 9, 11.4992
23.5008, 26.4992, 19.5008, 14
27.4992, 7.50079, 30, 21.4992
20.5008, 24.4992, 25.5008, 14.4992
29, 29, 30.5008, 17.4992
20, 13.5008, 14, 13.4992
23.5008, 17, 24, 26
25, 12, 8, 6.49921
6.50079, 4, 17.4992, 9.50079
6, 8, 15, 13
8.49921, 8.50079, 16, 12
14, 17, 1.49921, 5.50079
18, 18.4992, 14.5008, 16.4992
12, 20.5008, 13.9984, 8.00157
9, 3, 7, 16
12, 18, 5, 4
3, 5, 12, 4
9, 7, 25, 7
3, 8, 9, 10
8, 4, 4, 8
12, 6, 9.49764, 9.50236
13, 5, 6, 9
8.49921, 5.50079, 9, 0.000000
6, 4, 2, 6
2, 7, 3, 4
6.49921, 5.50079, 13, 4
4, 9.49921, 11.5008, 2
4, 10, 7, 6
11.4992, 7.50079, 12, 2
8, 11, 9, 12.9984
19.0016, 0.000000, 17, 13
12.4992, 7.50079, 8, 15
8, 2.49921, 8, 9
17.5008, 1, 6, 10
11, 10, 0.000000, 5
6, 5, 2.49921, 4.50079
8, 11, 6, 2
8, 5, 2, 9
4, 8, 2, 6
5, 0.000000, 9, 14
9, 4, 10, 3
2, 0.000000, 0.000000, 8
1, 2, 3, 4
8, 6, 0.000000, 2
4, 6, 3, 5
7, 2, 2, 7
4, 2, 10, 0.000000
13, 8, 4, 4
4, 5, 2, 9
5, 9, 5, 0.000000
3, 1, 7, 3
6, 6.49921, 4.50079, 2.99843
1.00157, 11.4992, 15.5008, 14
4, 12.4992, 5.50079, 0.000000
14, 6, 6, 11
8, 13, 6, 5
2, 7, 2.49921, 4.50079
3, 12, 6, 8
2, 4, 7, 0.000000
10, 11, 2, 7
4, 4, 4, 2
8, 0.499214, 1.50079, 6
9, 0.000000, 5, 5.99843
8.00157, 2, 7, 6
2, 2, 0.000000, 4
0.000000, 2, 4, 6.49921
7.50079, 6, 0.000000, 0.000000
9, 2, 4, 5
5, 3, 2, 98
2, 3, 0.000000, 8
3, 4, 5, 6
10, 0.000000, 2, 0.000000
3, 4, 7, 5
10, 2, 5, 2
5, 2, 0.000000, 4
0.000000, 6, 4, 13
2, 4, 3, 2
3, 5.99843, 6.00157, 2
6, 3, 5, 2
21, 6, 3, 8
7, 2, 6, 0.000000
2, 6, 4, 4
5, 6, 0.000000, 0.000000
8, 7, 4, 6
0.000000, 9, 2, 2
3, 2, 2, 8
9, 6, 6, 2
3, 0.000000, 7, 7
5, 4, 2, 1
0.000000, 2, 0.000000, 1
6, 2, 2, 4
2, 2, 0.000000, 2
6, 5, 60, 2
0.000000, 4, 3, 4
5, 3, 3, 3
5, 0.000000, 6, 2
7, 0.000000, 9, 0.000000
3, 3, 8, 4
4, 4, 0.000000, 0.000000
5, 10, 4.49921, 3.50079
4, 4, 0.000000, 0.000000
3, 6, 0.000000, 2
2, 0.000000, 0.000000, 2
3, 4, 3, 2
5, 0.000000, 4, 2
6, 7, 13, 4
4, 6, 0.000000, 1
5, 3.49921, 1.50079, 0.000000
0.000000, 4.99843, 6.00157, 4
5, 5, 2, 6
3, 9, 0.000000, 4
0.000000, 4, 2, 0.000000
4, 5, 0.000000, 2
3, 0.000000, 2, 2
4.49921, 4.50079, 9, 3.49921
2.50079, 2, 0.000000, 0.000000
6, 5, 3, 5
0.000000, 2, 2, 4
2, 2, 2, 8
3.49921, 7, 2, 2.50079
2, 4, 2, 3
8, 4, 2, 5
2, 0.000000, 0.000000, 0.000000
6, 0.000000, 5, 6.49921
0.500786, 2, 5, 2
7
*END

*EOF