File: XRD:XRR/SCO/22103_S(CT)L/22103_not_annealed_001_XRD.csv
#twotheta, yobs, ycal, bkg, diff
16.0,3.0,1.0,1.0,1.0
16.01,9.4992,1.0,1.0,1.0
16.02,5.5008,1.0,1.0,1.0
16.03,4.0,1.0,1.0,1.0
16.04,2.0,1.0,1.0,1.0
16.05,13.0,1.0,1.0,1.0
16.06,0.0,1.0,1.0,1.0
16.07,2.0,1.0,1.0,1.0
16.08,5.4992,1.0,1.0,1.0
16.09,6.5008,1.0,1.0,1.0
16.1,2.0,1.0,1.0,1.0
16.11,3.0,1.0,1.0,1.0
16.12,2.0,1.0,1.0,1.0
16.13,2.0,1.0,1.0,1.0
16.14,16.0,1.0,1.0,1.0
16.15,3.0,1.0,1.0,1.0
16.16,0.0,1.0,1.0,1.0
16.17,4.0,1.0,1.0,1.0
16.18,3.4992,1.0,1.0,1.0
16.19,7.0,1.0,1.0,1.0
16.2,6.5008,1.0,1.0,1.0
16.21,0.0,1.0,1.0,1.0
16.22,0.0,1.0,1.0,1.0
16.23,3.0,1.0,1.0,1.0
16.24,2.0,1.0,1.0,1.0
16.25,0.0,1.0,1.0,1.0
16.26,14.0,1.0,1.0,1.0
16.27,3.4992,1.0,1.0,1.0
16.28,5.5008,1.0,1.0,1.0
16.29,4.0,1.0,1.0,1.0
16.3,4.0,1.0,1.0,1.0
16.31,4.0,1.0,1.0,1.0
16.32,0.0,1.0,1.0,1.0
16.33,0.4992,1.0,1.0,1.0
16.34,3.5008,1.0,1.0,1.0
16.35,10.0,1.0,1.0,1.0
16.36,4.0,1.0,1.0,1.0
16.37,6.4992,1.0,1.0,1.0
16.38,5.5008,1.0,1.0,1.0
16.39,2.0,1.0,1.0,1.0
16.4,0.0,1.0,1.0,1.0
16.41,2.0,1.0,1.0,1.0
16.42,0.0,1.0,1.0,1.0
16.43,4.0,1.0,1.0,1.0
16.44,2.0,1.0,1.0,1.0
16.45,0.0,1.0,1.0,1.0
16.46,2.0,1.0,1.0,1.0
16.47,2.0,1.0,1.0,1.0
16.48,6.0,1.0,1.0,1.0
16.49,2.0,1.0,1.0,1.0
16.5,2.0,1.0,1.0,1.0
16.51,4.0,1.0,1.0,1.0
16.52,5.0,1.0,1.0,1.0
16.53,2.0,1.0,1.0,1.0
16.54,2.0,1.0,1.0,1.0
16.55,3.0,1.0,1.0,1.0
16.56,4.0,1.0,1.0,1.0
16.57,6.0,1.0,1.0,1.0
16.58,7.0,1.0,1.0,1.0
16.59,0.0,1.0,1.0,1.0
16.6,0.0,1.0,1.0,1.0
16.61,0.0,1.0,1.0,1.0
16.62,4.0,1.0,1.0,1.0
16.63,0.0,1.0,1.0,1.0
16.64,4.0,1.0,1.0,1.0
16.65,7.0,1.0,1.0,1.0
16.66,2.0,1.0,1.0,1.0
16.67,6.0,1.0,1.0,1.0
16.68,1.0,1.0,1.0,1.0
16.69,6.0,1.0,1.0,1.0
16.7,0.0,1.0,1.0,1.0
16.71,5.0,1.0,1.0,1.0
16.72,9.0,1.0,1.0,1.0
16.73,7.0,1.0,1.0,1.0
16.74,8.0,1.0,1.0,1.0
16.75,0.0,1.0,1.0,1.0
16.76,2.0,1.0,1.0,1.0
16.77,4.0,1.0,1.0,1.0
16.78,13.0,1.0,1.0,1.0
16.79,4.0,1.0,1.0,1.0
16.8,0.0,1.0,1.0,1.0
16.81,2.0,1.0,1.0,1.0
16.82,0.0,1.0,1.0,1.0
16.83,4.0,1.0,1.0,1.0
16.84,0.0,1.0,1.0,1.0
16.85,4.0,1.0,1.0,1.0
16.86,3.0,1.0,1.0,1.0
16.87,11.0,1.0,1.0,1.0
16.88,2.0,1.0,1.0,1.0
16.89,2.0,1.0,1.0,1.0
16.9,0.0,1.0,1.0,1.0
16.91,4.0,1.0,1.0,1.0
16.92,5.0,1.0,1.0,1.0
16.93,14.0,1.0,1.0,1.0
16.94,7.0,1.0,1.0,1.0
16.95,2.0,1.0,1.0,1.0
16.96,3.0,1.0,1.0,1.0
16.97,0.0,1.0,1.0,1.0
16.98,0.0,1.0,1.0,1.0
16.99,6.0,1.0,1.0,1.0
17.0,1.0,1.0,1.0,1.0
17.01,0.0,1.0,1.0,1.0
17.02,10.0,1.0,1.0,1.0
17.03,2.0,1.0,1.0,1.0
17.04,7.0,1.0,1.0,1.0
17.05,2.0,1.0,1.0,1.0
17.06,8.0,1.0,1.0,1.0
17.07,11.0,1.0,1.0,1.0
17.08,4.0,1.0,1.0,1.0
17.09,5.0,1.0,1.0,1.0
17.1,3.0,1.0,1.0,1.0
17.11,4.4992,1.0,1.0,1.0
17.12,5.5008,1.0,1.0,1.0
17.13,2.0,1.0,1.0,1.0
17.14,0.0,1.0,1.0,1.0
17.15,0.0,1.0,1.0,1.0
17.16,4.0,1.0,1.0,1.0
17.17,0.0,1.0,1.0,1.0
17.18,2.0,1.0,1.0,1.0
17.19,24.0,1.0,1.0,1.0
17.2,4.0,1.0,1.0,1.0
17.21,1.4992,1.0,1.0,1.0
17.22,2.5008,1.0,1.0,1.0
17.23,6.0,1.0,1.0,1.0
17.24,3.0,1.0,1.0,1.0
17.25,9.0,1.0,1.0,1.0
17.26,5.0,1.0,1.0,1.0
17.27,2.0,1.0,1.0,1.0
17.28,10.0,1.0,1.0,1.0
17.29,0.0,1.0,1.0,1.0
17.3,6.0,1.0,1.0,1.0
17.31,8.4992,1.0,1.0,1.0
17.32,6.5008,1.0,1.0,1.0
17.33,0.0,1.0,1.0,1.0
17.34,2.0,1.0,1.0,1.0
17.35,8.0,1.0,1.0,1.0
17.36,0.0,1.0,1.0,1.0
17.37,6.0,1.0,1.0,1.0
17.38,7.0,1.0,1.0,1.0
17.39,11.0,1.0,1.0,1.0
17.4,6.0,1.0,1.0,1.0
17.41,5.0,1.0,1.0,1.0
17.42,4.0,1.0,1.0,1.0
17.43,4.0,1.0,1.0,1.0
17.44,0.0,1.0,1.0,1.0
17.45,0.0,1.0,1.0,1.0
17.46,3.0,1.0,1.0,1.0
17.47,2.0,1.0,1.0,1.0
17.48,2.0,1.0,1.0,1.0
17.49,0.0,1.0,1.0,1.0
17.5,5.0,1.0,1.0,1.0
17.51,3.0,1.0,1.0,1.0
17.52,3.0,1.0,1.0,1.0
17.53,6.0,1.0,1.0,1.0
17.54,2.0,1.0,1.0,1.0
17.55,3.0,1.0,1.0,1.0
17.56,0.0,1.0,1.0,1.0
17.57,4.0,1.0,1.0,1.0
17.58,6.4992,1.0,1.0,1.0
17.59,3.5008,1.0,1.0,1.0
17.6,0.0,1.0,1.0,1.0
17.61,4.0,1.0,1.0,1.0
17.62,7.0,1.0,1.0,1.0
17.63,3.0,1.0,1.0,1.0
17.64,5.0,1.0,1.0,1.0
17.65,0.0,1.0,1.0,1.0
17.66,9.0,1.0,1.0,1.0
17.67,2.0,1.0,1.0,1.0
17.68,4.0,1.0,1.0,1.0
17.69,4.0,1.0,1.0,1.0
17.7,0.0,1.0,1.0,1.0
17.71,10.0,1.0,1.0,1.0
17.72,2.0,1.0,1.0,1.0
17.73,4.0,1.0,1.0,1.0
17.74,0.0,1.0,1.0,1.0
17.75,4.0,1.0,1.0,1.0
17.76,15.0,1.0,1.0,1.0
17.77,9.0,1.0,1.0,1.0
17.78,2.0,1.0,1.0,1.0
17.79,2.0,1.0,1.0,1.0
17.8,6.0,1.0,1.0,1.0
17.81,2.0,1.0,1.0,1.0
17.82,4.4992,1.0,1.0,1.0
17.83,2.5008,1.0,1.0,1.0
17.84,8.0,1.0,1.0,1.0
17.85,6.0,1.0,1.0,1.0
17.86,0.0,1.0,1.0,1.0
17.87,5.0,1.0,1.0,1.0
17.88,2.0,1.0,1.0,1.0
17.89,5.0,1.0,1.0,1.0
17.9,15.9969,1.0,1.0,1.0
17.91,4.0031,1.0,1.0,1.0
17.92,6.4992,1.0,1.0,1.0
17.93,11.5008,1.0,1.0,1.0
17.94,9.0,1.0,1.0,1.0
17.95,0.0,1.0,1.0,1.0
17.96,4.0,1.0,1.0,1.0
17.97,5.0,1.0,1.0,1.0
17.98,8.0,1.0,1.0,1.0
17.99,9.0,1.0,1.0,1.0
18.0,14.4992,1.0,1.0,1.0
18.01,16.5008,1.0,1.0,1.0
18.02,6.0,1.0,1.0,1.0
18.03,4.0,1.0,1.0,1.0
18.04,11.0,1.0,1.0,1.0
18.05,3.0,1.0,1.0,1.0
18.06,6.0,1.0,1.0,1.0
18.07,0.0,1.0,1.0,1.0
18.08,4.0,1.0,1.0,1.0
18.09,5.0,1.0,1.0,1.0
18.1,2.4992,1.0,1.0,1.0
18.11,8.5008,1.0,1.0,1.0
18.12,2.0,1.0,1.0,1.0
18.13,9.0,1.0,1.0,1.0
18.14,5.0,1.0,1.0,1.0
18.15,28.0,1.0,1.0,1.0
18.16,4.0,1.0,1.0,1.0
18.17,2.0,1.0,1.0,1.0
18.18,2.0,1.0,1.0,1.0
18.19,4.0,1.0,1.0,1.0
18.2,2.0,1.0,1.0,1.0
18.21,9.0,1.0,1.0,1.0
18.22,2.0,1.0,1.0,1.0
18.23,0.0,1.0,1.0,1.0
18.24,5.0,1.0,1.0,1.0
18.25,4.0,1.0,1.0,1.0
18.26,2.0,1.0,1.0,1.0
18.27,2.0,1.0,1.0,1.0
18.28,6.0,1.0,1.0,1.0
18.29,0.0,1.0,1.0,1.0
18.3,5.0,1.0,1.0,1.0
18.31,7.0,1.0,1.0,1.0
18.32,13.0,1.0,1.0,1.0
18.33,9.0,1.0,1.0,1.0
18.34,4.0,1.0,1.0,1.0
18.35,10.0,1.0,1.0,1.0
18.36,5.0,1.0,1.0,1.0
18.37,9.4992,1.0,1.0,1.0
18.38,2.5008,1.0,1.0,1.0
18.39,2.0,1.0,1.0,1.0
18.4,2.0,1.0,1.0,1.0
18.41,5.0,1.0,1.0,1.0
18.42,8.0,1.0,1.0,1.0
18.43,2.0,1.0,1.0,1.0
18.44,7.0,1.0,1.0,1.0
18.45,8.9984,1.0,1.0,1.0
18.46,4.5008,1.0,1.0,1.0
18.47,8.0,1.0,1.0,1.0
18.48,9.0,1.0,1.0,1.0
18.49,0.5008,1.0,1.0,1.0
18.5,5.0,1.0,1.0,1.0
18.51,7.0,1.0,1.0,1.0
18.52,18.0,1.0,1.0,1.0
18.53,6.0,1.0,1.0,1.0
18.54,10.0,1.0,1.0,1.0
18.55,0.0,1.0,1.0,1.0
18.56,0.0,1.0,1.0,1.0
18.57,3.0,1.0,1.0,1.0
18.58,0.0,1.0,1.0,1.0
18.59,9.0,1.0,1.0,1.0
18.6,4.0,1.0,1.0,1.0
18.61,0.0,1.0,1.0,1.0
18.62,9.0,1.0,1.0,1.0
18.63,6.0,1.0,1.0,1.0
18.64,2.0,1.0,1.0,1.0
18.65,2.0,1.0,1.0,1.0
18.66,5.0,1.0,1.0,1.0
18.67,7.0,1.0,1.0,1.0
18.68,6.4992,1.0,1.0,1.0
18.69,8.5008,1.0,1.0,1.0
18.7,7.0,1.0,1.0,1.0
18.71,4.0,1.0,1.0,1.0
18.72,9.4992,1.0,1.0,1.0
18.73,1.5008,1.0,1.0,1.0
18.74,2.0,1.0,1.0,1.0
18.75,2.0,1.0,1.0,1.0
18.76,15.4992,1.0,1.0,1.0
18.77,2.5008,1.0,1.0,1.0
18.78,3.0,1.0,1.0,1.0
18.79,0.0,1.0,1.0,1.0
18.8,2.0,1.0,1.0,1.0
18.81,7.0,1.0,1.0,1.0
18.82,9.0,1.0,1.0,1.0
18.83,0.0,1.0,1.0,1.0
18.84,5.0,1.0,1.0,1.0
18.85,6.0,1.0,1.0,1.0
18.86,0.0,1.0,1.0,1.0
18.87,4.0,1.0,1.0,1.0
18.88,4.0,1.0,1.0,1.0
18.89,6.0,1.0,1.0,1.0
18.9,6.0,1.0,1.0,1.0
18.91,10.0,1.0,1.0,1.0
18.92,2.0,1.0,1.0,1.0
18.93,4.0,1.0,1.0,1.0
18.94,8.9984,1.0,1.0,1.0
18.95,8.0016,1.0,1.0,1.0
18.96,10.0,1.0,1.0,1.0
18.97,4.0,1.0,1.0,1.0
18.98,3.0,1.0,1.0,1.0
18.99,3.0,1.0,1.0,1.0
19.0,5.9984,1.0,1.0,1.0
19.01,8.0016,1.0,1.0,1.0
19.02,10.0,1.0,1.0,1.0
19.03,10.0,1.0,1.0,1.0
19.04,8.0,1.0,1.0,1.0
19.05,0.4992,1.0,1.0,1.0
19.06,9.5008,1.0,1.0,1.0
19.07,2.0,1.0,1.0,1.0
19.08,13.0,1.0,1.0,1.0
19.09,7.0,1.0,1.0,1.0
19.1,5.0,1.0,1.0,1.0
19.11,6.4992,1.0,1.0,1.0
19.12,13.5008,1.0,1.0,1.0
19.13,5.0,1.0,1.0,1.0
19.14,2.0,1.0,1.0,1.0
19.15,4.0,1.0,1.0,1.0
19.16,8.0,1.0,1.0,1.0
19.17,8.4992,1.0,1.0,1.0
19.18,3.5008,1.0,1.0,1.0
19.19,4.0,1.0,1.0,1.0
19.2,2.0,1.0,1.0,1.0
19.21,8.0,1.0,1.0,1.0
19.22,6.0,1.0,1.0,1.0
19.23,10.0,1.0,1.0,1.0
19.24,2.0,1.0,1.0,1.0
19.25,4.0,1.0,1.0,1.0
19.26,7.0,1.0,1.0,1.0
19.27,3.0,1.0,1.0,1.0
19.28,4.0,1.0,1.0,1.0
19.29,13.0,1.0,1.0,1.0
19.3,0.0,1.0,1.0,1.0
19.31,6.0,1.0,1.0,1.0
19.32,4.0,1.0,1.0,1.0
19.33,4.0,1.0,1.0,1.0
19.34,9.0,1.0,1.0,1.0
19.35,7.0,1.0,1.0,1.0
19.36,6.0,1.0,1.0,1.0
19.37,2.0,1.0,1.0,1.0
19.38,8.0,1.0,1.0,1.0
19.39,0.0,1.0,1.0,1.0
19.4,3.9984,1.0,1.0,1.0
19.41,4.0016,1.0,1.0,1.0
19.42,4.0,1.0,1.0,1.0
19.43,7.0,1.0,1.0,1.0
19.44,6.0,1.0,1.0,1.0
19.45,3.4992,1.0,1.0,1.0
19.46,2.5008,1.0,1.0,1.0
19.47,7.4992,1.0,1.0,1.0
19.48,8.5008,1.0,1.0,1.0
19.49,2.0,1.0,1.0,1.0
19.5,2.0,1.0,1.0,1.0
19.51,4.0,1.0,1.0,1.0
19.52,0.0,1.0,1.0,1.0
19.53,7.0,1.0,1.0,1.0
19.54,7.0,1.0,1.0,1.0
19.55,5.0,1.0,1.0,1.0
19.56,7.0,1.0,1.0,1.0
19.57,3.0,1.0,1.0,1.0
19.58,9.0,1.0,1.0,1.0
19.59,0.0,1.0,1.0,1.0
19.6,7.0,1.0,1.0,1.0
19.61,4.4992,1.0,1.0,1.0
19.62,5.5008,1.0,1.0,1.0
19.63,8.0,1.0,1.0,1.0
19.64,2.0,1.0,1.0,1.0
19.65,4.0,1.0,1.0,1.0
19.66,2.0,1.0,1.0,1.0
19.67,3.0,1.0,1.0,1.0
19.68,5.0,1.0,1.0,1.0
19.69,6.0,1.0,1.0,1.0
19.7,2.0,1.0,1.0,1.0
19.71,0.0,1.0,1.0,1.0
19.72,3.0,1.0,1.0,1.0
19.73,0.0,1.0,1.0,1.0
19.74,7.0,1.0,1.0,1.0
19.75,4.0,1.0,1.0,1.0
19.76,4.0,1.0,1.0,1.0
19.77,7.0,1.0,1.0,1.0
19.78,2.0,1.0,1.0,1.0
19.79,13.0,1.0,1.0,1.0
19.8,3.0,1.0,1.0,1.0
19.81,4.0,1.0,1.0,1.0
19.82,3.0,1.0,1.0,1.0
19.83,5.0,1.0,1.0,1.0
19.84,2.0,1.0,1.0,1.0
19.85,1.0,1.0,1.0,1.0
19.86,3.0,1.0,1.0,1.0
19.87,2.0,1.0,1.0,1.0
19.88,4.0,1.0,1.0,1.0
19.89,2.0,1.0,1.0,1.0
19.9,3.0,1.0,1.0,1.0
19.91,0.0,1.0,1.0,1.0
19.92,8.0,1.0,1.0,1.0
19.93,4.0,1.0,1.0,1.0
19.94,4.0,1.0,1.0,1.0
19.95,0.0,1.0,1.0,1.0
19.96,4.0,1.0,1.0,1.0
19.97,0.0,1.0,1.0,1.0
19.98,2.0,1.0,1.0,1.0
19.99,5.0,1.0,1.0,1.0
20.0,2.0,1.0,1.0,1.0
20.01,2.0,1.0,1.0,1.0
20.02,5.0,1.0,1.0,1.0
20.03,0.0,1.0,1.0,1.0
20.04,0.4992,1.0,1.0,1.0
20.05,9.5008,1.0,1.0,1.0
20.06,2.0,1.0,1.0,1.0
20.07,40.0,1.0,1.0,1.0
20.08,6.0,1.0,1.0,1.0
20.09,3.4992,1.0,1.0,1.0
20.1,9.5008,1.0,1.0,1.0
20.11,7.9953,1.0,1.0,1.0
20.12,11.0047,1.0,1.0,1.0
20.13,8.0,1.0,1.0,1.0
20.14,2.0,1.0,1.0,1.0
20.15,5.0,1.0,1.0,1.0
20.16,6.0,1.0,1.0,1.0
20.17,2.0,1.0,1.0,1.0
20.18,3.0,1.0,1.0,1.0
20.19,8.0,1.0,1.0,1.0
20.2,3.0,1.0,1.0,1.0
20.21,10.0,1.0,1.0,1.0
20.22,4.0,1.0,1.0,1.0
20.23,2.0,1.0,1.0,1.0
20.24,2.0,1.0,1.0,1.0
20.25,4.0,1.0,1.0,1.0
20.26,2.0,1.0,1.0,1.0
20.27,0.0,1.0,1.0,1.0
20.28,2.0,1.0,1.0,1.0
20.29,5.0,1.0,1.0,1.0
20.3,2.0,1.0,1.0,1.0
20.31,5.0,1.0,1.0,1.0
20.32,4.0,1.0,1.0,1.0
20.33,5.0,1.0,1.0,1.0
20.34,9.0,1.0,1.0,1.0
20.35,2.0,1.0,1.0,1.0
20.36,2.0,1.0,1.0,1.0
20.37,8.0,1.0,1.0,1.0
20.38,2.0,1.0,1.0,1.0
20.39,0.0,1.0,1.0,1.0
20.4,4.0,1.0,1.0,1.0
20.41,6.0,1.0,1.0,1.0
20.42,2.0,1.0,1.0,1.0
20.43,2.0,1.0,1.0,1.0
20.44,10.0,1.0,1.0,1.0
20.45,2.0,1.0,1.0,1.0
20.46,6.0,1.0,1.0,1.0
20.47,0.0,1.0,1.0,1.0
20.48,9.0,1.0,1.0,1.0
20.49,2.0,1.0,1.0,1.0
20.5,5.0,1.0,1.0,1.0
20.51,2.0,1.0,1.0,1.0
20.52,0.0,1.0,1.0,1.0
20.53,2.0,1.0,1.0,1.0
20.54,8.0,1.0,1.0,1.0
20.55,3.0,1.0,1.0,1.0
20.56,5.0,1.0,1.0,1.0
20.57,6.0,1.0,1.0,1.0
20.58,0.0,1.0,1.0,1.0
20.59,4.0,1.0,1.0,1.0
20.6,5.0,1.0,1.0,1.0
20.61,6.0,1.0,1.0,1.0
20.62,4.0,1.0,1.0,1.0
20.63,3.0,1.0,1.0,1.0
20.64,0.0,1.0,1.0,1.0
20.65,2.0,1.0,1.0,1.0
20.66,4.0,1.0,1.0,1.0
20.67,6.0,1.0,1.0,1.0
20.68,12.0,1.0,1.0,1.0
20.69,9.0,1.0,1.0,1.0
20.7,5.4992,1.0,1.0,1.0
20.71,10.5008,1.0,1.0,1.0
20.72,2.0,1.0,1.0,1.0
20.73,7.0,1.0,1.0,1.0
20.74,4.0,1.0,1.0,1.0
20.75,6.0,1.0,1.0,1.0
20.76,2.4992,1.0,1.0,1.0
20.77,8.5008,1.0,1.0,1.0
20.78,2.0,1.0,1.0,1.0
20.79,10.0,1.0,1.0,1.0
20.8,4.0,1.0,1.0,1.0
20.81,3.0,1.0,1.0,1.0
20.82,7.0,1.0,1.0,1.0
20.83,7.0,1.0,1.0,1.0
20.84,13.0,1.0,1.0,1.0
20.85,5.0,1.0,1.0,1.0
20.86,4.0,1.0,1.0,1.0
20.87,12.0,1.0,1.0,1.0
20.88,7.0,1.0,1.0,1.0
20.89,3.0,1.0,1.0,1.0
20.9,19.0,1.0,1.0,1.0
20.91,6.0,1.0,1.0,1.0
20.92,5.4992,1.0,1.0,1.0
20.93,6.5008,1.0,1.0,1.0
20.94,5.0,1.0,1.0,1.0
20.95,12.0,1.0,1.0,1.0
20.96,0.0,1.0,1.0,1.0
20.97,2.0,1.0,1.0,1.0
20.98,4.0,1.0,1.0,1.0
20.99,10.0,1.0,1.0,1.0
21.0,5.0,1.0,1.0,1.0
21.01,9.4992,1.0,1.0,1.0
21.02,4.5008,1.0,1.0,1.0
21.03,3.0,1.0,1.0,1.0
21.04,3.0,1.0,1.0,1.0
21.05,5.0,1.0,1.0,1.0
21.06,2.0,1.0,1.0,1.0
21.07,4.0,1.0,1.0,1.0
21.08,10.0,1.0,1.0,1.0
21.09,8.4992,1.0,1.0,1.0
21.1,7.5008,1.0,1.0,1.0
21.11,8.0,1.0,1.0,1.0
21.12,10.0,1.0,1.0,1.0
21.13,19.0,1.0,1.0,1.0
21.14,6.0,1.0,1.0,1.0
21.15,7.0,1.0,1.0,1.0
21.16,7.0,1.0,1.0,1.0
21.17,12.0,1.0,1.0,1.0
21.18,10.0,1.0,1.0,1.0
21.19,7.0,1.0,1.0,1.0
21.2,4.4992,1.0,1.0,1.0
21.21,5.5008,1.0,1.0,1.0
21.22,3.0,1.0,1.0,1.0
21.23,6.0,1.0,1.0,1.0
21.24,5.0,1.0,1.0,1.0
21.25,2.0,1.0,1.0,1.0
21.26,6.4992,1.0,1.0,1.0
21.27,12.0,1.0,1.0,1.0
21.28,7.5008,1.0,1.0,1.0
21.29,4.0,1.0,1.0,1.0
21.3,5.0,1.0,1.0,1.0
21.31,4.0,1.0,1.0,1.0
21.32,9.0,1.0,1.0,1.0
21.33,2.0,1.0,1.0,1.0
21.34,0.0,1.0,1.0,1.0
21.35,4.0,1.0,1.0,1.0
21.36,14.4992,1.0,1.0,1.0
21.37,9.5008,1.0,1.0,1.0
21.38,5.0,1.0,1.0,1.0
21.39,7.0,1.0,1.0,1.0
21.4,2.0,1.0,1.0,1.0
21.41,7.0,1.0,1.0,1.0
21.42,6.0,1.0,1.0,1.0
21.43,10.0,1.0,1.0,1.0
21.44,7.0,1.0,1.0,1.0
21.45,12.0,1.0,1.0,1.0
21.46,7.0,1.0,1.0,1.0
21.47,6.0,1.0,1.0,1.0
21.48,9.0,1.0,1.0,1.0
21.49,2.0,1.0,1.0,1.0
21.5,8.0,1.0,1.0,1.0
21.51,11.0,1.0,1.0,1.0
21.52,9.0,1.0,1.0,1.0
21.53,6.0,1.0,1.0,1.0
21.54,11.0,1.0,1.0,1.0
21.55,12.0,1.0,1.0,1.0
21.56,6.0,1.0,1.0,1.0
21.57,3.0,1.0,1.0,1.0
21.58,7.0,1.0,1.0,1.0
21.59,8.4992,1.0,1.0,1.0
21.6,4.5008,1.0,1.0,1.0
21.61,9.0,1.0,1.0,1.0
21.62,5.0,1.0,1.0,1.0
21.63,2.0,1.0,1.0,1.0
21.64,6.0,1.0,1.0,1.0
21.65,17.0,1.0,1.0,1.0
21.66,2.0,1.0,1.0,1.0
21.67,13.4992,1.0,1.0,1.0
21.68,6.0,1.0,1.0,1.0
21.69,6.5008,1.0,1.0,1.0
21.7,6.0,1.0,1.0,1.0
21.71,0.0,1.0,1.0,1.0
21.72,6.0,1.0,1.0,1.0
21.73,9.4992,1.0,1.0,1.0
21.74,8.5008,1.0,1.0,1.0
21.75,15.0,1.0,1.0,1.0
21.76,4.9984,1.0,1.0,1.0
21.77,19.0016,1.0,1.0,1.0
21.78,16.0,1.0,1.0,1.0
21.79,12.0,1.0,1.0,1.0
21.8,10.0,1.0,1.0,1.0
21.81,15.4992,1.0,1.0,1.0
21.82,25.5008,1.0,1.0,1.0
21.83,14.0,1.0,1.0,1.0
21.84,16.0,1.0,1.0,1.0
21.85,13.0,1.0,1.0,1.0
21.86,10.0,1.0,1.0,1.0
21.87,11.0,1.0,1.0,1.0
21.88,10.0,1.0,1.0,1.0
21.89,4.0,1.0,1.0,1.0
21.9,11.0,1.0,1.0,1.0
21.91,16.0,1.0,1.0,1.0
21.92,21.4992,1.0,1.0,1.0
21.93,15.5008,1.0,1.0,1.0
21.94,12.4992,1.0,1.0,1.0
21.95,14.5008,1.0,1.0,1.0
21.96,8.0,1.0,1.0,1.0
21.97,6.4992,1.0,1.0,1.0
21.98,9.5008,1.0,1.0,1.0
21.99,12.0,1.0,1.0,1.0
22.0,10.0,1.0,1.0,1.0
22.01,11.0,1.0,1.0,1.0
22.02,8.0,1.0,1.0,1.0
22.03,26.0,1.0,1.0,1.0
22.04,25.9984,1.0,1.0,1.0
22.05,21.5008,1.0,1.0,1.0
22.06,34.5008,1.0,1.0,1.0
22.07,27.9984,1.0,1.0,1.0
22.08,63.5008,1.0,1.0,1.0
22.09,59.0,1.0,1.0,1.0
22.1,92.0,1.0,1.0,1.0
22.11,101.4992,1.0,1.0,1.0
22.12,94.0,1.0,1.0,1.0
22.13,111.0,1.0,1.0,1.0
22.14,166.9984,1.0,1.0,1.0
22.15,155.4992,1.0,1.0,1.0
22.16,165.0,1.0,1.0,1.0
22.17,229.0016,1.0,1.0,1.0
22.18,200.0,1.0,1.0,1.0
22.19,228.9969,1.0,1.0,1.0
22.2,236.0016,1.0,1.0,1.0
22.21,265.9969,1.0,1.0,1.0
22.22,322.0016,1.0,1.0,1.0
22.23,309.9984,1.0,1.0,1.0
22.24,348.0,1.0,1.0,1.0
22.25,394.4977,1.0,1.0,1.0
22.26,396.5039,1.0,1.0,1.0
22.27,421.9953,1.0,1.0,1.0
22.28,486.0031,1.0,1.0,1.0
22.29,491.0016,1.0,1.0,1.0
22.3,513.4945,1.0,1.0,1.0
22.31,507.0063,1.0,1.0,1.0
22.32,573.9905,1.0,1.0,1.0
22.33,580.5008,1.0,1.0,1.0
22.34,594.0032,1.0,1.0,1.0
22.35,584.9984,1.0,1.0,1.0
22.36,604.5008,1.0,1.0,1.0
22.37,669.0,1.0,1.0,1.0
22.38,665.5008,1.0,1.0,1.0
22.39,716.4992,1.0,1.0,1.0
22.4,619.4992,1.0,1.0,1.0
22.41,724.5024,1.0,1.0,1.0
22.42,707.0,1.0,1.0,1.0
22.43,661.9968,1.0,1.0,1.0
22.44,721.5071,1.0,1.0,1.0
22.45,692.4945,1.0,1.0,1.0
22.46,678.5008,1.0,1.0,1.0
22.47,640.4961,1.0,1.0,1.0
22.48,668.5055,1.0,1.0,1.0
22.49,723.0032,1.0,1.0,1.0
22.5,631.9968,1.0,1.0,1.0
22.51,668.4976,1.0,1.0,1.0
22.52,669.0079,1.0,1.0,1.0
22.53,656.4898,1.0,1.0,1.0
22.54,647.5024,1.0,1.0,1.0
22.55,610.0032,1.0,1.0,1.0
22.56,556.4976,1.0,1.0,1.0
22.57,553.4976,1.0,1.0,1.0
22.58,544.5039,1.0,1.0,1.0
22.59,523.0016,1.0,1.0,1.0
22.6,560.4976,1.0,1.0,1.0
22.61,485.9969,1.0,1.0,1.0
22.62,472.0063,1.0,1.0,1.0
22.63,419.0,1.0,1.0,1.0
22.64,451.4961,1.0,1.0,1.0
22.65,373.0047,1.0,1.0,1.0
22.66,404.4992,1.0,1.0,1.0
22.67,372.4992,1.0,1.0,1.0
22.68,340.0,1.0,1.0,1.0
22.69,335.5039,1.0,1.0,1.0
22.7,318.4977,1.0,1.0,1.0
22.71,330.5039,1.0,1.0,1.0
22.72,301.9937,1.0,1.0,1.0
22.73,293.5008,1.0,1.0,1.0
22.74,283.0063,1.0,1.0,1.0
22.75,280.9969,1.0,1.0,1.0
22.76,286.0,1.0,1.0,1.0
22.77,277.9969,1.0,1.0,1.0
22.78,297.0047,1.0,1.0,1.0
22.79,252.0,1.0,1.0,1.0
22.8,241.5008,1.0,1.0,1.0
22.81,271.5008,1.0,1.0,1.0
22.82,260.9969,1.0,1.0,1.0
22.83,294.5008,1.0,1.0,1.0
22.84,281.4977,1.0,1.0,1.0
22.85,257.0,1.0,1.0,1.0
22.86,290.5023,1.0,1.0,1.0
22.87,296.5008,1.0,1.0,1.0
22.88,235.9969,1.0,1.0,1.0
22.89,272.5008,1.0,1.0,1.0
22.9,270.5008,1.0,1.0,1.0
22.91,321.5008,1.0,1.0,1.0
22.92,340.4961,1.0,1.0,1.0
22.93,325.0016,1.0,1.0,1.0
22.94,336.5008,1.0,1.0,1.0
22.95,353.0,1.0,1.0,1.0
22.96,349.0,1.0,1.0,1.0
22.97,383.9984,1.0,1.0,1.0
22.98,343.0047,1.0,1.0,1.0
22.99,389.9953,1.0,1.0,1.0
23.0,358.4992,1.0,1.0,1.0
23.01,367.5008,1.0,1.0,1.0
23.02,427.0016,1.0,1.0,1.0
23.03,399.5023,1.0,1.0,1.0
23.04,411.9953,1.0,1.0,1.0
23.05,495.9984,1.0,1.0,1.0
23.06,494.0016,1.0,1.0,1.0
23.07,470.5008,1.0,1.0,1.0
23.08,548.0,1.0,1.0,1.0
23.09,530.9937,1.0,1.0,1.0
23.1,545.0016,1.0,1.0,1.0
23.11,581.4976,1.0,1.0,1.0
23.12,592.5055,1.0,1.0,1.0
23.13,634.9968,1.0,1.0,1.0
23.14,655.5008,1.0,1.0,1.0
23.15,719.0032,1.0,1.0,1.0
23.16,759.4913,1.0,1.0,1.0
23.17,834.0047,1.0,1.0,1.0
23.18,890.9953,1.0,1.0,1.0
23.19,1034,1.0,1.0,1.0
23.2,1061.5,1.0,1.0,1.0
23.21,1174.5,1.0,1.0,1.0
23.22,1289.0,1.0,1.0,1.0
23.23,1400.49,1.0,1.0,1.0
23.24,1551.99,1.0,1.0,1.0
23.25,1885,1.0,1.0,1.0
23.26,2022.99,1.0,1.0,1.0
23.27,2252.0,1.0,1.0,1.0
23.28,2616.49,1.0,1.0,1.0
23.29,3029.989,1.0,1.0,1.0
23.3,3746,1.0,1.0,1.0
23.31,4412.981,1.0,1.0,1.0
23.32,5605.49,1.0,1.0,1.0
23.33,7023.47,1.0,1.0,1.0
23.34,9564.45,1.0,1.0,1.0
23.35,13376.9,1.0,1.0,1.0
23.36,20064.4,1.0,1.0,1.0
23.37,30841.8,1.0,1.0,1.0
23.38,48340.1,1.0,1.0,1.0
23.39,77787.9,1.0,1.0,1.0
23.4,128304,1.0,1.0,1.0
23.41,216878,1.0,1.0,1.0
23.42,390258,1.0,1.0,1.0
23.43,862891.0,1.0,1.0,1.0
23.44,2758493.75,1.0,1.0,1.0
23.45,8771997.0,1.0,1.0,1.0
23.46,20550458.0,1.0,1.0,1.0
23.47,27676624.0,1.0,1.0,1.0
23.48,15339486.0,1.0,1.0,1.0
23.49,6164882.0,1.0,1.0,1.0
23.5,1946268.5,1.0,1.0,1.0
23.51,688997.125,1.0,1.0,1.0
23.52,343007,1.0,1.0,1.0
23.53,189446,1.0,1.0,1.0
23.54,107408,1.0,1.0,1.0
23.55,63815,1.0,1.0,1.0
23.56,40855.3,1.0,1.0,1.0
23.57,26796.668,1.0,1.0,1.0
23.58,17703.1,1.0,1.0,1.0
23.59,12335.6,1.0,1.0,1.0
23.6,9068.56,1.0,1.0,1.0
23.61,6757.53,1.0,1.0,1.0
23.62,5392.51,1.0,1.0,1.0
23.63,4237.01,1.0,1.0,1.0
23.64,3423.51,1.0,1.0,1.0
23.65,2871.01,1.0,1.0,1.0
23.66,2344.01,1.0,1.0,1.0
23.67,2107.5,1.0,1.0,1.0
23.68,1760.52,1.0,1.0,1.0
23.69,1569.49,1.0,1.0,1.0
23.7,1381.5,1.0,1.0,1.0
23.71,1217.5,1.0,1.0,1.0
23.72,1186.5,1.0,1.0,1.0
23.73,1075.5,1.0,1.0,1.0
23.74,1024.5,1.0,1.0,1.0
23.75,909.5024,1.0,1.0,1.0
23.76,818.0016,1.0,1.0,1.0
23.77,769.4976,1.0,1.0,1.0
23.78,698.5008,1.0,1.0,1.0
23.79,632.5039,1.0,1.0,1.0
23.8,621.4976,1.0,1.0,1.0
23.81,517.5024,1.0,1.0,1.0
23.82,505.5008,1.0,1.0,1.0
23.83,494.4992,1.0,1.0,1.0
23.84,422.0031,1.0,1.0,1.0
23.85,405.4992,1.0,1.0,1.0
23.86,378.9984,1.0,1.0,1.0
23.87,367.9984,1.0,1.0,1.0
23.88,354.5023,1.0,1.0,1.0
23.89,319.0,1.0,1.0,1.0
23.9,299.4992,1.0,1.0,1.0
23.91,291.0016,1.0,1.0,1.0
23.92,289.4992,1.0,1.0,1.0
23.93,220.0016,1.0,1.0,1.0
23.94,257.9969,1.0,1.0,1.0
23.95,213.5055,1.0,1.0,1.0
23.96,215.4992,1.0,1.0,1.0
23.97,171.0,1.0,1.0,1.0
23.98,213.9984,1.0,1.0,1.0
23.99,203.0016,1.0,1.0,1.0
24.0,222.0016,1.0,1.0,1.0
24.01,162.4961,1.0,1.0,1.0
24.02,177.0,1.0,1.0,1.0
24.03,181.0016,1.0,1.0,1.0
24.04,177.5024,1.0,1.0,1.0
24.05,155.4976,1.0,1.0,1.0
24.06,161.5008,1.0,1.0,1.0
24.07,156.0016,1.0,1.0,1.0
24.08,141.9984,1.0,1.0,1.0
24.09,174.0016,1.0,1.0,1.0
24.1,130.9984,1.0,1.0,1.0
24.11,160.9984,1.0,1.0,1.0
24.12,132.5024,1.0,1.0,1.0
24.13,112.4992,1.0,1.0,1.0
24.14,143.5024,1.0,1.0,1.0
24.15,100.9969,1.0,1.0,1.0
24.16,122.4992,1.0,1.0,1.0
24.17,136.0016,1.0,1.0,1.0
24.18,114.0,1.0,1.0,1.0
24.19,136.0016,1.0,1.0,1.0
24.2,111.4992,1.0,1.0,1.0
24.21,112.5008,1.0,1.0,1.0
24.22,73.4992,1.0,1.0,1.0
24.23,95.0,1.0,1.0,1.0
24.24,85.5008,1.0,1.0,1.0
24.25,105.5008,1.0,1.0,1.0
24.26,92.9984,1.0,1.0,1.0
24.27,65.4992,1.0,1.0,1.0
24.28,69.5024,1.0,1.0,1.0
24.29,86.9984,1.0,1.0,1.0
24.3,75.4992,1.0,1.0,1.0
24.31,57.5024,1.0,1.0,1.0
24.32,56.4992,1.0,1.0,1.0
24.33,62.5008,1.0,1.0,1.0
24.34,67.9984,1.0,1.0,1.0
24.35,65.5008,1.0,1.0,1.0
24.36,48.5008,1.0,1.0,1.0
24.37,49.9984,1.0,1.0,1.0
24.38,80.4992,1.0,1.0,1.0
24.39,72.0016,1.0,1.0,1.0
24.4,64.5008,1.0,1.0,1.0
24.41,49.4992,1.0,1.0,1.0
24.42,57.0,1.0,1.0,1.0
24.43,66.4992,1.0,1.0,1.0
24.44,53.5008,1.0,1.0,1.0
24.45,81.4976,1.0,1.0,1.0
24.46,62.0031,1.0,1.0,1.0
24.47,50.0,1.0,1.0,1.0
24.48,71.9984,1.0,1.0,1.0
24.49,75.5008,1.0,1.0,1.0
24.5,61.5008,1.0,1.0,1.0
24.51,42.4976,1.0,1.0,1.0
24.52,59.0016,1.0,1.0,1.0
24.53,45.5008,1.0,1.0,1.0
24.54,45.4992,1.0,1.0,1.0
24.55,46.0,1.0,1.0,1.0
24.56,49.5008,1.0,1.0,1.0
24.57,34.0,1.0,1.0,1.0
24.58,39.0,1.0,1.0,1.0
24.59,49.9984,1.0,1.0,1.0
24.6,28.0016,1.0,1.0,1.0
24.61,13.0,1.0,1.0,1.0
24.62,47.9984,1.0,1.0,1.0
24.63,19.0016,1.0,1.0,1.0
24.64,32.0,1.0,1.0,1.0
24.65,23.0,1.0,1.0,1.0
24.66,28.9984,1.0,1.0,1.0
24.67,35.5008,1.0,1.0,1.0
24.68,20.0,1.0,1.0,1.0
24.69,30.5008,1.0,1.0,1.0
24.7,21.0,1.0,1.0,1.0
24.71,24.4992,1.0,1.0,1.0
24.72,29.5008,1.0,1.0,1.0
24.73,27.4992,1.0,1.0,1.0
24.74,19.5008,1.0,1.0,1.0
24.75,28.0,1.0,1.0,1.0
24.76,14.0,1.0,1.0,1.0
24.77,25.0,1.0,1.0,1.0
24.78,28.0,1.0,1.0,1.0
24.79,28.0,1.0,1.0,1.0
24.8,26.0,1.0,1.0,1.0
24.81,12.0,1.0,1.0,1.0
24.82,25.4992,1.0,1.0,1.0
24.83,24.5008,1.0,1.0,1.0
24.84,20.0,1.0,1.0,1.0
24.85,31.4992,1.0,1.0,1.0
24.86,32.0,1.0,1.0,1.0
24.87,15.0,1.0,1.0,1.0
24.88,16.5008,1.0,1.0,1.0
24.89,27.0,1.0,1.0,1.0
24.9,27.0,1.0,1.0,1.0
24.91,12.0,1.0,1.0,1.0
24.92,17.0,1.0,1.0,1.0
24.93,25.0,1.0,1.0,1.0
24.94,27.0,1.0,1.0,1.0
24.95,21.0,1.0,1.0,1.0
24.96,12.4992,1.0,1.0,1.0
24.97,13.5008,1.0,1.0,1.0
24.98,6.9984,1.0,1.0,1.0
24.99,16.0016,1.0,1.0,1.0
25.0,19.0,1.0,1.0,1.0
25.01,19.0,1.0,1.0,1.0
25.02,9.0,1.0,1.0,1.0
25.03,11.4992,1.0,1.0,1.0
25.04,23.5008,1.0,1.0,1.0
25.05,26.4992,1.0,1.0,1.0
25.06,19.5008,1.0,1.0,1.0
25.07,14.0,1.0,1.0,1.0
25.08,27.4992,1.0,1.0,1.0
25.09,7.5008,1.0,1.0,1.0
25.1,30.0,1.0,1.0,1.0
25.11,21.4992,1.0,1.0,1.0
25.12,20.5008,1.0,1.0,1.0
25.13,24.4992,1.0,1.0,1.0
25.14,25.5008,1.0,1.0,1.0
25.15,14.4992,1.0,1.0,1.0
25.16,29.0,1.0,1.0,1.0
25.17,29.0,1.0,1.0,1.0
25.18,30.5008,1.0,1.0,1.0
25.19,17.4992,1.0,1.0,1.0
25.2,20.0,1.0,1.0,1.0
25.21,13.5008,1.0,1.0,1.0
25.22,14.0,1.0,1.0,1.0
25.23,13.4992,1.0,1.0,1.0
25.24,23.5008,1.0,1.0,1.0
25.25,17.0,1.0,1.0,1.0
25.26,24.0,1.0,1.0,1.0
25.27,26.0,1.0,1.0,1.0
25.28,25.0,1.0,1.0,1.0
25.29,12.0,1.0,1.0,1.0
25.3,8.0,1.0,1.0,1.0
25.31,6.4992,1.0,1.0,1.0
25.32,6.5008,1.0,1.0,1.0
25.33,4.0,1.0,1.0,1.0
25.34,17.4992,1.0,1.0,1.0
25.35,9.5008,1.0,1.0,1.0
25.36,6.0,1.0,1.0,1.0
25.37,8.0,1.0,1.0,1.0
25.38,15.0,1.0,1.0,1.0
25.39,13.0,1.0,1.0,1.0
25.4,8.4992,1.0,1.0,1.0
25.41,8.5008,1.0,1.0,1.0
25.42,16.0,1.0,1.0,1.0
25.43,12.0,1.0,1.0,1.0
25.44,14.0,1.0,1.0,1.0
25.45,17.0,1.0,1.0,1.0
25.46,1.4992,1.0,1.0,1.0
25.47,5.5008,1.0,1.0,1.0
25.48,18.0,1.0,1.0,1.0
25.49,18.4992,1.0,1.0,1.0
25.5,14.5008,1.0,1.0,1.0
25.51,16.4992,1.0,1.0,1.0
25.52,12.0,1.0,1.0,1.0
25.53,20.5008,1.0,1.0,1.0
25.54,13.9984,1.0,1.0,1.0
25.55,8.0016,1.0,1.0,1.0
25.56,9.0,1.0,1.0,1.0
25.57,3.0,1.0,1.0,1.0
25.58,7.0,1.0,1.0,1.0
25.59,16.0,1.0,1.0,1.0
25.6,12.0,1.0,1.0,1.0
25.61,18.0,1.0,1.0,1.0
25.62,5.0,1.0,1.0,1.0
25.63,4.0,1.0,1.0,1.0
25.64,3.0,1.0,1.0,1.0
25.65,5.0,1.0,1.0,1.0
25.66,12.0,1.0,1.0,1.0
25.67,4.0,1.0,1.0,1.0
25.68,9.0,1.0,1.0,1.0
25.69,7.0,1.0,1.0,1.0
25.7,25.0,1.0,1.0,1.0
25.71,7.0,1.0,1.0,1.0
25.72,3.0,1.0,1.0,1.0
25.73,8.0,1.0,1.0,1.0
25.74,9.0,1.0,1.0,1.0
25.75,10.0,1.0,1.0,1.0
25.76,8.0,1.0,1.0,1.0
25.77,4.0,1.0,1.0,1.0
25.78,4.0,1.0,1.0,1.0
25.79,8.0,1.0,1.0,1.0
25.8,12.0,1.0,1.0,1.0
25.81,6.0,1.0,1.0,1.0
25.82,9.4976,1.0,1.0,1.0
25.83,9.5024,1.0,1.0,1.0
25.84,13.0,1.0,1.0,1.0
25.85,5.0,1.0,1.0,1.0
25.86,6.0,1.0,1.0,1.0
25.87,9.0,1.0,1.0,1.0
25.88,8.4992,1.0,1.0,1.0
25.89,5.5008,1.0,1.0,1.0
25.9,9.0,1.0,1.0,1.0
25.91,0.0,1.0,1.0,1.0
25.92,6.0,1.0,1.0,1.0
25.93,4.0,1.0,1.0,1.0
25.94,2.0,1.0,1.0,1.0
25.95,6.0,1.0,1.0,1.0
25.96,2.0,1.0,1.0,1.0
25.97,7.0,1.0,1.0,1.0
25.98,3.0,1.0,1.0,1.0
25.99,4.0,1.0,1.0,1.0
26.0,6.4992,1.0,1.0,1.0
26.01,5.5008,1.0,1.0,1.0
26.02,13.0,1.0,1.0,1.0
26.03,4.0,1.0,1.0,1.0
26.04,4.0,1.0,1.0,1.0
26.05,9.4992,1.0,1.0,1.0
26.06,11.5008,1.0,1.0,1.0
26.07,2.0,1.0,1.0,1.0
26.08,4.0,1.0,1.0,1.0
26.09,10.0,1.0,1.0,1.0
26.1,7.0,1.0,1.0,1.0
26.11,6.0,1.0,1.0,1.0
26.12,11.4992,1.0,1.0,1.0
26.13,7.5008,1.0,1.0,1.0
26.14,12.0,1.0,1.0,1.0
26.15,2.0,1.0,1.0,1.0
26.16,8.0,1.0,1.0,1.0
26.17,11.0,1.0,1.0,1.0
26.18,9.0,1.0,1.0,1.0
26.19,12.9984,1.0,1.0,1.0
26.2,19.0016,1.0,1.0,1.0
26.21,0.0,1.0,1.0,1.0
26.22,17.0,1.0,1.0,1.0
26.23,13.0,1.0,1.0,1.0
26.24,12.4992,1.0,1.0,1.0
26.25,7.5008,1.0,1.0,1.0
26.26,8.0,1.0,1.0,1.0
26.27,15.0,1.0,1.0,1.0
26.28,8.0,1.0,1.0,1.0
26.29,2.4992,1.0,1.0,1.0
26.3,8.0,1.0,1.0,1.0
26.31,9.0,1.0,1.0,1.0
26.32,17.5008,1.0,1.0,1.0
26.33,1.0,1.0,1.0,1.0
26.34,6.0,1.0,1.0,1.0
26.35,10.0,1.0,1.0,1.0
26.36,11.0,1.0,1.0,1.0
26.37,10.0,1.0,1.0,1.0
26.38,0.0,1.0,1.0,1.0
26.39,5.0,1.0,1.0,1.0
26.4,6.0,1.0,1.0,1.0
26.41,5.0,1.0,1.0,1.0
26.42,2.4992,1.0,1.0,1.0
26.43,4.5008,1.0,1.0,1.0
26.44,8.0,1.0,1.0,1.0
26.45,11.0,1.0,1.0,1.0
26.46,6.0,1.0,1.0,1.0
26.47,2.0,1.0,1.0,1.0
26.48,8.0,1.0,1.0,1.0
26.49,5.0,1.0,1.0,1.0
26.5,2.0,1.0,1.0,1.0
26.51,9.0,1.0,1.0,1.0
26.52,4.0,1.0,1.0,1.0
26.53,8.0,1.0,1.0,1.0
26.54,2.0,1.0,1.0,1.0
26.55,6.0,1.0,1.0,1.0
26.56,5.0,1.0,1.0,1.0
26.57,0.0,1.0,1.0,1.0
26.58,9.0,1.0,1.0,1.0
26.59,14.0,1.0,1.0,1.0
26.6,9.0,1.0,1.0,1.0
26.61,4.0,1.0,1.0,1.0
26.62,10.0,1.0,1.0,1.0
26.63,3.0,1.0,1.0,1.0
26.64,2.0,1.0,1.0,1.0
26.65,0.0,1.0,1.0,1.0
26.66,0.0,1.0,1.0,1.0
26.67,8.0,1.0,1.0,1.0
26.68,1.0,1.0,1.0,1.0
26.69,2.0,1.0,1.0,1.0
26.7,3.0,1.0,1.0,1.0
26.71,4.0,1.0,1.0,1.0
26.72,8.0,1.0,1.0,1.0
26.73,6.0,1.0,1.0,1.0
26.74,0.0,1.0,1.0,1.0
26.75,2.0,1.0,1.0,1.0
26.76,4.0,1.0,1.0,1.0
26.77,6.0,1.0,1.0,1.0
26.78,3.0,1.0,1.0,1.0
26.79,5.0,1.0,1.0,1.0
26.8,7.0,1.0,1.0,1.0
26.81,2.0,1.0,1.0,1.0
26.82,2.0,1.0,1.0,1.0
26.83,7.0,1.0,1.0,1.0
26.84,4.0,1.0,1.0,1.0
26.85,2.0,1.0,1.0,1.0
26.86,10.0,1.0,1.0,1.0
26.87,0.0,1.0,1.0,1.0
26.88,13.0,1.0,1.0,1.0
26.89,8.0,1.0,1.0,1.0
26.9,4.0,1.0,1.0,1.0
26.91,4.0,1.0,1.0,1.0
26.92,4.0,1.0,1.0,1.0
26.93,5.0,1.0,1.0,1.0
26.94,2.0,1.0,1.0,1.0
26.95,9.0,1.0,1.0,1.0
26.96,5.0,1.0,1.0,1.0
26.97,9.0,1.0,1.0,1.0
26.98,5.0,1.0,1.0,1.0
26.99,0.0,1.0,1.0,1.0
27.0,3.0,1.0,1.0,1.0
27.01,1.0,1.0,1.0,1.0
27.02,7.0,1.0,1.0,1.0
27.03,3.0,1.0,1.0,1.0
27.04,6.0,1.0,1.0,1.0
27.05,6.4992,1.0,1.0,1.0
27.06,4.5008,1.0,1.0,1.0
27.07,2.9984,1.0,1.0,1.0
27.08,1.0016,1.0,1.0,1.0
27.09,11.4992,1.0,1.0,1.0
27.1,15.5008,1.0,1.0,1.0
27.11,14.0,1.0,1.0,1.0
27.12,4.0,1.0,1.0,1.0
27.13,12.4992,1.0,1.0,1.0
27.14,5.5008,1.0,1.0,1.0
27.15,0.0,1.0,1.0,1.0
27.16,14.0,1.0,1.0,1.0
27.17,6.0,1.0,1.0,1.0
27.18,6.0,1.0,1.0,1.0
27.19,11.0,1.0,1.0,1.0
27.2,8.0,1.0,1.0,1.0
27.21,13.0,1.0,1.0,1.0
27.22,6.0,1.0,1.0,1.0
27.23,5.0,1.0,1.0,1.0
27.24,2.0,1.0,1.0,1.0
27.25,7.0,1.0,1.0,1.0
27.26,2.4992,1.0,1.0,1.0
27.27,4.5008,1.0,1.0,1.0
27.28,3.0,1.0,1.0,1.0
27.29,12.0,1.0,1.0,1.0
27.3,6.0,1.0,1.0,1.0
27.31,8.0,1.0,1.0,1.0
27.32,2.0,1.0,1.0,1.0
27.33,4.0,1.0,1.0,1.0
27.34,7.0,1.0,1.0,1.0
27.35,0.0,1.0,1.0,1.0
27.36,10.0,1.0,1.0,1.0
27.37,11.0,1.0,1.0,1.0
27.38,2.0,1.0,1.0,1.0
27.39,7.0,1.0,1.0,1.0
27.4,4.0,1.0,1.0,1.0
27.41,4.0,1.0,1.0,1.0
27.42,4.0,1.0,1.0,1.0
27.43,2.0,1.0,1.0,1.0
27.44,8.0,1.0,1.0,1.0
27.45,0.4992,1.0,1.0,1.0
27.46,1.5008,1.0,1.0,1.0
27.47,6.0,1.0,1.0,1.0
27.48,9.0,1.0,1.0,1.0
27.49,0.0,1.0,1.0,1.0
27.5,5.0,1.0,1.0,1.0
27.51,5.9984,1.0,1.0,1.0
27.52,8.0016,1.0,1.0,1.0
27.53,2.0,1.0,1.0,1.0
27.54,7.0,1.0,1.0,1.0
27.55,6.0,1.0,1.0,1.0
27.56,2.0,1.0,1.0,1.0
27.57,2.0,1.0,1.0,1.0
27.58,0.0,1.0,1.0,1.0
27.59,4.0,1.0,1.0,1.0
27.6,0.0,1.0,1.0,1.0
27.61,2.0,1.0,1.0,1.0
27.62,4.0,1.0,1.0,1.0
27.63,6.4992,1.0,1.0,1.0
27.64,7.5008,1.0,1.0,1.0
27.65,6.0,1.0,1.0,1.0
27.66,0.0,1.0,1.0,1.0
27.67,0.0,1.0,1.0,1.0
27.68,9.0,1.0,1.0,1.0
27.69,2.0,1.0,1.0,1.0
27.7,4.0,1.0,1.0,1.0
27.71,5.0,1.0,1.0,1.0
27.72,5.0,1.0,1.0,1.0
27.73,3.0,1.0,1.0,1.0
27.74,2.0,1.0,1.0,1.0
27.75,98.0,1.0,1.0,1.0
27.76,2.0,1.0,1.0,1.0
27.77,3.0,1.0,1.0,1.0
27.78,0.0,1.0,1.0,1.0
27.79,8.0,1.0,1.0,1.0
27.8,3.0,1.0,1.0,1.0
27.81,4.0,1.0,1.0,1.0
27.82,5.0,1.0,1.0,1.0
27.83,6.0,1.0,1.0,1.0
27.84,10.0,1.0,1.0,1.0
27.85,0.0,1.0,1.0,1.0
27.86,2.0,1.0,1.0,1.0
27.87,0.0,1.0,1.0,1.0
27.88,3.0,1.0,1.0,1.0
27.89,4.0,1.0,1.0,1.0
27.9,7.0,1.0,1.0,1.0
27.91,5.0,1.0,1.0,1.0
27.92,10.0,1.0,1.0,1.0
27.93,2.0,1.0,1.0,1.0
27.94,5.0,1.0,1.0,1.0
27.95,2.0,1.0,1.0,1.0
27.96,5.0,1.0,1.0,1.0
27.97,2.0,1.0,1.0,1.0
27.98,0.0,1.0,1.0,1.0
27.99,4.0,1.0,1.0,1.0
28.0,0.0,1.0,1.0,1.0
28.01,6.0,1.0,1.0,1.0
28.02,4.0,1.0,1.0,1.0
28.03,13.0,1.0,1.0,1.0
28.04,2.0,1.0,1.0,1.0
28.05,4.0,1.0,1.0,1.0
28.06,3.0,1.0,1.0,1.0
28.07,2.0,1.0,1.0,1.0
28.08,3.0,1.0,1.0,1.0
28.09,5.9984,1.0,1.0,1.0
28.1,6.0016,1.0,1.0,1.0
28.11,2.0,1.0,1.0,1.0
28.12,6.0,1.0,1.0,1.0
28.13,3.0,1.0,1.0,1.0
28.14,5.0,1.0,1.0,1.0
28.15,2.0,1.0,1.0,1.0
28.16,21.0,1.0,1.0,1.0
28.17,6.0,1.0,1.0,1.0
28.18,3.0,1.0,1.0,1.0
28.19,8.0,1.0,1.0,1.0
28.2,7.0,1.0,1.0,1.0
28.21,2.0,1.0,1.0,1.0
28.22,6.0,1.0,1.0,1.0
28.23,0.0,1.0,1.0,1.0
28.24,2.0,1.0,1.0,1.0
28.25,6.0,1.0,1.0,1.0
28.26,4.0,1.0,1.0,1.0
28.27,4.0,1.0,1.0,1.0
28.28,5.0,1.0,1.0,1.0
28.29,6.0,1.0,1.0,1.0
28.3,0.0,1.0,1.0,1.0
28.31,0.0,1.0,1.0,1.0
28.32,8.0,1.0,1.0,1.0
28.33,7.0,1.0,1.0,1.0
28.34,4.0,1.0,1.0,1.0
28.35,6.0,1.0,1.0,1.0
28.36,0.0,1.0,1.0,1.0
28.37,9.0,1.0,1.0,1.0
28.38,2.0,1.0,1.0,1.0
28.39,2.0,1.0,1.0,1.0
28.4,3.0,1.0,1.0,1.0
28.41,2.0,1.0,1.0,1.0
28.42,2.0,1.0,1.0,1.0
28.43,8.0,1.0,1.0,1.0
28.44,9.0,1.0,1.0,1.0
28.45,6.0,1.0,1.0,1.0
28.46,6.0,1.0,1.0,1.0
28.47,2.0,1.0,1.0,1.0
28.48,3.0,1.0,1.0,1.0
28.49,0.0,1.0,1.0,1.0
28.5,7.0,1.0,1.0,1.0
28.51,7.0,1.0,1.0,1.0
28.52,5.0,1.0,1.0,1.0
28.53,4.0,1.0,1.0,1.0
28.54,2.0,1.0,1.0,1.0
28.55,1.0,1.0,1.0,1.0
28.56,0.0,1.0,1.0,1.0
28.57,2.0,1.0,1.0,1.0
28.58,0.0,1.0,1.0,1.0
28.59,1.0,1.0,1.0,1.0
28.6,6.0,1.0,1.0,1.0
28.61,2.0,1.0,1.0,1.0
28.62,2.0,1.0,1.0,1.0
28.63,4.0,1.0,1.0,1.0
28.64,2.0,1.0,1.0,1.0
28.65,2.0,1.0,1.0,1.0
28.66,0.0,1.0,1.0,1.0
28.67,2.0,1.0,1.0,1.0
28.68,6.0,1.0,1.0,1.0
28.69,5.0,1.0,1.0,1.0
28.7,60.0,1.0,1.0,1.0
28.71,2.0,1.0,1.0,1.0
28.72,0.0,1.0,1.0,1.0
28.73,4.0,1.0,1.0,1.0
28.74,3.0,1.0,1.0,1.0
28.75,4.0,1.0,1.0,1.0
28.76,5.0,1.0,1.0,1.0
28.77,3.0,1.0,1.0,1.0
28.78,3.0,1.0,1.0,1.0
28.79,3.0,1.0,1.0,1.0
28.8,5.0,1.0,1.0,1.0
28.81,0.0,1.0,1.0,1.0
28.82,6.0,1.0,1.0,1.0
28.83,2.0,1.0,1.0,1.0
28.84,7.0,1.0,1.0,1.0
28.85,0.0,1.0,1.0,1.0
28.86,9.0,1.0,1.0,1.0
28.87,0.0,1.0,1.0,1.0
28.88,3.0,1.0,1.0,1.0
28.89,3.0,1.0,1.0,1.0
28.9,8.0,1.0,1.0,1.0
28.91,4.0,1.0,1.0,1.0
28.92,4.0,1.0,1.0,1.0
28.93,4.0,1.0,1.0,1.0
28.94,0.0,1.0,1.0,1.0
28.95,0.0,1.0,1.0,1.0
28.96,5.0,1.0,1.0,1.0
28.97,10.0,1.0,1.0,1.0
28.98,4.4992,1.0,1.0,1.0
28.99,3.5008,1.0,1.0,1.0
29.0,4.0,1.0,1.0,1.0
29.01,4.0,1.0,1.0,1.0
29.02,0.0,1.0,1.0,1.0
29.03,0.0,1.0,1.0,1.0
29.04,3.0,1.0,1.0,1.0
29.05,6.0,1.0,1.0,1.0
29.06,0.0,1.0,1.0,1.0
29.07,2.0,1.0,1.0,1.0
29.08,2.0,1.0,1.0,1.0
29.09,0.0,1.0,1.0,1.0
29.1,0.0,1.0,1.0,1.0
29.11,2.0,1.0,1.0,1.0
29.12,3.0,1.0,1.0,1.0
29.13,4.0,1.0,1.0,1.0
29.14,3.0,1.0,1.0,1.0
29.15,2.0,1.0,1.0,1.0
29.16,5.0,1.0,1.0,1.0
29.17,0.0,1.0,1.0,1.0
29.18,4.0,1.0,1.0,1.0
29.19,2.0,1.0,1.0,1.0
29.2,6.0,1.0,1.0,1.0
29.21,7.0,1.0,1.0,1.0
29.22,13.0,1.0,1.0,1.0
29.23,4.0,1.0,1.0,1.0
29.24,4.0,1.0,1.0,1.0
29.25,6.0,1.0,1.0,1.0
29.26,0.0,1.0,1.0,1.0
29.27,1.0,1.0,1.0,1.0
29.28,5.0,1.0,1.0,1.0
29.29,3.4992,1.0,1.0,1.0
29.3,1.5008,1.0,1.0,1.0
29.31,0.0,1.0,1.0,1.0
29.32,0.0,1.0,1.0,1.0
29.33,4.9984,1.0,1.0,1.0
29.34,6.0016,1.0,1.0,1.0
29.35,4.0,1.0,1.0,1.0
29.36,5.0,1.0,1.0,1.0
29.37,5.0,1.0,1.0,1.0
29.38,2.0,1.0,1.0,1.0
29.39,6.0,1.0,1.0,1.0
29.4,3.0,1.0,1.0,1.0
29.41,9.0,1.0,1.0,1.0
29.42,0.0,1.0,1.0,1.0
29.43,4.0,1.0,1.0,1.0
29.44,0.0,1.0,1.0,1.0
29.45,4.0,1.0,1.0,1.0
29.46,2.0,1.0,1.0,1.0
29.47,0.0,1.0,1.0,1.0
29.48,4.0,1.0,1.0,1.0
29.49,5.0,1.0,1.0,1.0
29.5,0.0,1.0,1.0,1.0
29.51,2.0,1.0,1.0,1.0
29.52,3.0,1.0,1.0,1.0
29.53,0.0,1.0,1.0,1.0
29.54,2.0,1.0,1.0,1.0
29.55,2.0,1.0,1.0,1.0
29.56,4.4992,1.0,1.0,1.0
29.57,4.5008,1.0,1.0,1.0
29.58,9.0,1.0,1.0,1.0
29.59,3.4992,1.0,1.0,1.0
29.6,2.5008,1.0,1.0,1.0
29.61,2.0,1.0,1.0,1.0
29.62,0.0,1.0,1.0,1.0
29.63,0.0,1.0,1.0,1.0
29.64,6.0,1.0,1.0,1.0
29.65,5.0,1.0,1.0,1.0
29.66,3.0,1.0,1.0,1.0
29.67,5.0,1.0,1.0,1.0
29.68,0.0,1.0,1.0,1.0
29.69,2.0,1.0,1.0,1.0
29.7,2.0,1.0,1.0,1.0
29.71,4.0,1.0,1.0,1.0
29.72,2.0,1.0,1.0,1.0
29.73,2.0,1.0,1.0,1.0
29.74,2.0,1.0,1.0,1.0
29.75,8.0,1.0,1.0,1.0
29.76,3.4992,1.0,1.0,1.0
29.77,7.0,1.0,1.0,1.0
29.78,2.0,1.0,1.0,1.0
29.79,2.5008,1.0,1.0,1.0
29.8,2.0,1.0,1.0,1.0
29.81,4.0,1.0,1.0,1.0
29.82,2.0,1.0,1.0,1.0
29.83,3.0,1.0,1.0,1.0
29.84,8.0,1.0,1.0,1.0
29.85,4.0,1.0,1.0,1.0
29.86,2.0,1.0,1.0,1.0
29.87,5.0,1.0,1.0,1.0
29.88,2.0,1.0,1.0,1.0
29.89,0.0,1.0,1.0,1.0
29.9,0.0,1.0,1.0,1.0
29.91,0.0,1.0,1.0,1.0
29.92,6.0,1.0,1.0,1.0
29.93,0.0,1.0,1.0,1.0
29.94,5.0,1.0,1.0,1.0
29.95,6.4992,1.0,1.0,1.0
29.96,0.5008,1.0,1.0,1.0
29.97,2.0,1.0,1.0,1.0
29.98,5.0,1.0,1.0,1.0
29.99,2.0,1.0,1.0,1.0
30.0,7.0,1.0,1.0,1.0