File: XRD:XRR/SCO/22103_S(CT)L/22103_not_annealed_002_XRD.csv
#twotheta, yobs, ycal, bkg, diff
42.0,1.0,1.0,1.0,1.0
42.01,2.0,1.0,1.0,1.0
42.02,0.0,1.0,1.0,1.0
42.03,6.0,1.0,1.0,1.0
42.04,4.0,1.0,1.0,1.0
42.05,5.4944,1.0,1.0,1.0
42.06,3.5056,1.0,1.0,1.0
42.07,6.0,1.0,1.0,1.0
42.08,5.0,1.0,1.0,1.0
42.09,5.0,1.0,1.0,1.0
42.1,0.0,1.0,1.0,1.0
42.11,6.0,1.0,1.0,1.0
42.12,4.0,1.0,1.0,1.0
42.13,3.0,1.0,1.0,1.0
42.14,2.0,1.0,1.0,1.0
42.15,0.0,1.0,1.0,1.0
42.16,0.0,1.0,1.0,1.0
42.17,0.0,1.0,1.0,1.0
42.18,3.0,1.0,1.0,1.0
42.19,0.0,1.0,1.0,1.0
42.2,2.0,1.0,1.0,1.0
42.21,2.0,1.0,1.0,1.0
42.22,2.0,1.0,1.0,1.0
42.23,0.0,1.0,1.0,1.0
42.24,0.0,1.0,1.0,1.0
42.25,0.0,1.0,1.0,1.0
42.26,0.0,1.0,1.0,1.0
42.27,0.0,1.0,1.0,1.0
42.28,3.0,1.0,1.0,1.0
42.29,4.0,1.0,1.0,1.0
42.3,2.0,1.0,1.0,1.0
42.31,5.0,1.0,1.0,1.0
42.32,4.0,1.0,1.0,1.0
42.33,2.0,1.0,1.0,1.0
42.34,3.0,1.0,1.0,1.0
42.35,12.0,1.0,1.0,1.0
42.36,0.0,1.0,1.0,1.0
42.37,2.0,1.0,1.0,1.0
42.38,0.0,1.0,1.0,1.0
42.39,2.0,1.0,1.0,1.0
42.4,3.0,1.0,1.0,1.0
42.41,0.0,1.0,1.0,1.0
42.42,3.0,1.0,1.0,1.0
42.43,0.0,1.0,1.0,1.0
42.44,4.0,1.0,1.0,1.0
42.45,7.0,1.0,1.0,1.0
42.46,4.0,1.0,1.0,1.0
42.47,5.0,1.0,1.0,1.0
42.48,4.0,1.0,1.0,1.0
42.49,5.0,1.0,1.0,1.0
42.5,0.0,1.0,1.0,1.0
42.51,0.0,1.0,1.0,1.0
42.52,6.0,1.0,1.0,1.0
42.53,2.0,1.0,1.0,1.0
42.54,0.0,1.0,1.0,1.0
42.55,7.0,1.0,1.0,1.0
42.56,2.0,1.0,1.0,1.0
42.57,3.0,1.0,1.0,1.0
42.58,4.0,1.0,1.0,1.0
42.59,3.0,1.0,1.0,1.0
42.6,0.0,1.0,1.0,1.0
42.61,2.0,1.0,1.0,1.0
42.62,2.0,1.0,1.0,1.0
42.63,4.0,1.0,1.0,1.0
42.64,0.0,1.0,1.0,1.0
42.65,7.0,1.0,1.0,1.0
42.66,0.0,1.0,1.0,1.0
42.67,4.0,1.0,1.0,1.0
42.68,0.0,1.0,1.0,1.0
42.69,2.0,1.0,1.0,1.0
42.7,2.0,1.0,1.0,1.0
42.71,0.0,1.0,1.0,1.0
42.72,0.0,1.0,1.0,1.0
42.73,4.0,1.0,1.0,1.0
42.74,2.0,1.0,1.0,1.0
42.75,6.0,1.0,1.0,1.0
42.76,10.0,1.0,1.0,1.0
42.77,5.0,1.0,1.0,1.0
42.78,0.0,1.0,1.0,1.0
42.79,5.0,1.0,1.0,1.0
42.8,8.0,1.0,1.0,1.0
42.81,0.0,1.0,1.0,1.0
42.82,10.0,1.0,1.0,1.0
42.83,3.4944,1.0,1.0,1.0
42.84,2.5056,1.0,1.0,1.0
42.85,4.0,1.0,1.0,1.0
42.86,0.0,1.0,1.0,1.0
42.87,5.0,1.0,1.0,1.0
42.88,2.0,1.0,1.0,1.0
42.89,4.0,1.0,1.0,1.0
42.9,0.0,1.0,1.0,1.0
42.91,6.0,1.0,1.0,1.0
42.92,8.4944,1.0,1.0,1.0
42.93,4.5056,1.0,1.0,1.0
42.94,2.0,1.0,1.0,1.0
42.95,0.0,1.0,1.0,1.0
42.96,5.0,1.0,1.0,1.0
42.97,3.0,1.0,1.0,1.0
42.98,2.0,1.0,1.0,1.0
42.99,5.0,1.0,1.0,1.0
43.0,7.0,1.0,1.0,1.0
43.01,2.0,1.0,1.0,1.0
43.02,6.0,1.0,1.0,1.0
43.03,5.0,1.0,1.0,1.0
43.04,0.0,1.0,1.0,1.0
43.05,5.0,1.0,1.0,1.0
43.06,6.0,1.0,1.0,1.0
43.07,7.0,1.0,1.0,1.0
43.08,5.0,1.0,1.0,1.0
43.09,0.0,1.0,1.0,1.0
43.1,5.0,1.0,1.0,1.0
43.11,0.0,1.0,1.0,1.0
43.12,10.9889,1.0,1.0,1.0
43.13,6.0111,1.0,1.0,1.0
43.14,7.4944,1.0,1.0,1.0
43.15,5.5056,1.0,1.0,1.0
43.16,9.0,1.0,1.0,1.0
43.17,12.0,1.0,1.0,1.0
43.18,8.0,1.0,1.0,1.0
43.19,3.0,1.0,1.0,1.0
43.2,0.0,1.0,1.0,1.0
43.21,13.0,1.0,1.0,1.0
43.22,4.0,1.0,1.0,1.0
43.23,5.0,1.0,1.0,1.0
43.24,5.0,1.0,1.0,1.0
43.25,13.0,1.0,1.0,1.0
43.26,5.0,1.0,1.0,1.0
43.27,19.0,1.0,1.0,1.0
43.28,8.0,1.0,1.0,1.0
43.29,9.0,1.0,1.0,1.0
43.3,18.0,1.0,1.0,1.0
43.31,9.0,1.0,1.0,1.0
43.32,12.0,1.0,1.0,1.0
43.33,2.0,1.0,1.0,1.0
43.34,15.0,1.0,1.0,1.0
43.35,11.4944,1.0,1.0,1.0
43.36,7.5056,1.0,1.0,1.0
43.37,6.0,1.0,1.0,1.0
43.38,6.0,1.0,1.0,1.0
43.39,8.0,1.0,1.0,1.0
43.4,19.4944,1.0,1.0,1.0
43.41,4.5056,1.0,1.0,1.0
43.42,13.0,1.0,1.0,1.0
43.43,10.0,1.0,1.0,1.0
43.44,23.0,1.0,1.0,1.0
43.45,8.0,1.0,1.0,1.0
43.46,13.0,1.0,1.0,1.0
43.47,12.0,1.0,1.0,1.0
43.48,17.0,1.0,1.0,1.0
43.49,16.0,1.0,1.0,1.0
43.5,12.9889,1.0,1.0,1.0
43.51,21.0111,1.0,1.0,1.0
43.52,21.0,1.0,1.0,1.0
43.53,20.0,1.0,1.0,1.0
43.54,28.0,1.0,1.0,1.0
43.55,11.0,1.0,1.0,1.0
43.56,17.0,1.0,1.0,1.0
43.57,17.0,1.0,1.0,1.0
43.58,24.0,1.0,1.0,1.0
43.59,20.0,1.0,1.0,1.0
43.6,20.4944,1.0,1.0,1.0
43.61,11.5056,1.0,1.0,1.0
43.62,26.4944,1.0,1.0,1.0
43.63,18.0,1.0,1.0,1.0
43.64,30.0,1.0,1.0,1.0
43.65,30.4944,1.0,1.0,1.0
43.66,41.5056,1.0,1.0,1.0
43.67,16.0,1.0,1.0,1.0
43.68,33.5056,1.0,1.0,1.0
43.69,23.0,1.0,1.0,1.0
43.7,10.9889,1.0,1.0,1.0
43.71,16.0111,1.0,1.0,1.0
43.72,32.4944,1.0,1.0,1.0
43.73,34.0,1.0,1.0,1.0
43.74,19.5056,1.0,1.0,1.0
43.75,28.0,1.0,1.0,1.0
43.76,10.0,1.0,1.0,1.0
43.77,10.0,1.0,1.0,1.0
43.78,10.0,1.0,1.0,1.0
43.79,26.4944,1.0,1.0,1.0
43.8,22.5056,1.0,1.0,1.0
43.81,37.9889,1.0,1.0,1.0
43.82,28.0111,1.0,1.0,1.0
43.83,28.0,1.0,1.0,1.0
43.84,28.0,1.0,1.0,1.0
43.85,19.0,1.0,1.0,1.0
43.86,18.9889,1.0,1.0,1.0
43.87,16.0111,1.0,1.0,1.0
43.88,24.0,1.0,1.0,1.0
43.89,15.0,1.0,1.0,1.0
43.9,37.4944,1.0,1.0,1.0
43.91,24.5056,1.0,1.0,1.0
43.92,4.0,1.0,1.0,1.0
43.93,18.0,1.0,1.0,1.0
43.94,27.0,1.0,1.0,1.0
43.95,14.0,1.0,1.0,1.0
43.96,26.0,1.0,1.0,1.0
43.97,15.0,1.0,1.0,1.0
43.98,6.0,1.0,1.0,1.0
43.99,27.0,1.0,1.0,1.0
44.0,34.0,1.0,1.0,1.0
44.01,21.9889,1.0,1.0,1.0
44.02,28.0111,1.0,1.0,1.0
44.03,22.0,1.0,1.0,1.0
44.04,16.9889,1.0,1.0,1.0
44.05,20.5056,1.0,1.0,1.0
44.06,18.0,1.0,1.0,1.0
44.07,8.0,1.0,1.0,1.0
44.08,17.5056,1.0,1.0,1.0
44.09,14.0,1.0,1.0,1.0
44.1,10.0,1.0,1.0,1.0
44.11,22.4944,1.0,1.0,1.0
44.12,8.5056,1.0,1.0,1.0
44.13,10.0,1.0,1.0,1.0
44.14,16.0,1.0,1.0,1.0
44.15,14.0,1.0,1.0,1.0
44.16,6.0,1.0,1.0,1.0
44.17,11.0,1.0,1.0,1.0
44.18,12.0,1.0,1.0,1.0
44.19,8.0,1.0,1.0,1.0
44.2,20.0,1.0,1.0,1.0
44.21,10.0,1.0,1.0,1.0
44.22,11.0,1.0,1.0,1.0
44.23,10.4944,1.0,1.0,1.0
44.24,17.5056,1.0,1.0,1.0
44.25,4.0,1.0,1.0,1.0
44.26,14.0,1.0,1.0,1.0
44.27,8.4944,1.0,1.0,1.0
44.28,11.5056,1.0,1.0,1.0
44.29,14.0,1.0,1.0,1.0
44.3,17.4944,1.0,1.0,1.0
44.31,11.5056,1.0,1.0,1.0
44.32,12.0,1.0,1.0,1.0
44.33,26.0,1.0,1.0,1.0
44.34,24.4944,1.0,1.0,1.0
44.35,19.5056,1.0,1.0,1.0
44.36,19.0,1.0,1.0,1.0
44.37,25.0,1.0,1.0,1.0
44.38,10.0,1.0,1.0,1.0
44.39,16.0,1.0,1.0,1.0
44.4,28.4833,1.0,1.0,1.0
44.41,19.5167,1.0,1.0,1.0
44.42,16.0,1.0,1.0,1.0
44.43,26.0,1.0,1.0,1.0
44.44,30.4944,1.0,1.0,1.0
44.45,26.5056,1.0,1.0,1.0
44.46,29.4944,1.0,1.0,1.0
44.47,29.0,1.0,1.0,1.0
44.48,24.5056,1.0,1.0,1.0
44.49,18.0,1.0,1.0,1.0
44.5,23.0,1.0,1.0,1.0
44.51,35.0,1.0,1.0,1.0
44.52,22.0,1.0,1.0,1.0
44.53,25.0,1.0,1.0,1.0
44.54,25.0,1.0,1.0,1.0
44.55,28.0,1.0,1.0,1.0
44.56,38.0,1.0,1.0,1.0
44.57,25.4833,1.0,1.0,1.0
44.58,30.5167,1.0,1.0,1.0
44.59,41.0,1.0,1.0,1.0
44.6,27.0,1.0,1.0,1.0
44.61,41.0,1.0,1.0,1.0
44.62,46.9889,1.0,1.0,1.0
44.63,41.0,1.0,1.0,1.0
44.64,41.0111,1.0,1.0,1.0
44.65,52.0,1.0,1.0,1.0
44.66,58.9889,1.0,1.0,1.0
44.67,35.5056,1.0,1.0,1.0
44.68,56.0,1.0,1.0,1.0
44.69,47.5056,1.0,1.0,1.0
44.7,53.0,1.0,1.0,1.0
44.71,37.0,1.0,1.0,1.0
44.72,38.0,1.0,1.0,1.0
44.73,36.4944,1.0,1.0,1.0
44.74,54.5056,1.0,1.0,1.0
44.75,49.0,1.0,1.0,1.0
44.76,44.0,1.0,1.0,1.0
44.77,70.0,1.0,1.0,1.0
44.78,66.0,1.0,1.0,1.0
44.79,54.9889,1.0,1.0,1.0
44.8,68.9889,1.0,1.0,1.0
44.81,65.0222,1.0,1.0,1.0
44.82,74.0,1.0,1.0,1.0
44.83,64.0,1.0,1.0,1.0
44.84,67.9889,1.0,1.0,1.0
44.85,71.0111,1.0,1.0,1.0
44.86,77.9889,1.0,1.0,1.0
44.87,91.0,1.0,1.0,1.0
44.88,96.0111,1.0,1.0,1.0
44.89,99.9889,1.0,1.0,1.0
44.9,122.4944,1.0,1.0,1.0
44.91,118.0111,1.0,1.0,1.0
44.92,107.5056,1.0,1.0,1.0
44.93,129.4722,1.0,1.0,1.0
44.94,146.5167,1.0,1.0,1.0
44.95,159.5056,1.0,1.0,1.0
44.96,154.9667,1.0,1.0,1.0
44.97,170.5389,1.0,1.0,1.0
44.98,175.9778,1.0,1.0,1.0
44.99,187.5056,1.0,1.0,1.0
45.0,189.4944,1.0,1.0,1.0
45.01,194.4722,1.0,1.0,1.0
45.02,203.5278,1.0,1.0,1.0
45.03,220.9889,1.0,1.0,1.0
45.04,236.0222,1.0,1.0,1.0
45.05,270.4833,1.0,1.0,1.0
45.06,239.0,1.0,1.0,1.0
45.07,267.9889,1.0,1.0,1.0
45.08,311.0111,1.0,1.0,1.0
45.09,277.9667,1.0,1.0,1.0
45.1,323.5389,1.0,1.0,1.0
45.11,313.4833,1.0,1.0,1.0
45.12,323.5056,1.0,1.0,1.0
45.13,393.9889,1.0,1.0,1.0
45.14,373.5167,1.0,1.0,1.0
45.15,433.9778,1.0,1.0,1.0
45.16,400.4944,1.0,1.0,1.0
45.17,423.0,1.0,1.0,1.0
45.18,507.5278,1.0,1.0,1.0
45.19,444.0,1.0,1.0,1.0
45.2,491.9667,1.0,1.0,1.0
45.21,587.0111,1.0,1.0,1.0
45.22,573.0111,1.0,1.0,1.0
45.23,614.9778,1.0,1.0,1.0
45.24,689.9889,1.0,1.0,1.0
45.25,660.0,1.0,1.0,1.0
45.26,749.5167,1.0,1.0,1.0
45.27,799.5056,1.0,1.0,1.0
45.28,870.8778,1.0,1.0,1.0
45.29,913.0444,1.0,1.0,1.0
45.3,887.0333,1.0,1.0,1.0
45.31,995.0,1.0,1.0,1.0
45.32,1088.99,1.0,1.0,1.0
45.33,1100.0,1.0,1.0,1.0
45.34,1220.53,1.0,1.0,1.0
45.35,1246.93,1.0,1.0,1.0
45.36,1346.47,1.0,1.0,1.0
45.37,1306.98,1.0,1.0,1.0
45.38,1434.57,1.0,1.0,1.0
45.39,1568.45,1.0,1.0,1.0
45.4,1564.49,1.0,1.0,1.0
45.41,1704.01,1.0,1.0,1.0
45.42,1782.45,1.0,1.0,1.0
45.43,1765.08,1.0,1.0,1.0
45.44,1779.0,1.0,1.0,1.0
45.45,1955.36,1.0,1.0,1.0
45.46,1839.62,1.0,1.0,1.0
45.47,1943.42,1.0,1.0,1.0
45.48,1986.56,1.0,1.0,1.0
45.49,2032.42,1.0,1.0,1.0
45.5,2143.0,1.0,1.0,1.0
45.51,2167.07,1.0,1.0,1.0
45.52,2107.94,1.0,1.0,1.0
45.53,2133.52,1.0,1.0,1.0
45.54,2173.51,1.0,1.0,1.0
45.55,2166.45,1.0,1.0,1.0
45.56,2277.08,1.0,1.0,1.0
45.57,2160.92,1.0,1.0,1.0
45.58,2209.09,1.0,1.0,1.0
45.59,2120.45,1.0,1.0,1.0
45.6,2132.06,1.0,1.0,1.0
45.61,2066.42,1.0,1.0,1.0
45.62,2200.54,1.0,1.0,1.0
45.63,2033.98,1.0,1.0,1.0
45.64,2017.55,1.0,1.0,1.0
45.65,2054.439,1.0,1.0,1.0
45.66,1986.53,1.0,1.0,1.0
45.67,1999.55,1.0,1.0,1.0
45.68,1985.96,1.0,1.0,1.0
45.69,1937.02,1.0,1.0,1.0
45.7,1871.03,1.0,1.0,1.0
45.71,1880.47,1.0,1.0,1.0
45.72,1846.03,1.0,1.0,1.0
45.73,1882.43,1.0,1.0,1.0
45.74,1939.52,1.0,1.0,1.0
45.75,1817.52,1.0,1.0,1.0
45.76,1865.97,1.0,1.0,1.0
45.77,1886.54,1.0,1.0,1.0
45.78,1790.07,1.0,1.0,1.0
45.79,1837.45,1.0,1.0,1.0
45.8,1904.52,1.0,1.0,1.0
45.81,1806.46,1.0,1.0,1.0
45.82,1913.99,1.0,1.0,1.0
45.83,1887.48,1.0,1.0,1.0
45.84,1911.57,1.0,1.0,1.0
45.85,2024.47,1.0,1.0,1.0
45.86,1919.43,1.0,1.0,1.0
45.87,1975.12,1.0,1.0,1.0
45.88,1981.46,1.0,1.0,1.0
45.89,1998.96,1.0,1.0,1.0
45.9,2089.48,1.0,1.0,1.0
45.91,2082.92,1.0,1.0,1.0
45.92,2169.13,1.0,1.0,1.0
45.93,2066.98,1.0,1.0,1.0
45.94,2186.98,1.0,1.0,1.0
45.95,2120.47,1.0,1.0,1.0
45.96,2114.53,1.0,1.0,1.0
45.97,2168.52,1.0,1.0,1.0
45.98,2140.97,1.0,1.0,1.0
45.99,2087.06,1.0,1.0,1.0
46.0,2014.46,1.0,1.0,1.0
46.01,2018.07,1.0,1.0,1.0
46.02,1963.92,1.0,1.0,1.0
46.03,1904.59,1.0,1.0,1.0
46.04,1914.44,1.0,1.0,1.0
46.05,1838.03,1.0,1.0,1.0
46.06,1802.93,1.0,1.0,1.0
46.07,1706.01,1.0,1.0,1.0
46.08,1657.08,1.0,1.0,1.0
46.09,1613.01,1.0,1.0,1.0
46.1,1523.47,1.0,1.0,1.0
46.11,1488.58,1.0,1.0,1.0
46.12,1326.98,1.0,1.0,1.0
46.13,1281.97,1.0,1.0,1.0
46.14,1205.03,1.0,1.0,1.0
46.15,1179.48,1.0,1.0,1.0
46.16,1044.06,1.0,1.0,1.0
46.17,988.9556,1.0,1.0,1.0
46.18,878.9889,1.0,1.0,1.0
46.19,814.0667,1.0,1.0,1.0
46.2,761.4944,1.0,1.0,1.0
46.21,664.4611,1.0,1.0,1.0
46.22,619.0667,1.0,1.0,1.0
46.23,552.9556,1.0,1.0,1.0
46.24,498.4944,1.0,1.0,1.0
46.25,458.0333,1.0,1.0,1.0
46.26,407.0111,1.0,1.0,1.0
46.27,412.5278,1.0,1.0,1.0
46.28,338.9778,1.0,1.0,1.0
46.29,309.0222,1.0,1.0,1.0
46.3,336.4944,1.0,1.0,1.0
46.31,294.9889,1.0,1.0,1.0
46.32,244.0,1.0,1.0,1.0
46.33,247.0,1.0,1.0,1.0
46.34,241.5167,1.0,1.0,1.0
46.35,258.0,1.0,1.0,1.0
46.36,257.4833,1.0,1.0,1.0
46.37,228.5056,1.0,1.0,1.0
46.38,221.0111,1.0,1.0,1.0
46.39,196.5056,1.0,1.0,1.0
46.4,211.5056,1.0,1.0,1.0
46.41,217.4833,1.0,1.0,1.0
46.42,258.0,1.0,1.0,1.0
46.43,219.0222,1.0,1.0,1.0
46.44,221.9778,1.0,1.0,1.0
46.45,238.4944,1.0,1.0,1.0
46.46,220.0111,1.0,1.0,1.0
46.47,180.9778,1.0,1.0,1.0
46.48,222.5167,1.0,1.0,1.0
46.49,235.4944,1.0,1.0,1.0
46.5,165.5056,1.0,1.0,1.0
46.51,204.0,1.0,1.0,1.0
46.52,182.0111,1.0,1.0,1.0
46.53,229.9889,1.0,1.0,1.0
46.54,202.0,1.0,1.0,1.0
46.55,174.5056,1.0,1.0,1.0
46.56,154.4944,1.0,1.0,1.0
46.57,148.0222,1.0,1.0,1.0
46.58,163.4833,1.0,1.0,1.0
46.59,112.5056,1.0,1.0,1.0
46.6,143.0111,1.0,1.0,1.0
46.61,130.9778,1.0,1.0,1.0
46.62,131.0111,1.0,1.0,1.0
46.63,109.5056,1.0,1.0,1.0
46.64,68.0,1.0,1.0,1.0
46.65,112.0,1.0,1.0,1.0
46.66,87.0,1.0,1.0,1.0
46.67,88.5056,1.0,1.0,1.0
46.68,94.9778,1.0,1.0,1.0
46.69,88.0111,1.0,1.0,1.0
46.7,77.4944,1.0,1.0,1.0
46.71,83.0,1.0,1.0,1.0
46.72,100.0111,1.0,1.0,1.0
46.73,97.4944,1.0,1.0,1.0
46.74,128.0,1.0,1.0,1.0
46.75,116.0111,1.0,1.0,1.0
46.76,101.9889,1.0,1.0,1.0
46.77,96.9778,1.0,1.0,1.0
46.78,121.0222,1.0,1.0,1.0
46.79,109.0,1.0,1.0,1.0
46.8,116.5056,1.0,1.0,1.0
46.81,132.9778,1.0,1.0,1.0
46.82,155.5167,1.0,1.0,1.0
46.83,166.4833,1.0,1.0,1.0
46.84,148.0222,1.0,1.0,1.0
46.85,134.9778,1.0,1.0,1.0
46.86,135.0111,1.0,1.0,1.0
46.87,180.5056,1.0,1.0,1.0
46.88,135.5056,1.0,1.0,1.0
46.89,131.0,1.0,1.0,1.0
46.9,136.0,1.0,1.0,1.0
46.91,144.9778,1.0,1.0,1.0
46.92,135.0111,1.0,1.0,1.0
46.93,138.0,1.0,1.0,1.0
46.94,115.5056,1.0,1.0,1.0
46.95,125.0111,1.0,1.0,1.0
46.96,112.9778,1.0,1.0,1.0
46.97,133.0222,1.0,1.0,1.0
46.98,112.4722,1.0,1.0,1.0
46.99,100.0111,1.0,1.0,1.0
47.0,118.9889,1.0,1.0,1.0
47.01,92.5167,1.0,1.0,1.0
47.02,109.0,1.0,1.0,1.0
47.03,97.0111,1.0,1.0,1.0
47.04,86.4833,1.0,1.0,1.0
47.05,115.5056,1.0,1.0,1.0
47.06,103.0111,1.0,1.0,1.0
47.07,97.4944,1.0,1.0,1.0
47.08,112.9889,1.0,1.0,1.0
47.09,79.0111,1.0,1.0,1.0
47.1,113.0,1.0,1.0,1.0
47.11,94.0,1.0,1.0,1.0
47.12,99.0,1.0,1.0,1.0
47.13,115.4833,1.0,1.0,1.0
47.14,128.0111,1.0,1.0,1.0
47.15,118.9889,1.0,1.0,1.0
47.16,119.5167,1.0,1.0,1.0
47.17,126.9778,1.0,1.0,1.0
47.18,121.5167,1.0,1.0,1.0
47.19,154.9778,1.0,1.0,1.0
47.2,139.5278,1.0,1.0,1.0
47.21,150.5056,1.0,1.0,1.0
47.22,138.9667,1.0,1.0,1.0
47.23,158.0222,1.0,1.0,1.0
47.24,170.0,1.0,1.0,1.0
47.25,175.4944,1.0,1.0,1.0
47.26,163.5167,1.0,1.0,1.0
47.27,148.4833,1.0,1.0,1.0
47.28,198.9889,1.0,1.0,1.0
47.29,174.5056,1.0,1.0,1.0
47.3,201.0,1.0,1.0,1.0
47.31,175.5056,1.0,1.0,1.0
47.32,201.4944,1.0,1.0,1.0
47.33,193.9889,1.0,1.0,1.0
47.34,217.9889,1.0,1.0,1.0
47.35,210.0222,1.0,1.0,1.0
47.36,224.9889,1.0,1.0,1.0
47.37,247.0111,1.0,1.0,1.0
47.38,243.5056,1.0,1.0,1.0
47.39,246.9667,1.0,1.0,1.0
47.4,310.5278,1.0,1.0,1.0
47.41,298.9889,1.0,1.0,1.0
47.42,314.0,1.0,1.0,1.0
47.43,364.4833,1.0,1.0,1.0
47.44,368.0111,1.0,1.0,1.0
47.45,364.9889,1.0,1.0,1.0
47.46,390.5056,1.0,1.0,1.0
47.47,435.0,1.0,1.0,1.0
47.48,450.9778,1.0,1.0,1.0
47.49,456.5167,1.0,1.0,1.0
47.5,474.0222,1.0,1.0,1.0
47.51,491.4722,1.0,1.0,1.0
47.52,556.4944,1.0,1.0,1.0
47.53,524.0222,1.0,1.0,1.0
47.54,564.4833,1.0,1.0,1.0
47.55,605.9667,1.0,1.0,1.0
47.56,634.0555,1.0,1.0,1.0
47.57,670.9778,1.0,1.0,1.0
47.58,709.4944,1.0,1.0,1.0
47.59,786.4722,1.0,1.0,1.0
47.6,790.4944,1.0,1.0,1.0
47.61,869.0333,1.0,1.0,1.0
47.62,875.9667,1.0,1.0,1.0
47.63,902.9667,1.0,1.0,1.0
47.64,963.0111,1.0,1.0,1.0
47.65,1024.99,1.0,1.0,1.0
47.66,1088.49,1.0,1.0,1.0
47.67,1267.94,1.0,1.0,1.0
47.68,1290.54,1.0,1.0,1.0
47.69,1454.98,1.0,1.0,1.0
47.7,1523.97,1.0,1.0,1.0
47.71,1670.01,1.0,1.0,1.0
47.72,1892.94,1.0,1.0,1.0
47.73,2177.53,1.0,1.0,1.0
47.74,2494.97,1.0,1.0,1.0
47.75,2715.36,1.0,1.0,1.0
47.76,3327.01,1.0,1.0,1.0
47.77,3804.89,1.0,1.0,1.0
47.78,4623.42,1.0,1.0,1.0
47.79,5499.93,1.0,1.0,1.0
47.8,6919.77,1.0,1.0,1.0
47.81,8856.77,1.0,1.0,1.0
47.82,11396.6,1.0,1.0,1.0
47.83,15067.8,1.0,1.0,1.0
47.84,20451.3,1.0,1.0,1.0
47.85,27986.7,1.0,1.0,1.0
47.86,38664.7,1.0,1.0,1.0
47.87,52352.2,1.0,1.0,1.0
47.88,71084.6,1.0,1.0,1.0
47.89,95920.125,1.0,1.0,1.0
47.9,126753,1.0,1.0,1.0
47.91,167922,1.0,1.0,1.0
47.92,221716.625,1.0,1.0,1.0
47.93,292743,1.0,1.0,1.0
47.94,392070,1.0,1.0,1.0
47.95,535680,1.0,1.0,1.0
47.96,767135.875,1.0,1.0,1.0
47.97,1202924.5,1.0,1.0,1.0
47.98,2823766.25,1.0,1.0,1.0
47.99,9439784.0,1.0,1.0,1.0
48.0,17946086.0,1.0,1.0,1.0
48.01,12753661.0,1.0,1.0,1.0
48.02,7275182.5,1.0,1.0,1.0
48.03,2452987.75,1.0,1.0,1.0
48.04,821690.25,1.0,1.0,1.0
48.05,359633.875,1.0,1.0,1.0
48.06,205718,1.0,1.0,1.0
48.07,128330,1.0,1.0,1.0
48.08,83763.75,1.0,1.0,1.0
48.09,57248.1,1.0,1.0,1.0
48.1,40853.2,1.0,1.0,1.0
48.11,29824.5,1.0,1.0,1.0
48.12,22366.1,1.0,1.0,1.0
48.13,16872.1,1.0,1.0,1.0
48.14,12567.3,1.0,1.0,1.0
48.15,9842.77,1.0,1.0,1.0
48.16,7707.79,1.0,1.0,1.0
48.17,5902.65,1.0,1.0,1.0
48.18,4882.14,1.0,1.0,1.0
48.19,3780.98,1.0,1.0,1.0
48.2,3085.1,1.0,1.0,1.0
48.21,2558.09,1.0,1.0,1.0
48.22,2105.06,1.0,1.0,1.0
48.23,1841.0,1.0,1.0,1.0
48.24,1503.53,1.0,1.0,1.0
48.25,1389.08,1.0,1.0,1.0
48.26,1230.49,1.0,1.0,1.0
48.27,992.4944,1.0,1.0,1.0
48.28,926.4944,1.0,1.0,1.0
48.29,811.5056,1.0,1.0,1.0
48.3,743.5056,1.0,1.0,1.0
48.31,628.0222,1.0,1.0,1.0
48.32,570.5278,1.0,1.0,1.0
48.33,523.9667,1.0,1.0,1.0
48.34,516.0333,1.0,1.0,1.0
48.35,440.0,1.0,1.0,1.0
48.36,459.9889,1.0,1.0,1.0
48.37,399.0222,1.0,1.0,1.0
48.38,306.0,1.0,1.0,1.0
48.39,345.4944,1.0,1.0,1.0
48.4,352.0,1.0,1.0,1.0
48.41,322.9889,1.0,1.0,1.0
48.42,301.0444,1.0,1.0,1.0
48.43,255.9778,1.0,1.0,1.0
48.44,250.0222,1.0,1.0,1.0
48.45,258.4944,1.0,1.0,1.0
48.46,261.9778,1.0,1.0,1.0
48.47,209.5056,1.0,1.0,1.0
48.48,212.0,1.0,1.0,1.0
48.49,181.5167,1.0,1.0,1.0
48.5,191.5056,1.0,1.0,1.0
48.51,194.4833,1.0,1.0,1.0
48.52,199.4722,1.0,1.0,1.0
48.53,165.0333,1.0,1.0,1.0
48.54,142.0,1.0,1.0,1.0
48.55,121.0,1.0,1.0,1.0
48.56,129.0,1.0,1.0,1.0
48.57,145.9778,1.0,1.0,1.0
48.58,99.0333,1.0,1.0,1.0
48.59,105.4833,1.0,1.0,1.0
48.6,95.0111,1.0,1.0,1.0
48.61,102.0,1.0,1.0,1.0
48.62,94.0,1.0,1.0,1.0
48.63,93.4944,1.0,1.0,1.0
48.64,117.0,1.0,1.0,1.0
48.65,75.5056,1.0,1.0,1.0
48.66,70.9889,1.0,1.0,1.0
48.67,85.5167,1.0,1.0,1.0
48.68,54.5056,1.0,1.0,1.0
48.69,68.0,1.0,1.0,1.0
48.7,48.0,1.0,1.0,1.0
48.71,64.0,1.0,1.0,1.0
48.72,65.4944,1.0,1.0,1.0
48.73,41.5056,1.0,1.0,1.0
48.74,56.4833,1.0,1.0,1.0
48.75,68.0111,1.0,1.0,1.0
48.76,64.5056,1.0,1.0,1.0
48.77,52.0,1.0,1.0,1.0
48.78,61.9889,1.0,1.0,1.0
48.79,51.0111,1.0,1.0,1.0
48.8,72.0,1.0,1.0,1.0
48.81,45.9889,1.0,1.0,1.0
48.82,50.0111,1.0,1.0,1.0
48.83,54.0,1.0,1.0,1.0
48.84,52.4944,1.0,1.0,1.0
48.85,41.5056,1.0,1.0,1.0
48.86,56.0,1.0,1.0,1.0
48.87,37.0,1.0,1.0,1.0
48.88,49.4944,1.0,1.0,1.0
48.89,49.5056,1.0,1.0,1.0
48.9,33.0,1.0,1.0,1.0
48.91,44.4944,1.0,1.0,1.0
48.92,43.9889,1.0,1.0,1.0
48.93,41.0111,1.0,1.0,1.0
48.94,42.5056,1.0,1.0,1.0
48.95,33.0,1.0,1.0,1.0
48.96,30.0,1.0,1.0,1.0
48.97,44.0,1.0,1.0,1.0
48.98,27.4944,1.0,1.0,1.0
48.99,27.5056,1.0,1.0,1.0
49.0,20.4944,1.0,1.0,1.0
49.01,39.0,1.0,1.0,1.0
49.02,19.4944,1.0,1.0,1.0
49.03,24.0111,1.0,1.0,1.0
49.04,21.0,1.0,1.0,1.0
49.05,19.0,1.0,1.0,1.0
49.06,14.0,1.0,1.0,1.0
49.07,30.0,1.0,1.0,1.0
49.08,17.0,1.0,1.0,1.0
49.09,11.0,1.0,1.0,1.0
49.1,13.0,1.0,1.0,1.0
49.11,20.0,1.0,1.0,1.0
49.12,18.0,1.0,1.0,1.0
49.13,10.4944,1.0,1.0,1.0
49.14,17.5056,1.0,1.0,1.0
49.15,20.0,1.0,1.0,1.0
49.16,13.4944,1.0,1.0,1.0
49.17,4.5056,1.0,1.0,1.0
49.18,5.0,1.0,1.0,1.0
49.19,10.0,1.0,1.0,1.0
49.2,9.0,1.0,1.0,1.0
49.21,13.0,1.0,1.0,1.0
49.22,17.0,1.0,1.0,1.0
49.23,11.0,1.0,1.0,1.0
49.24,15.4944,1.0,1.0,1.0
49.25,10.5056,1.0,1.0,1.0
49.26,5.0,1.0,1.0,1.0
49.27,2.0,1.0,1.0,1.0
49.28,17.0,1.0,1.0,1.0
49.29,17.0,1.0,1.0,1.0
49.3,18.4944,1.0,1.0,1.0
49.31,4.5056,1.0,1.0,1.0
49.32,10.0,1.0,1.0,1.0
49.33,8.0,1.0,1.0,1.0
49.34,13.4944,1.0,1.0,1.0
49.35,23.5056,1.0,1.0,1.0
49.36,21.0,1.0,1.0,1.0
49.37,6.0,1.0,1.0,1.0
49.38,18.0,1.0,1.0,1.0
49.39,11.0,1.0,1.0,1.0
49.4,7.0,1.0,1.0,1.0
49.41,13.0,1.0,1.0,1.0
49.42,7.0,1.0,1.0,1.0
49.43,17.4944,1.0,1.0,1.0
49.44,9.5056,1.0,1.0,1.0
49.45,13.0,1.0,1.0,1.0
49.46,7.0,1.0,1.0,1.0
49.47,19.4944,1.0,1.0,1.0
49.48,20.5056,1.0,1.0,1.0
49.49,8.4944,1.0,1.0,1.0
49.5,9.5056,1.0,1.0,1.0
49.51,5.0,1.0,1.0,1.0
49.52,8.0,1.0,1.0,1.0
49.53,2.0,1.0,1.0,1.0
49.54,14.0,1.0,1.0,1.0
49.55,13.0,1.0,1.0,1.0
49.56,9.0,1.0,1.0,1.0
49.57,4.0,1.0,1.0,1.0
49.58,12.0,1.0,1.0,1.0
49.59,9.0,1.0,1.0,1.0
49.6,11.0,1.0,1.0,1.0
49.61,4.0,1.0,1.0,1.0
49.62,2.0,1.0,1.0,1.0
49.63,5.0,1.0,1.0,1.0
49.64,13.0,1.0,1.0,1.0
49.65,8.0,1.0,1.0,1.0
49.66,10.0,1.0,1.0,1.0
49.67,6.0,1.0,1.0,1.0
49.68,2.4944,1.0,1.0,1.0
49.69,9.5056,1.0,1.0,1.0
49.7,4.0,1.0,1.0,1.0
49.71,11.0,1.0,1.0,1.0
49.72,9.4944,1.0,1.0,1.0
49.73,8.5056,1.0,1.0,1.0
49.74,7.0,1.0,1.0,1.0
49.75,11.0,1.0,1.0,1.0
49.76,2.0,1.0,1.0,1.0
49.77,7.0,1.0,1.0,1.0
49.78,5.0,1.0,1.0,1.0
49.79,3.0,1.0,1.0,1.0
49.8,4.0,1.0,1.0,1.0
49.81,4.0,1.0,1.0,1.0
49.82,2.0,1.0,1.0,1.0
49.83,2.0,1.0,1.0,1.0
49.84,3.0,1.0,1.0,1.0
49.85,46.0,1.0,1.0,1.0
49.86,12.0,1.0,1.0,1.0
49.87,3.4944,1.0,1.0,1.0
49.88,8.5056,1.0,1.0,1.0
49.89,2.0,1.0,1.0,1.0
49.9,0.0,1.0,1.0,1.0
49.91,2.0,1.0,1.0,1.0
49.92,7.4944,1.0,1.0,1.0
49.93,5.5056,1.0,1.0,1.0
49.94,2.0,1.0,1.0,1.0
49.95,0.0,1.0,1.0,1.0
49.96,3.0,1.0,1.0,1.0
49.97,3.0,1.0,1.0,1.0
49.98,2.0,1.0,1.0,1.0
49.99,5.0,1.0,1.0,1.0
50.0,3.0,1.0,1.0,1.0
50.01,10.0,1.0,1.0,1.0
50.02,5.0,1.0,1.0,1.0
50.03,0.0,1.0,1.0,1.0
50.04,7.0,1.0,1.0,1.0
50.05,3.0,1.0,1.0,1.0
50.06,3.0,1.0,1.0,1.0
50.07,3.9889,1.0,1.0,1.0
50.08,7.0111,1.0,1.0,1.0
50.09,6.0,1.0,1.0,1.0
50.1,4.0,1.0,1.0,1.0
50.11,2.0,1.0,1.0,1.0
50.12,6.0,1.0,1.0,1.0
50.13,0.0,1.0,1.0,1.0
50.14,6.0,1.0,1.0,1.0
50.15,2.0,1.0,1.0,1.0
50.16,7.0,1.0,1.0,1.0
50.17,1.4944,1.0,1.0,1.0
50.18,11.5056,1.0,1.0,1.0
50.19,4.0,1.0,1.0,1.0
50.2,6.0,1.0,1.0,1.0
50.21,8.0,1.0,1.0,1.0
50.22,5.0,1.0,1.0,1.0
50.23,0.0,1.0,1.0,1.0
50.24,1.0,1.0,1.0,1.0
50.25,4.0,1.0,1.0,1.0
50.26,2.0,1.0,1.0,1.0
50.27,5.0,1.0,1.0,1.0
50.28,5.0,1.0,1.0,1.0
50.29,9.0,1.0,1.0,1.0
50.3,0.0,1.0,1.0,1.0
50.31,2.4944,1.0,1.0,1.0
50.32,2.5056,1.0,1.0,1.0
50.33,5.0,1.0,1.0,1.0
50.34,10.0,1.0,1.0,1.0
50.35,0.0,1.0,1.0,1.0
50.36,6.0,1.0,1.0,1.0
50.37,2.0,1.0,1.0,1.0
50.38,10.0,1.0,1.0,1.0
50.39,0.0,1.0,1.0,1.0
50.4,0.0,1.0,1.0,1.0
50.41,11.0,1.0,1.0,1.0
50.42,0.0,1.0,1.0,1.0
50.43,7.0,1.0,1.0,1.0
50.44,2.4944,1.0,1.0,1.0
50.45,4.5056,1.0,1.0,1.0
50.46,7.4944,1.0,1.0,1.0
50.47,5.5056,1.0,1.0,1.0
50.48,3.0,1.0,1.0,1.0
50.49,6.0,1.0,1.0,1.0
50.5,6.0,1.0,1.0,1.0
50.51,6.0,1.0,1.0,1.0
50.52,4.0,1.0,1.0,1.0
50.53,7.0,1.0,1.0,1.0
50.54,0.0,1.0,1.0,1.0
50.55,3.4944,1.0,1.0,1.0
50.56,0.5056,1.0,1.0,1.0
50.57,4.0,1.0,1.0,1.0
50.58,2.0,1.0,1.0,1.0
50.59,2.0,1.0,1.0,1.0
50.6,3.0,1.0,1.0,1.0
50.61,9.0,1.0,1.0,1.0
50.62,8.0,1.0,1.0,1.0
50.63,6.0,1.0,1.0,1.0
50.64,8.0,1.0,1.0,1.0
50.65,2.0,1.0,1.0,1.0
50.66,5.0,1.0,1.0,1.0
50.67,6.0,1.0,1.0,1.0
50.68,10.0,1.0,1.0,1.0
50.69,4.0,1.0,1.0,1.0
50.7,0.0,1.0,1.0,1.0
50.71,3.0,1.0,1.0,1.0
50.72,14.0,1.0,1.0,1.0
50.73,7.0,1.0,1.0,1.0
50.74,3.0,1.0,1.0,1.0
50.75,4.0,1.0,1.0,1.0
50.76,8.0,1.0,1.0,1.0
50.77,10.4944,1.0,1.0,1.0
50.78,3.5056,1.0,1.0,1.0
50.79,2.0,1.0,1.0,1.0
50.8,3.0,1.0,1.0,1.0
50.81,2.0,1.0,1.0,1.0
50.82,2.0,1.0,1.0,1.0
50.83,4.0,1.0,1.0,1.0
50.84,2.0,1.0,1.0,1.0
50.85,4.0,1.0,1.0,1.0
50.86,3.0,1.0,1.0,1.0
50.87,5.4944,1.0,1.0,1.0
50.88,1.5056,1.0,1.0,1.0
50.89,0.0,1.0,1.0,1.0
50.9,0.0,1.0,1.0,1.0
50.91,6.0,1.0,1.0,1.0
50.92,3.0,1.0,1.0,1.0
50.93,0.0,1.0,1.0,1.0
50.94,2.0,1.0,1.0,1.0
50.95,0.0,1.0,1.0,1.0
50.96,2.0,1.0,1.0,1.0
50.97,2.0,1.0,1.0,1.0
50.98,0.0,1.0,1.0,1.0
50.99,0.0,1.0,1.0,1.0
51.0,2.0,1.0,1.0,1.0
51.01,4.0,1.0,1.0,1.0
51.02,2.0,1.0,1.0,1.0
51.03,0.0,1.0,1.0,1.0
51.04,0.0,1.0,1.0,1.0
51.05,0.0,1.0,1.0,1.0
51.06,2.0,1.0,1.0,1.0
51.07,7.0,1.0,1.0,1.0
51.08,0.0,1.0,1.0,1.0
51.09,0.0,1.0,1.0,1.0
51.1,0.0,1.0,1.0,1.0
51.11,0.0,1.0,1.0,1.0
51.12,2.0,1.0,1.0,1.0
51.13,0.0,1.0,1.0,1.0
51.14,3.0,1.0,1.0,1.0
51.15,2.0,1.0,1.0,1.0
51.16,0.0,1.0,1.0,1.0
51.17,2.4944,1.0,1.0,1.0
51.18,2.5056,1.0,1.0,1.0
51.19,2.0,1.0,1.0,1.0
51.2,2.0,1.0,1.0,1.0
51.21,4.0,1.0,1.0,1.0
51.22,0.0,1.0,1.0,1.0
51.23,2.0,1.0,1.0,1.0
51.24,0.0,1.0,1.0,1.0
51.25,0.4944,1.0,1.0,1.0
51.26,8.5056,1.0,1.0,1.0
51.27,0.0,1.0,1.0,1.0
51.28,4.0,1.0,1.0,1.0
51.29,0.0,1.0,1.0,1.0
51.3,1.4944,1.0,1.0,1.0
51.31,5.5056,1.0,1.0,1.0
51.32,4.0,1.0,1.0,1.0
51.33,4.0,1.0,1.0,1.0
51.34,0.0,1.0,1.0,1.0
51.35,53.0,1.0,1.0,1.0
51.36,2.0,1.0,1.0,1.0
51.37,0.0,1.0,1.0,1.0
51.38,2.0,1.0,1.0,1.0
51.39,0.0,1.0,1.0,1.0
51.4,1.0,1.0,1.0,1.0
51.41,2.0,1.0,1.0,1.0
51.42,5.0,1.0,1.0,1.0
51.43,0.0,1.0,1.0,1.0
51.44,8.0,1.0,1.0,1.0
51.45,7.0,1.0,1.0,1.0
51.46,0.0,1.0,1.0,1.0
51.47,4.0,1.0,1.0,1.0
51.48,4.0,1.0,1.0,1.0
51.49,2.0,1.0,1.0,1.0
51.5,2.0,1.0,1.0,1.0
51.51,7.0,1.0,1.0,1.0
51.52,4.0,1.0,1.0,1.0
51.53,2.0,1.0,1.0,1.0
51.54,1.0,1.0,1.0,1.0
51.55,6.0,1.0,1.0,1.0
51.56,0.0,1.0,1.0,1.0
51.57,0.0,1.0,1.0,1.0
51.58,0.0,1.0,1.0,1.0
51.59,1.0,1.0,1.0,1.0
51.6,3.0,1.0,1.0,1.0
51.61,9.0,1.0,1.0,1.0
51.62,9.0,1.0,1.0,1.0
51.63,4.0,1.0,1.0,1.0
51.64,0.0,1.0,1.0,1.0
51.65,7.4944,1.0,1.0,1.0
51.66,0.5056,1.0,1.0,1.0
51.67,2.0,1.0,1.0,1.0
51.68,0.0,1.0,1.0,1.0
51.69,4.0,1.0,1.0,1.0
51.7,4.0,1.0,1.0,1.0
51.71,0.0,1.0,1.0,1.0
51.72,0.0,1.0,1.0,1.0
51.73,2.0,1.0,1.0,1.0
51.74,2.0,1.0,1.0,1.0
51.75,2.0,1.0,1.0,1.0
51.76,0.0,1.0,1.0,1.0
51.77,1.0,1.0,1.0,1.0
51.78,2.0,1.0,1.0,1.0
51.79,0.0,1.0,1.0,1.0
51.8,4.0,1.0,1.0,1.0
51.81,2.0,1.0,1.0,1.0
51.82,0.0,1.0,1.0,1.0
51.83,7.0,1.0,1.0,1.0
51.84,3.0,1.0,1.0,1.0
51.85,0.0,1.0,1.0,1.0
51.86,5.0,1.0,1.0,1.0
51.87,0.0,1.0,1.0,1.0
51.88,2.0,1.0,1.0,1.0
51.89,0.0,1.0,1.0,1.0
51.9,3.0,1.0,1.0,1.0
51.91,2.0,1.0,1.0,1.0
51.92,6.0,1.0,1.0,1.0
51.93,2.0,1.0,1.0,1.0
51.94,0.0,1.0,1.0,1.0
51.95,2.0,1.0,1.0,1.0
51.96,2.0,1.0,1.0,1.0
51.97,2.0,1.0,1.0,1.0
51.98,0.0,1.0,1.0,1.0
51.99,0.0,1.0,1.0,1.0
52.0,2.0,1.0,1.0,1.0