File: XRD:XRR/RIXS 214/M11 L2NOT/M11d_L2NOT_002_XRD.csv
#twotheta, yobs, ycal, bkg, diff
42.0,63.0,1.0,1.0,1.0
42.01,39.0,1.0,1.0,1.0
42.02,70.0111,1.0,1.0,1.0
42.03,85.4944,1.0,1.0,1.0
42.04,81.4833,1.0,1.0,1.0
42.05,76.5167,1.0,1.0,1.0
42.06,82.0,1.0,1.0,1.0
42.07,117.9778,1.0,1.0,1.0
42.08,138.5167,1.0,1.0,1.0
42.09,151.5056,1.0,1.0,1.0
42.1,176.4944,1.0,1.0,1.0
42.11,208.9889,1.0,1.0,1.0
42.12,227.0111,1.0,1.0,1.0
42.13,251.9889,1.0,1.0,1.0
42.14,304.9889,1.0,1.0,1.0
42.15,343.0,1.0,1.0,1.0
42.16,367.9889,1.0,1.0,1.0
42.17,414.0,1.0,1.0,1.0
42.18,530.4833,1.0,1.0,1.0
42.19,549.9778,1.0,1.0,1.0
42.2,631.5278,1.0,1.0,1.0
42.21,651.9556,1.0,1.0,1.0
42.22,797.5056,1.0,1.0,1.0
42.23,802.0333,1.0,1.0,1.0
42.24,976.4944,1.0,1.0,1.0
42.25,1066.96,1.0,1.0,1.0
42.26,1125.98,1.0,1.0,1.0
42.27,1195.96,1.0,1.0,1.0
42.28,1300.01,1.0,1.0,1.0
42.29,1487.96,1.0,1.0,1.0
42.3,1569.53,1.0,1.0,1.0
42.31,1680.49,1.0,1.0,1.0
42.32,1778.99,1.0,1.0,1.0
42.33,1993.51,1.0,1.0,1.0
42.34,1991.48,1.0,1.0,1.0
42.35,2257.43,1.0,1.0,1.0
42.36,2410.011,1.0,1.0,1.0
42.37,2592.04,1.0,1.0,1.0
42.38,2657.439,1.0,1.0,1.0
42.39,2909.46,1.0,1.0,1.0
42.4,3012.439,1.0,1.0,1.0
42.41,3162.55,1.0,1.0,1.0
42.42,3501.48,1.0,1.0,1.0
42.43,3615.45,1.0,1.0,1.0
42.44,3769.011,1.0,1.0,1.0
42.45,3948.38,1.0,1.0,1.0
42.46,4181.439,1.0,1.0,1.0
42.47,4285.08,1.0,1.0,1.0
42.48,4485.91,1.0,1.0,1.0
42.49,4727.63,1.0,1.0,1.0
42.5,4916.31,1.0,1.0,1.0
42.51,5255.54,1.0,1.0,1.0
42.52,5378.08,1.0,1.0,1.0
42.53,5609.47,1.0,1.0,1.0
42.54,5737.86,1.0,1.0,1.0
42.55,6105.38,1.0,1.0,1.0
42.56,6014.74,1.0,1.0,1.0
42.57,6429.34,1.0,1.0,1.0
42.58,6558.39,1.0,1.0,1.0
42.59,6833.09,1.0,1.0,1.0
42.6,7015.46,1.0,1.0,1.0
42.61,7260.022,1.0,1.0,1.0
42.62,7419.47,1.0,1.0,1.0
42.63,7612.38,1.0,1.0,1.0
42.64,7884.07,1.0,1.0,1.0
42.65,7928.41,1.0,1.0,1.0
42.66,8109.1,1.0,1.0,1.0
42.67,8397.91,1.0,1.0,1.0
42.68,8443.01,1.0,1.0,1.0
42.69,8675.97,1.0,1.0,1.0
42.7,8741.51,1.0,1.0,1.0
42.71,9020.98,1.0,1.0,1.0
42.72,9112.01,1.0,1.0,1.0
42.73,9093.43,1.0,1.0,1.0
42.74,9305.46,1.0,1.0,1.0
42.75,9296.57,1.0,1.0,1.0
42.76,9310.03,1.0,1.0,1.0
42.77,9467.12,1.0,1.0,1.0
42.78,9457.72,1.0,1.0,1.0
42.79,9639.07,1.0,1.0,1.0
42.8,9900.06,1.0,1.0,1.0
42.81,9776.53,1.0,1.0,1.0
42.82,9650.33,1.0,1.0,1.0
42.83,9963.56,1.0,1.0,1.0
42.84,9784.97,1.0,1.0,1.0
42.85,9794.04,1.0,1.0,1.0
42.86,9916.94,1.0,1.0,1.0
42.87,9594.55,1.0,1.0,1.0
42.88,9768.16,1.0,1.0,1.0
42.89,9499.29,1.0,1.0,1.0
42.9,9492.67,1.0,1.0,1.0
42.91,9599.9,1.0,1.0,1.0
42.92,9547.1,1.0,1.0,1.0
42.93,9430.52,1.0,1.0,1.0
42.94,9289.92,1.0,1.0,1.0
42.95,9192.44,1.0,1.0,1.0
42.96,9094.73,1.0,1.0,1.0
42.97,8920.06,1.0,1.0,1.0
42.98,8834.77,1.0,1.0,1.0
42.99,8743.47,1.0,1.0,1.0
43.0,8539.64,1.0,1.0,1.0
43.01,8422.89,1.0,1.0,1.0
43.02,8261.21,1.0,1.0,1.0
43.03,7998.94,1.0,1.0,1.0
43.04,7691.04,1.0,1.0,1.0
43.05,7800.03,1.0,1.0,1.0
43.06,7486.93,1.0,1.0,1.0
43.07,7239.62,1.0,1.0,1.0
43.08,7170.98,1.0,1.0,1.0
43.09,6813.46,1.0,1.0,1.0
43.1,6567.45,1.0,1.0,1.0
43.11,6539.83,1.0,1.0,1.0
43.12,6283.82,1.0,1.0,1.0
43.13,6051.1,1.0,1.0,1.0
43.14,5838.09,1.0,1.0,1.0
43.15,5542.38,1.0,1.0,1.0
43.16,5309.64,1.0,1.0,1.0
43.17,5201.46,1.0,1.0,1.0
43.18,4938.91,1.0,1.0,1.0
43.19,4784.69,1.0,1.0,1.0
43.2,4436.92,1.0,1.0,1.0
43.21,4243.01,1.0,1.0,1.0
43.22,3972.61,1.0,1.0,1.0
43.23,3712.45,1.0,1.0,1.0
43.24,3596.61,1.0,1.0,1.0
43.25,3402.03,1.0,1.0,1.0
43.26,3259.49,1.0,1.0,1.0
43.27,2990.97,1.0,1.0,1.0
43.28,2857.55,1.0,1.0,1.0
43.29,2646.06,1.0,1.0,1.0
43.3,2430.54,1.0,1.0,1.0
43.31,2189.46,1.0,1.0,1.0
43.32,2115.52,1.0,1.0,1.0
43.33,1918.55,1.0,1.0,1.0
43.34,1844.98,1.0,1.0,1.0
43.35,1706.03,1.0,1.0,1.0
43.36,1579.98,1.0,1.0,1.0
43.37,1480.48,1.0,1.0,1.0
43.38,1366.57,1.0,1.0,1.0
43.39,1245.51,1.0,1.0,1.0
43.4,1129.03,1.0,1.0,1.0
43.41,1011.46,1.0,1.0,1.0
43.42,903.0444,1.0,1.0,1.0
43.43,854.0,1.0,1.0,1.0
43.44,792.0111,1.0,1.0,1.0
43.45,704.4833,1.0,1.0,1.0
43.46,631.0333,1.0,1.0,1.0
43.47,562.5056,1.0,1.0,1.0
43.48,540.4833,1.0,1.0,1.0
43.49,490.5389,1.0,1.0,1.0
43.5,480.0,1.0,1.0,1.0
43.51,445.4611,1.0,1.0,1.0
43.52,436.0222,1.0,1.0,1.0
43.53,426.0222,1.0,1.0,1.0
43.54,414.4722,1.0,1.0,1.0
43.55,431.5389,1.0,1.0,1.0
43.56,445.9778,1.0,1.0,1.0
43.57,431.4944,1.0,1.0,1.0
43.58,427.0,1.0,1.0,1.0
43.59,486.4833,1.0,1.0,1.0
43.6,487.9889,1.0,1.0,1.0
43.61,517.0,1.0,1.0,1.0
43.62,507.0444,1.0,1.0,1.0
43.63,503.4833,1.0,1.0,1.0
43.64,566.4833,1.0,1.0,1.0
43.65,578.5167,1.0,1.0,1.0
43.66,565.4833,1.0,1.0,1.0
43.67,696.4722,1.0,1.0,1.0
43.68,699.0111,1.0,1.0,1.0
43.69,730.4944,1.0,1.0,1.0
43.7,753.5167,1.0,1.0,1.0
43.71,748.9667,1.0,1.0,1.0
43.72,832.5167,1.0,1.0,1.0
43.73,837.4944,1.0,1.0,1.0
43.74,873.0222,1.0,1.0,1.0
43.75,891.4833,1.0,1.0,1.0
43.76,863.45,1.0,1.0,1.0
43.77,947.5278,1.0,1.0,1.0
43.78,990.0,1.0,1.0,1.0
43.79,999.9333,1.0,1.0,1.0
43.8,998.0222,1.0,1.0,1.0
43.81,1010.04,1.0,1.0,1.0
43.82,1060.46,1.0,1.0,1.0
43.83,1086.03,1.0,1.0,1.0
43.84,1038.99,1.0,1.0,1.0
43.85,994.0111,1.0,1.0,1.0
43.86,1059.53,1.0,1.0,1.0
43.87,1028.06,1.0,1.0,1.0
43.88,1018.45,1.0,1.0,1.0
43.89,1079.45,1.0,1.0,1.0
43.9,1080.49,1.0,1.0,1.0
43.91,1015.53,1.0,1.0,1.0
43.92,986.9778,1.0,1.0,1.0
43.93,1004.99,1.0,1.0,1.0
43.94,918.0333,1.0,1.0,1.0
43.95,950.0,1.0,1.0,1.0
43.96,914.0444,1.0,1.0,1.0
43.97,875.4611,1.0,1.0,1.0
43.98,849.4722,1.0,1.0,1.0
43.99,860.0333,1.0,1.0,1.0
44.0,803.0333,1.0,1.0,1.0
44.01,816.9667,1.0,1.0,1.0
44.02,766.0444,1.0,1.0,1.0
44.03,735.9667,1.0,1.0,1.0
44.04,698.5056,1.0,1.0,1.0
44.05,652.5056,1.0,1.0,1.0
44.06,636.9778,1.0,1.0,1.0
44.07,620.55,1.0,1.0,1.0
44.08,615.9889,1.0,1.0,1.0
44.09,553.0222,1.0,1.0,1.0
44.1,549.4722,1.0,1.0,1.0
44.11,520.5056,1.0,1.0,1.0
44.12,490.9889,1.0,1.0,1.0
44.13,498.0333,1.0,1.0,1.0
44.14,437.4944,1.0,1.0,1.0
44.15,423.4944,1.0,1.0,1.0
44.16,494.4944,1.0,1.0,1.0
44.17,436.4944,1.0,1.0,1.0
44.18,377.0333,1.0,1.0,1.0
44.19,383.4722,1.0,1.0,1.0
44.2,374.4944,1.0,1.0,1.0
44.21,361.0222,1.0,1.0,1.0
44.22,376.9889,1.0,1.0,1.0
44.23,380.5167,1.0,1.0,1.0
44.24,365.9889,1.0,1.0,1.0
44.25,381.0222,1.0,1.0,1.0
44.26,387.9889,1.0,1.0,1.0
44.27,362.9889,1.0,1.0,1.0
44.28,398.0111,1.0,1.0,1.0
44.29,447.9889,1.0,1.0,1.0
44.3,399.0333,1.0,1.0,1.0
44.31,421.9778,1.0,1.0,1.0
44.32,460.4944,1.0,1.0,1.0
44.33,513.4722,1.0,1.0,1.0
44.34,508.5278,1.0,1.0,1.0
44.35,548.0111,1.0,1.0,1.0
44.36,569.4611,1.0,1.0,1.0
44.37,542.0111,1.0,1.0,1.0
44.38,561.5056,1.0,1.0,1.0
44.39,628.0222,1.0,1.0,1.0
44.4,679.4611,1.0,1.0,1.0
44.41,698.4722,1.0,1.0,1.0
44.42,723.55,1.0,1.0,1.0
44.43,701.4389,1.0,1.0,1.0
44.44,776.0222,1.0,1.0,1.0
44.45,791.0111,1.0,1.0,1.0
44.46,793.4722,1.0,1.0,1.0
44.47,793.5167,1.0,1.0,1.0
44.48,876.4944,1.0,1.0,1.0
44.49,887.4944,1.0,1.0,1.0
44.5,900.4833,1.0,1.0,1.0
44.51,943.0333,1.0,1.0,1.0
44.52,923.4833,1.0,1.0,1.0
44.53,921.0,1.0,1.0,1.0
44.54,971.5278,1.0,1.0,1.0
44.55,972.4722,1.0,1.0,1.0
44.56,1002.45,1.0,1.0,1.0
44.57,945.0778,1.0,1.0,1.0
44.58,986.9667,1.0,1.0,1.0
44.59,1025.98,1.0,1.0,1.0
44.6,1061.0,1.0,1.0,1.0
44.61,990.0111,1.0,1.0,1.0
44.62,1016.97,1.0,1.0,1.0
44.63,964.9778,1.0,1.0,1.0
44.64,1025.55,1.0,1.0,1.0
44.65,997.5389,1.0,1.0,1.0
44.66,966.9667,1.0,1.0,1.0
44.67,993.4611,1.0,1.0,1.0
44.68,978.0444,1.0,1.0,1.0
44.69,903.0111,1.0,1.0,1.0
44.7,859.0333,1.0,1.0,1.0
44.71,842.9445,1.0,1.0,1.0
44.72,812.0111,1.0,1.0,1.0
44.73,845.0333,1.0,1.0,1.0
44.74,814.5056,1.0,1.0,1.0
44.75,804.4722,1.0,1.0,1.0
44.76,791.4722,1.0,1.0,1.0
44.77,753.5389,1.0,1.0,1.0
44.78,775.9667,1.0,1.0,1.0
44.79,704.0222,1.0,1.0,1.0
44.8,748.5056,1.0,1.0,1.0
44.81,734.0333,1.0,1.0,1.0
44.82,664.4944,1.0,1.0,1.0
44.83,702.9889,1.0,1.0,1.0
44.84,670.4722,1.0,1.0,1.0
44.85,664.0444,1.0,1.0,1.0
44.86,600.9889,1.0,1.0,1.0
44.87,623.5167,1.0,1.0,1.0
44.88,591.0222,1.0,1.0,1.0
44.89,540.9667,1.0,1.0,1.0
44.9,526.0111,1.0,1.0,1.0
44.91,526.0,1.0,1.0,1.0
44.92,497.0,1.0,1.0,1.0
44.93,518.4722,1.0,1.0,1.0
44.94,500.4611,1.0,1.0,1.0
44.95,474.5611,1.0,1.0,1.0
44.96,504.4944,1.0,1.0,1.0
44.97,516.5056,1.0,1.0,1.0
44.98,430.0,1.0,1.0,1.0
44.99,409.0,1.0,1.0,1.0
45.0,432.0222,1.0,1.0,1.0
45.01,457.4833,1.0,1.0,1.0
45.02,421.4944,1.0,1.0,1.0
45.03,426.4944,1.0,1.0,1.0
45.04,412.0444,1.0,1.0,1.0
45.05,402.4722,1.0,1.0,1.0
45.06,384.4944,1.0,1.0,1.0
45.07,395.4944,1.0,1.0,1.0
45.08,407.5278,1.0,1.0,1.0
45.09,435.9778,1.0,1.0,1.0
45.1,465.0111,1.0,1.0,1.0
45.11,465.9889,1.0,1.0,1.0
45.12,454.9889,1.0,1.0,1.0
45.13,515.0333,1.0,1.0,1.0
45.14,441.9667,1.0,1.0,1.0
45.15,518.0,1.0,1.0,1.0
45.16,494.0111,1.0,1.0,1.0
45.17,539.5056,1.0,1.0,1.0
45.18,560.4833,1.0,1.0,1.0
45.19,555.5056,1.0,1.0,1.0
45.2,552.5056,1.0,1.0,1.0
45.21,595.0,1.0,1.0,1.0
45.22,565.4944,1.0,1.0,1.0
45.23,636.9778,1.0,1.0,1.0
45.24,596.5056,1.0,1.0,1.0
45.25,632.5278,1.0,1.0,1.0
45.26,652.9667,1.0,1.0,1.0
45.27,690.4833,1.0,1.0,1.0
45.28,648.5167,1.0,1.0,1.0
45.29,701.4944,1.0,1.0,1.0
45.3,684.9556,1.0,1.0,1.0
45.31,674.0444,1.0,1.0,1.0
45.32,767.0111,1.0,1.0,1.0
45.33,693.9889,1.0,1.0,1.0
45.34,691.4944,1.0,1.0,1.0
45.35,747.5056,1.0,1.0,1.0
45.36,740.9778,1.0,1.0,1.0
45.37,788.4611,1.0,1.0,1.0
45.38,789.5611,1.0,1.0,1.0
45.39,797.5278,1.0,1.0,1.0
45.4,787.9889,1.0,1.0,1.0
45.41,765.9667,1.0,1.0,1.0
45.42,756.9667,1.0,1.0,1.0
45.43,747.55,1.0,1.0,1.0
45.44,791.9667,1.0,1.0,1.0
45.45,783.0222,1.0,1.0,1.0
45.46,739.4944,1.0,1.0,1.0
45.47,742.55,1.0,1.0,1.0
45.48,714.45,1.0,1.0,1.0
45.49,753.0222,1.0,1.0,1.0
45.5,732.9889,1.0,1.0,1.0
45.51,690.5167,1.0,1.0,1.0
45.52,699.5389,1.0,1.0,1.0
45.53,696.4611,1.0,1.0,1.0
45.54,716.9778,1.0,1.0,1.0
45.55,723.5389,1.0,1.0,1.0
45.56,730.4611,1.0,1.0,1.0
45.57,689.9889,1.0,1.0,1.0
45.58,697.9556,1.0,1.0,1.0
45.59,720.5944,1.0,1.0,1.0
45.6,673.9778,1.0,1.0,1.0
45.61,682.5056,1.0,1.0,1.0
45.62,711.5167,1.0,1.0,1.0
45.63,633.4944,1.0,1.0,1.0
45.64,670.4833,1.0,1.0,1.0
45.65,693.4833,1.0,1.0,1.0
45.66,728.0333,1.0,1.0,1.0
45.67,757.0,1.0,1.0,1.0
45.68,715.4278,1.0,1.0,1.0
45.69,724.55,1.0,1.0,1.0
45.7,690.0111,1.0,1.0,1.0
45.71,675.0333,1.0,1.0,1.0
45.72,759.4389,1.0,1.0,1.0
45.73,807.0111,1.0,1.0,1.0
45.74,766.5056,1.0,1.0,1.0
45.75,781.9889,1.0,1.0,1.0
45.76,828.0,1.0,1.0,1.0
45.77,800.0,1.0,1.0,1.0
45.78,825.9778,1.0,1.0,1.0
45.79,968.5278,1.0,1.0,1.0
45.8,962.4833,1.0,1.0,1.0
45.81,953.5389,1.0,1.0,1.0
45.82,964.9778,1.0,1.0,1.0
45.83,983.9445,1.0,1.0,1.0
45.84,1027.52,1.0,1.0,1.0
45.85,1122.01,1.0,1.0,1.0
45.86,1195.47,1.0,1.0,1.0
45.87,1136.02,1.0,1.0,1.0
45.88,1266.49,1.0,1.0,1.0
45.89,1290.53,1.0,1.0,1.0
45.9,1287.0,1.0,1.0,1.0
45.91,1402.44,1.0,1.0,1.0
45.92,1466.49,1.0,1.0,1.0
45.93,1533.0,1.0,1.0,1.0
45.94,1559.49,1.0,1.0,1.0
45.95,1599.46,1.0,1.0,1.0
45.96,1722.54,1.0,1.0,1.0
45.97,1746.94,1.0,1.0,1.0
45.98,1829.99,1.0,1.0,1.0
45.99,1937.47,1.0,1.0,1.0
46.0,1942.1,1.0,1.0,1.0
46.01,2000.45,1.0,1.0,1.0
46.02,2138.54,1.0,1.0,1.0
46.03,2103.41,1.0,1.0,1.0
46.04,2222.55,1.0,1.0,1.0
46.05,2305.96,1.0,1.0,1.0
46.06,2490.99,1.0,1.0,1.0
46.07,2599.98,1.0,1.0,1.0
46.08,2659.97,1.0,1.0,1.0
46.09,2787.58,1.0,1.0,1.0
46.1,2883.39,1.0,1.0,1.0
46.11,3087.04,1.0,1.0,1.0
46.12,3102.94,1.0,1.0,1.0
46.13,3161.52,1.0,1.0,1.0
46.14,3319.99,1.0,1.0,1.0
46.15,3573.46,1.0,1.0,1.0
46.16,3744.51,1.0,1.0,1.0
46.17,3925.01,1.0,1.0,1.0
46.18,4109.93,1.0,1.0,1.0
46.19,4390.97,1.0,1.0,1.0
46.2,4638.94,1.0,1.0,1.0
46.21,4987.13,1.0,1.0,1.0
46.22,5324.75,1.0,1.0,1.0
46.23,5570.49,1.0,1.0,1.0
46.24,6067.06,1.0,1.0,1.0
46.25,6405.41,1.0,1.0,1.0
46.26,6854.84,1.0,1.0,1.0
46.27,7425.47,1.0,1.0,1.0
46.28,8219.27,1.0,1.0,1.0
46.29,8938.03,1.0,1.0,1.0
46.3,10046.0,1.0,1.0,1.0
46.31,10995.5,1.0,1.0,1.0
46.32,12447.1,1.0,1.0,1.0
46.33,13988.3,1.0,1.0,1.0
46.34,16464.3,1.0,1.0,1.0
46.35,19493.7,1.0,1.0,1.0
46.36,23742.7,1.0,1.0,1.0
46.37,30816.4,1.0,1.0,1.0
46.38,43587.3,1.0,1.0,1.0
46.39,68797.2,1.0,1.0,1.0
46.4,110494,1.0,1.0,1.0
46.41,169551,1.0,1.0,1.0
46.42,270183.875,1.0,1.0,1.0
46.43,531633.25,1.0,1.0,1.0
46.44,1669449.5,1.0,1.0,1.0
46.45,4091291.25,1.0,1.0,1.0
46.46,7314201.0,1.0,1.0,1.0
46.47,10905732.0,1.0,1.0,1.0
46.48,17380072.0,1.0,1.0,1.0
46.49,25501722.0,1.0,1.0,1.0
46.5,24605714.0,1.0,1.0,1.0
46.51,12662972.0,1.0,1.0,1.0
46.52,2719231.0,1.0,1.0,1.0
46.53,860226,1.0,1.0,1.0
46.54,463215,1.0,1.0,1.0
46.55,268984,1.0,1.0,1.0
46.56,152458,1.0,1.0,1.0
46.57,84169.6,1.0,1.0,1.0
46.58,51977.3,1.0,1.0,1.0
46.59,37193.6,1.0,1.0,1.0
46.6,28322.9,1.0,1.0,1.0
46.61,21761.9,1.0,1.0,1.0
46.62,17298.8,1.0,1.0,1.0
46.63,14245.1,1.0,1.0,1.0
46.64,11952.9,1.0,1.0,1.0
46.65,10251,1.0,1.0,1.0
46.66,8877.75,1.0,1.0,1.0
46.67,7771.1,1.0,1.0,1.0
46.68,6968.54,1.0,1.0,1.0
46.69,6012.1,1.0,1.0,1.0
46.7,5450.54,1.0,1.0,1.0
46.71,4719.1,1.0,1.0,1.0
46.72,4378.52,1.0,1.0,1.0
46.73,3773.59,1.0,1.0,1.0
46.74,3552.0,1.0,1.0,1.0
46.75,3300.07,1.0,1.0,1.0
46.76,3065.47,1.0,1.0,1.0
46.77,2768.09,1.0,1.0,1.0
46.78,2509.46,1.0,1.0,1.0
46.79,2287.55,1.0,1.0,1.0
46.8,2136.48,1.0,1.0,1.0
46.81,1837.56,1.0,1.0,1.0
46.82,1802.99,1.0,1.0,1.0
46.83,1714.52,1.0,1.0,1.0
46.84,1561.02,1.0,1.0,1.0
46.85,1472.03,1.0,1.0,1.0
46.86,1353.51,1.0,1.0,1.0
46.87,1361.47,1.0,1.0,1.0
46.88,1308.03,1.0,1.0,1.0
46.89,1098.47,1.0,1.0,1.0
46.9,1100.09,1.0,1.0,1.0
46.91,1061.94,1.0,1.0,1.0
46.92,951.0555,1.0,1.0,1.0
46.93,925.4833,1.0,1.0,1.0
46.94,864.4944,1.0,1.0,1.0
46.95,808.0111,1.0,1.0,1.0
46.96,854.4722,1.0,1.0,1.0
46.97,778.5278,1.0,1.0,1.0
46.98,756.4722,1.0,1.0,1.0
46.99,719.9556,1.0,1.0,1.0
47.0,697.5722,1.0,1.0,1.0
47.01,677.5056,1.0,1.0,1.0
47.02,664.5056,1.0,1.0,1.0
47.03,595.9889,1.0,1.0,1.0
47.04,576.0111,1.0,1.0,1.0
47.05,580.0,1.0,1.0,1.0
47.06,597.0111,1.0,1.0,1.0
47.07,522.4944,1.0,1.0,1.0
47.08,553.4833,1.0,1.0,1.0
47.09,489.4944,1.0,1.0,1.0
47.1,481.0222,1.0,1.0,1.0
47.11,469.0222,1.0,1.0,1.0
47.12,449.9889,1.0,1.0,1.0
47.13,447.0,1.0,1.0,1.0
47.14,416.4944,1.0,1.0,1.0
47.15,419.0222,1.0,1.0,1.0
47.16,421.9889,1.0,1.0,1.0
47.17,437.4722,1.0,1.0,1.0
47.18,407.5167,1.0,1.0,1.0
47.19,348.0222,1.0,1.0,1.0
47.2,346.5167,1.0,1.0,1.0
47.21,348.45,1.0,1.0,1.0
47.22,366.0333,1.0,1.0,1.0
47.23,316.4944,1.0,1.0,1.0
47.24,319.9889,1.0,1.0,1.0
47.25,286.5278,1.0,1.0,1.0
47.26,300.9889,1.0,1.0,1.0
47.27,286.4944,1.0,1.0,1.0
47.28,302.0111,1.0,1.0,1.0
47.29,245.9889,1.0,1.0,1.0
47.3,254.0,1.0,1.0,1.0
47.31,252.0,1.0,1.0,1.0
47.32,236.4944,1.0,1.0,1.0
47.33,201.0222,1.0,1.0,1.0
47.34,228.5056,1.0,1.0,1.0
47.35,207.4833,1.0,1.0,1.0
47.36,194.0111,1.0,1.0,1.0
47.37,180.4944,1.0,1.0,1.0
47.38,160.4944,1.0,1.0,1.0
47.39,166.5056,1.0,1.0,1.0
47.4,132.9778,1.0,1.0,1.0
47.41,162.5389,1.0,1.0,1.0
47.42,141.9889,1.0,1.0,1.0
47.43,147.4944,1.0,1.0,1.0
47.44,122.5167,1.0,1.0,1.0
47.45,112.4722,1.0,1.0,1.0
47.46,117.5278,1.0,1.0,1.0
47.47,109.9889,1.0,1.0,1.0
47.48,121.0,1.0,1.0,1.0
47.49,85.0111,1.0,1.0,1.0
47.5,88.9889,1.0,1.0,1.0
47.51,80.0111,1.0,1.0,1.0
47.52,82.5056,1.0,1.0,1.0
47.53,91.9889,1.0,1.0,1.0
47.54,65.5056,1.0,1.0,1.0
47.55,80.5056,1.0,1.0,1.0
47.56,63.0,1.0,1.0,1.0
47.57,88.9778,1.0,1.0,1.0
47.58,71.0111,1.0,1.0,1.0
47.59,56.0111,1.0,1.0,1.0
47.6,70.4944,1.0,1.0,1.0
47.61,79.5056,1.0,1.0,1.0
47.62,68.9889,1.0,1.0,1.0
47.63,64.9889,1.0,1.0,1.0
47.64,65.0222,1.0,1.0,1.0
47.65,75.0,1.0,1.0,1.0
47.66,65.4944,1.0,1.0,1.0
47.67,56.5056,1.0,1.0,1.0
47.68,51.4944,1.0,1.0,1.0
47.69,61.5056,1.0,1.0,1.0
47.7,65.9889,1.0,1.0,1.0
47.71,59.5056,1.0,1.0,1.0
47.72,57.0,1.0,1.0,1.0
47.73,59.5056,1.0,1.0,1.0
47.74,76.9778,1.0,1.0,1.0
47.75,52.5056,1.0,1.0,1.0
47.76,54.5056,1.0,1.0,1.0
47.77,64.0111,1.0,1.0,1.0
47.78,57.9889,1.0,1.0,1.0
47.79,50.0111,1.0,1.0,1.0
47.8,75.0,1.0,1.0,1.0
47.81,51.0,1.0,1.0,1.0
47.82,64.4944,1.0,1.0,1.0
47.83,57.5056,1.0,1.0,1.0
47.84,66.4944,1.0,1.0,1.0
47.85,65.5056,1.0,1.0,1.0
47.86,43.0,1.0,1.0,1.0
47.87,56.0,1.0,1.0,1.0
47.88,71.0,1.0,1.0,1.0
47.89,65.4944,1.0,1.0,1.0
47.9,50.4944,1.0,1.0,1.0
47.91,60.0111,1.0,1.0,1.0
47.92,49.4944,1.0,1.0,1.0
47.93,40.0,1.0,1.0,1.0
47.94,74.4944,1.0,1.0,1.0
47.95,51.0111,1.0,1.0,1.0
47.96,64.4944,1.0,1.0,1.0
47.97,46.9889,1.0,1.0,1.0
47.98,63.0111,1.0,1.0,1.0
47.99,48.9889,1.0,1.0,1.0
48.0,29.5167,1.0,1.0,1.0
48.01,37.4944,1.0,1.0,1.0
48.02,52.4944,1.0,1.0,1.0
48.03,43.4944,1.0,1.0,1.0
48.04,51.0111,1.0,1.0,1.0
48.05,56.5056,1.0,1.0,1.0
48.06,39.0,1.0,1.0,1.0
48.07,48.0,1.0,1.0,1.0
48.08,34.0,1.0,1.0,1.0
48.09,37.4833,1.0,1.0,1.0
48.1,55.5167,1.0,1.0,1.0
48.11,40.0,1.0,1.0,1.0
48.12,30.4944,1.0,1.0,1.0
48.13,41.5056,1.0,1.0,1.0
48.14,31.4833,1.0,1.0,1.0
48.15,22.5167,1.0,1.0,1.0
48.16,15.0,1.0,1.0,1.0
48.17,32.0,1.0,1.0,1.0
48.18,22.0,1.0,1.0,1.0
48.19,24.4944,1.0,1.0,1.0
48.2,24.0,1.0,1.0,1.0
48.21,32.5056,1.0,1.0,1.0
48.22,29.9889,1.0,1.0,1.0
48.23,34.0111,1.0,1.0,1.0
48.24,15.0,1.0,1.0,1.0
48.25,30.0,1.0,1.0,1.0
48.26,22.0,1.0,1.0,1.0
48.27,19.0,1.0,1.0,1.0
48.28,22.0,1.0,1.0,1.0
48.29,15.0,1.0,1.0,1.0
48.3,23.4944,1.0,1.0,1.0
48.31,11.5056,1.0,1.0,1.0
48.32,21.4944,1.0,1.0,1.0
48.33,12.5056,1.0,1.0,1.0
48.34,19.0,1.0,1.0,1.0
48.35,18.9889,1.0,1.0,1.0
48.36,16.0111,1.0,1.0,1.0
48.37,8.0,1.0,1.0,1.0
48.38,12.4944,1.0,1.0,1.0
48.39,28.5056,1.0,1.0,1.0
48.4,8.0,1.0,1.0,1.0
48.41,21.0,1.0,1.0,1.0
48.42,19.0,1.0,1.0,1.0
48.43,26.0,1.0,1.0,1.0
48.44,15.4944,1.0,1.0,1.0
48.45,22.0,1.0,1.0,1.0
48.46,21.5056,1.0,1.0,1.0
48.47,13.0,1.0,1.0,1.0
48.48,11.4944,1.0,1.0,1.0
48.49,12.5056,1.0,1.0,1.0
48.5,9.0,1.0,1.0,1.0
48.51,15.0,1.0,1.0,1.0
48.52,19.0,1.0,1.0,1.0
48.53,7.0,1.0,1.0,1.0
48.54,29.0,1.0,1.0,1.0
48.55,22.4944,1.0,1.0,1.0
48.56,18.5056,1.0,1.0,1.0
48.57,9.0,1.0,1.0,1.0
48.58,18.0,1.0,1.0,1.0
48.59,9.0,1.0,1.0,1.0
48.6,15.0,1.0,1.0,1.0
48.61,14.0,1.0,1.0,1.0
48.62,22.0,1.0,1.0,1.0
48.63,22.4944,1.0,1.0,1.0
48.64,29.5056,1.0,1.0,1.0
48.65,27.4944,1.0,1.0,1.0
48.66,15.4944,1.0,1.0,1.0
48.67,24.0111,1.0,1.0,1.0
48.68,18.0,1.0,1.0,1.0
48.69,28.0,1.0,1.0,1.0
48.7,6.0,1.0,1.0,1.0
48.71,16.0,1.0,1.0,1.0
48.72,31.0,1.0,1.0,1.0
48.73,11.0,1.0,1.0,1.0
48.74,15.0,1.0,1.0,1.0
48.75,10.0,1.0,1.0,1.0
48.76,19.4944,1.0,1.0,1.0
48.77,23.0,1.0,1.0,1.0
48.78,16.5056,1.0,1.0,1.0
48.79,23.0,1.0,1.0,1.0
48.8,20.0,1.0,1.0,1.0
48.81,21.0,1.0,1.0,1.0
48.82,10.0,1.0,1.0,1.0
48.83,13.0,1.0,1.0,1.0
48.84,7.0,1.0,1.0,1.0
48.85,18.4944,1.0,1.0,1.0
48.86,17.4944,1.0,1.0,1.0
48.87,17.0,1.0,1.0,1.0
48.88,18.0,1.0,1.0,1.0
48.89,9.0111,1.0,1.0,1.0
48.9,12.0,1.0,1.0,1.0
48.91,15.0,1.0,1.0,1.0
48.92,13.0,1.0,1.0,1.0
48.93,5.0,1.0,1.0,1.0
48.94,20.0,1.0,1.0,1.0
48.95,9.0,1.0,1.0,1.0
48.96,14.0,1.0,1.0,1.0
48.97,11.0,1.0,1.0,1.0
48.98,5.0,1.0,1.0,1.0
48.99,13.0,1.0,1.0,1.0
49.0,5.0,1.0,1.0,1.0
49.01,10.0,1.0,1.0,1.0
49.02,8.0,1.0,1.0,1.0
49.03,7.0,1.0,1.0,1.0
49.04,6.0,1.0,1.0,1.0
49.05,6.0,1.0,1.0,1.0
49.06,2.0,1.0,1.0,1.0
49.07,5.4944,1.0,1.0,1.0
49.08,9.5056,1.0,1.0,1.0
49.09,0.0,1.0,1.0,1.0
49.1,13.0,1.0,1.0,1.0
49.11,2.0,1.0,1.0,1.0
49.12,14.0,1.0,1.0,1.0
49.13,12.0,1.0,1.0,1.0
49.14,15.0,1.0,1.0,1.0
49.15,4.0,1.0,1.0,1.0
49.16,10.0,1.0,1.0,1.0
49.17,10.0,1.0,1.0,1.0
49.18,6.0,1.0,1.0,1.0
49.19,10.0,1.0,1.0,1.0
49.2,9.0,1.0,1.0,1.0
49.21,4.0,1.0,1.0,1.0
49.22,10.0,1.0,1.0,1.0
49.23,17.4944,1.0,1.0,1.0
49.24,16.5056,1.0,1.0,1.0
49.25,12.0,1.0,1.0,1.0
49.26,3.0,1.0,1.0,1.0
49.27,6.0,1.0,1.0,1.0
49.28,5.0,1.0,1.0,1.0
49.29,10.0,1.0,1.0,1.0
49.3,11.0,1.0,1.0,1.0
49.31,14.0,1.0,1.0,1.0
49.32,7.0,1.0,1.0,1.0
49.33,9.0,1.0,1.0,1.0
49.34,10.4944,1.0,1.0,1.0
49.35,13.5056,1.0,1.0,1.0
49.36,6.0,1.0,1.0,1.0
49.37,10.0,1.0,1.0,1.0
49.38,13.9889,1.0,1.0,1.0
49.39,7.0111,1.0,1.0,1.0
49.4,9.0,1.0,1.0,1.0
49.41,15.4944,1.0,1.0,1.0
49.42,11.5056,1.0,1.0,1.0
49.43,6.0,1.0,1.0,1.0
49.44,11.4944,1.0,1.0,1.0
49.45,30.5056,1.0,1.0,1.0
49.46,18.4944,1.0,1.0,1.0
49.47,7.5056,1.0,1.0,1.0
49.48,20.0,1.0,1.0,1.0
49.49,13.0,1.0,1.0,1.0
49.5,11.0,1.0,1.0,1.0
49.51,17.0,1.0,1.0,1.0
49.52,7.0,1.0,1.0,1.0
49.53,10.0,1.0,1.0,1.0
49.54,5.0,1.0,1.0,1.0
49.55,11.4944,1.0,1.0,1.0
49.56,3.5056,1.0,1.0,1.0
49.57,5.0,1.0,1.0,1.0
49.58,6.0,1.0,1.0,1.0
49.59,17.0,1.0,1.0,1.0
49.6,6.0,1.0,1.0,1.0
49.61,14.0,1.0,1.0,1.0
49.62,11.0,1.0,1.0,1.0
49.63,10.0,1.0,1.0,1.0
49.64,3.0,1.0,1.0,1.0
49.65,11.0,1.0,1.0,1.0
49.66,7.0,1.0,1.0,1.0
49.67,25.0,1.0,1.0,1.0
49.68,8.0,1.0,1.0,1.0
49.69,5.0,1.0,1.0,1.0
49.7,14.0,1.0,1.0,1.0
49.71,3.0,1.0,1.0,1.0
49.72,6.0,1.0,1.0,1.0
49.73,3.4944,1.0,1.0,1.0
49.74,7.5056,1.0,1.0,1.0
49.75,7.0,1.0,1.0,1.0
49.76,10.4944,1.0,1.0,1.0
49.77,4.5056,1.0,1.0,1.0
49.78,9.0,1.0,1.0,1.0
49.79,2.0,1.0,1.0,1.0
49.8,11.4944,1.0,1.0,1.0
49.81,14.0,1.0,1.0,1.0
49.82,6.5056,1.0,1.0,1.0
49.83,4.0,1.0,1.0,1.0
49.84,9.0,1.0,1.0,1.0
49.85,6.0,1.0,1.0,1.0
49.86,5.0,1.0,1.0,1.0
49.87,0.0,1.0,1.0,1.0
49.88,4.0,1.0,1.0,1.0
49.89,2.0,1.0,1.0,1.0
49.9,8.0,1.0,1.0,1.0
49.91,11.0,1.0,1.0,1.0
49.92,6.0,1.0,1.0,1.0
49.93,9.4944,1.0,1.0,1.0
49.94,2.0,1.0,1.0,1.0
49.95,18.5056,1.0,1.0,1.0
49.96,9.0,1.0,1.0,1.0
49.97,0.0,1.0,1.0,1.0
49.98,0.0,1.0,1.0,1.0
49.99,3.0,1.0,1.0,1.0
50.0,5.0,1.0,1.0,1.0
50.01,0.0,1.0,1.0,1.0
50.02,11.0,1.0,1.0,1.0
50.03,3.0,1.0,1.0,1.0
50.04,6.0,1.0,1.0,1.0
50.05,7.0,1.0,1.0,1.0
50.06,14.0,1.0,1.0,1.0
50.07,7.0,1.0,1.0,1.0
50.08,4.0,1.0,1.0,1.0
50.09,7.0,1.0,1.0,1.0
50.1,5.0,1.0,1.0,1.0
50.11,14.0,1.0,1.0,1.0
50.12,3.0,1.0,1.0,1.0
50.13,0.0,1.0,1.0,1.0
50.14,10.0,1.0,1.0,1.0
50.15,2.0,1.0,1.0,1.0
50.16,9.0,1.0,1.0,1.0
50.17,5.4944,1.0,1.0,1.0
50.18,6.5056,1.0,1.0,1.0
50.19,15.4944,1.0,1.0,1.0
50.2,13.0,1.0,1.0,1.0
50.21,5.5056,1.0,1.0,1.0
50.22,11.0,1.0,1.0,1.0
50.23,6.0,1.0,1.0,1.0
50.24,19.0,1.0,1.0,1.0
50.25,18.0,1.0,1.0,1.0
50.26,4.0,1.0,1.0,1.0
50.27,7.0,1.0,1.0,1.0
50.28,13.0,1.0,1.0,1.0
50.29,13.9889,1.0,1.0,1.0
50.3,14.0111,1.0,1.0,1.0
50.31,6.4944,1.0,1.0,1.0
50.32,5.5056,1.0,1.0,1.0
50.33,8.0,1.0,1.0,1.0
50.34,14.4944,1.0,1.0,1.0
50.35,11.5056,1.0,1.0,1.0
50.36,15.0,1.0,1.0,1.0
50.37,21.0,1.0,1.0,1.0
50.38,3.0,1.0,1.0,1.0
50.39,2.0,1.0,1.0,1.0
50.4,8.4944,1.0,1.0,1.0
50.41,9.5056,1.0,1.0,1.0
50.42,9.4944,1.0,1.0,1.0
50.43,4.5056,1.0,1.0,1.0
50.44,9.0,1.0,1.0,1.0
50.45,7.0,1.0,1.0,1.0
50.46,2.0,1.0,1.0,1.0
50.47,12.0,1.0,1.0,1.0
50.48,6.0,1.0,1.0,1.0
50.49,14.0,1.0,1.0,1.0
50.5,11.0,1.0,1.0,1.0
50.51,8.0,1.0,1.0,1.0
50.52,6.0,1.0,1.0,1.0
50.53,10.0,1.0,1.0,1.0
50.54,2.0,1.0,1.0,1.0
50.55,10.0,1.0,1.0,1.0
50.56,5.0,1.0,1.0,1.0
50.57,4.0,1.0,1.0,1.0
50.58,11.0,1.0,1.0,1.0
50.59,6.0,1.0,1.0,1.0
50.6,15.0,1.0,1.0,1.0
50.61,12.0,1.0,1.0,1.0
50.62,4.0,1.0,1.0,1.0
50.63,7.0,1.0,1.0,1.0
50.64,8.0,1.0,1.0,1.0
50.65,6.0,1.0,1.0,1.0
50.66,5.4944,1.0,1.0,1.0
50.67,6.5056,1.0,1.0,1.0
50.68,5.0,1.0,1.0,1.0
50.69,13.0,1.0,1.0,1.0
50.7,8.0,1.0,1.0,1.0
50.71,3.0,1.0,1.0,1.0
50.72,6.0,1.0,1.0,1.0
50.73,11.0,1.0,1.0,1.0
50.74,2.0,1.0,1.0,1.0
50.75,2.0,1.0,1.0,1.0
50.76,8.0,1.0,1.0,1.0
50.77,8.0,1.0,1.0,1.0
50.78,5.0,1.0,1.0,1.0
50.79,2.0,1.0,1.0,1.0
50.8,12.0,1.0,1.0,1.0
50.81,7.0,1.0,1.0,1.0
50.82,20.0,1.0,1.0,1.0
50.83,16.0,1.0,1.0,1.0
50.84,13.0,1.0,1.0,1.0
50.85,8.0,1.0,1.0,1.0
50.86,4.0,1.0,1.0,1.0
50.87,15.0,1.0,1.0,1.0
50.88,14.4944,1.0,1.0,1.0
50.89,6.5056,1.0,1.0,1.0
50.9,10.0,1.0,1.0,1.0
50.91,8.0,1.0,1.0,1.0
50.92,4.0,1.0,1.0,1.0
50.93,4.0,1.0,1.0,1.0
50.94,0.0,1.0,1.0,1.0
50.95,4.4944,1.0,1.0,1.0
50.96,13.5056,1.0,1.0,1.0
50.97,13.0,1.0,1.0,1.0
50.98,8.0,1.0,1.0,1.0
50.99,7.0,1.0,1.0,1.0
51.0,4.0,1.0,1.0,1.0
51.01,7.0,1.0,1.0,1.0
51.02,10.0,1.0,1.0,1.0
51.03,18.0,1.0,1.0,1.0
51.04,9.0,1.0,1.0,1.0
51.05,0.0,1.0,1.0,1.0
51.06,13.0,1.0,1.0,1.0
51.07,5.0,1.0,1.0,1.0
51.08,17.0,1.0,1.0,1.0
51.09,4.0,1.0,1.0,1.0
51.1,15.0,1.0,1.0,1.0
51.11,11.0,1.0,1.0,1.0
51.12,5.0,1.0,1.0,1.0
51.13,6.0,1.0,1.0,1.0
51.14,6.0,1.0,1.0,1.0
51.15,5.0,1.0,1.0,1.0
51.16,0.0,1.0,1.0,1.0
51.17,6.0,1.0,1.0,1.0
51.18,16.0,1.0,1.0,1.0
51.19,3.0,1.0,1.0,1.0
51.2,8.0,1.0,1.0,1.0
51.21,6.0,1.0,1.0,1.0
51.22,11.0,1.0,1.0,1.0
51.23,9.4944,1.0,1.0,1.0
51.24,12.5056,1.0,1.0,1.0
51.25,7.0,1.0,1.0,1.0
51.26,11.0,1.0,1.0,1.0
51.27,10.0,1.0,1.0,1.0
51.28,4.0,1.0,1.0,1.0
51.29,9.0,1.0,1.0,1.0
51.3,7.0,1.0,1.0,1.0
51.31,9.0,1.0,1.0,1.0
51.32,4.0,1.0,1.0,1.0
51.33,6.0,1.0,1.0,1.0
51.34,2.0,1.0,1.0,1.0
51.35,9.0,1.0,1.0,1.0
51.36,4.0,1.0,1.0,1.0
51.37,3.0,1.0,1.0,1.0
51.38,6.0,1.0,1.0,1.0
51.39,2.0,1.0,1.0,1.0
51.4,0.0,1.0,1.0,1.0
51.41,5.0,1.0,1.0,1.0
51.42,10.0,1.0,1.0,1.0
51.43,5.0,1.0,1.0,1.0
51.44,2.0,1.0,1.0,1.0
51.45,5.0,1.0,1.0,1.0
51.46,6.0,1.0,1.0,1.0
51.47,10.0,1.0,1.0,1.0
51.48,11.0,1.0,1.0,1.0
51.49,11.0,1.0,1.0,1.0
51.5,3.0,1.0,1.0,1.0
51.51,4.0,1.0,1.0,1.0
51.52,12.0,1.0,1.0,1.0
51.53,10.0,1.0,1.0,1.0
51.54,8.0,1.0,1.0,1.0
51.55,11.0,1.0,1.0,1.0
51.56,5.0,1.0,1.0,1.0
51.57,0.0,1.0,1.0,1.0
51.58,11.0,1.0,1.0,1.0
51.59,9.4944,1.0,1.0,1.0
51.6,4.5056,1.0,1.0,1.0
51.61,13.0,1.0,1.0,1.0
51.62,3.0,1.0,1.0,1.0
51.63,3.0,1.0,1.0,1.0
51.64,5.4944,1.0,1.0,1.0
51.65,4.0,1.0,1.0,1.0
51.66,5.5056,1.0,1.0,1.0
51.67,7.0,1.0,1.0,1.0
51.68,7.0,1.0,1.0,1.0
51.69,10.4944,1.0,1.0,1.0
51.7,5.5056,1.0,1.0,1.0
51.71,3.9889,1.0,1.0,1.0
51.72,5.0111,1.0,1.0,1.0
51.73,16.0,1.0,1.0,1.0
51.74,0.0,1.0,1.0,1.0
51.75,4.0,1.0,1.0,1.0
51.76,8.0,1.0,1.0,1.0
51.77,0.0,1.0,1.0,1.0
51.78,11.0,1.0,1.0,1.0
51.79,6.4944,1.0,1.0,1.0
51.8,11.0,1.0,1.0,1.0
51.81,16.5056,1.0,1.0,1.0
51.82,7.0,1.0,1.0,1.0
51.83,6.0,1.0,1.0,1.0
51.84,11.0,1.0,1.0,1.0
51.85,5.0,1.0,1.0,1.0
51.86,10.0,1.0,1.0,1.0
51.87,0.0,1.0,1.0,1.0
51.88,8.0,1.0,1.0,1.0
51.89,10.0,1.0,1.0,1.0
51.9,10.0,1.0,1.0,1.0
51.91,5.0,1.0,1.0,1.0
51.92,10.0,1.0,1.0,1.0
51.93,5.0,1.0,1.0,1.0
51.94,4.0,1.0,1.0,1.0
51.95,19.0,1.0,1.0,1.0
51.96,7.0,1.0,1.0,1.0
51.97,14.0,1.0,1.0,1.0
51.98,4.0,1.0,1.0,1.0
51.99,3.0,1.0,1.0,1.0
52.0,4.0,1.0,1.0,1.0