File: XRD:XRR/SCO/23002_SL(CO)L/23002_SL(CO)L_001_XRD.csv
#twotheta, yobs, ycal, bkg, diff
18.0,23.0,1.0,1.0,1.0
18.01,55.0,1.0,1.0,1.0
18.02,29.504,1.0,1.0,1.0
18.03,52.0,1.0,1.0,1.0
18.04,58.496,1.0,1.0,1.0
18.05,35.0,1.0,1.0,1.0
18.06,34.0,1.0,1.0,1.0
18.07,32.496,1.0,1.0,1.0
18.08,34.008,1.0,1.0,1.0
18.09,28.0,1.0,1.0,1.0
18.1,30.496,1.0,1.0,1.0
18.11,45.0,1.0,1.0,1.0
18.12,31.0,1.0,1.0,1.0
18.13,42.496,1.0,1.0,1.0
18.14,39.5199,1.0,1.0,1.0
18.15,38.4801,1.0,1.0,1.0
18.16,42.0,1.0,1.0,1.0
18.17,29.504,1.0,1.0,1.0
18.18,42.496,1.0,1.0,1.0
18.19,34.0,1.0,1.0,1.0
18.2,36.008,1.0,1.0,1.0
18.21,38.992,1.0,1.0,1.0
18.22,25.008,1.0,1.0,1.0
18.23,29.496,1.0,1.0,1.0
18.24,40.496,1.0,1.0,1.0
18.25,38.504,1.0,1.0,1.0
18.26,35.496,1.0,1.0,1.0
18.27,29.0,1.0,1.0,1.0
18.28,25.0,1.0,1.0,1.0
18.29,40.0,1.0,1.0,1.0
18.3,27.0,1.0,1.0,1.0
18.31,46.0,1.0,1.0,1.0
18.32,42.504,1.0,1.0,1.0
18.33,34.008,1.0,1.0,1.0
18.34,31.4881,1.0,1.0,1.0
18.35,39.0,1.0,1.0,1.0
18.36,36.0,1.0,1.0,1.0
18.37,36.0,1.0,1.0,1.0
18.38,31.0,1.0,1.0,1.0
18.39,48.504,1.0,1.0,1.0
18.4,38.0,1.0,1.0,1.0
18.41,48.0,1.0,1.0,1.0
18.42,26.504,1.0,1.0,1.0
18.43,41.496,1.0,1.0,1.0
18.44,38.496,1.0,1.0,1.0
18.45,51.0,1.0,1.0,1.0
18.46,41.0,1.0,1.0,1.0
18.47,24.008,1.0,1.0,1.0
18.48,31.496,1.0,1.0,1.0
18.49,40.496,1.0,1.0,1.0
18.5,41.504,1.0,1.0,1.0
18.51,42.0,1.0,1.0,1.0
18.52,46.0,1.0,1.0,1.0
18.53,39.008,1.0,1.0,1.0
18.54,46.496,1.0,1.0,1.0
18.55,36.0,1.0,1.0,1.0
18.56,51.0,1.0,1.0,1.0
18.57,39.0,1.0,1.0,1.0
18.58,32.0,1.0,1.0,1.0
18.59,31.496,1.0,1.0,1.0
18.6,30.0,1.0,1.0,1.0
18.61,36.0,1.0,1.0,1.0
18.62,30.496,1.0,1.0,1.0
18.63,32.0,1.0,1.0,1.0
18.64,39.504,1.0,1.0,1.0
18.65,28.504,1.0,1.0,1.0
18.66,34.496,1.0,1.0,1.0
18.67,37.0,1.0,1.0,1.0
18.68,105.0,1.0,1.0,1.0
18.69,23.0,1.0,1.0,1.0
18.7,40.504,1.0,1.0,1.0
18.71,30.992,1.0,1.0,1.0
18.72,22.0,1.0,1.0,1.0
18.73,23.0,1.0,1.0,1.0
18.74,25.0,1.0,1.0,1.0
18.75,28.0,1.0,1.0,1.0
18.76,39.008,1.0,1.0,1.0
18.77,34.992,1.0,1.0,1.0
18.78,25.0,1.0,1.0,1.0
18.79,33.0,1.0,1.0,1.0
18.8,32.504,1.0,1.0,1.0
18.81,37.0,1.0,1.0,1.0
18.82,37.496,1.0,1.0,1.0
18.83,28.0,1.0,1.0,1.0
18.84,25.504,1.0,1.0,1.0
18.85,45.504,1.0,1.0,1.0
18.86,46.496,1.0,1.0,1.0
18.87,17.504,1.0,1.0,1.0
18.88,25.992,1.0,1.0,1.0
18.89,32.504,1.0,1.0,1.0
18.9,36.496,1.0,1.0,1.0
18.91,31.504,1.0,1.0,1.0
18.92,31.0,1.0,1.0,1.0
18.93,22.504,1.0,1.0,1.0
18.94,35.496,1.0,1.0,1.0
18.95,29.496,1.0,1.0,1.0
18.96,26.0,1.0,1.0,1.0
18.97,32.0,1.0,1.0,1.0
18.98,32.0,1.0,1.0,1.0
18.99,29.0,1.0,1.0,1.0
19.0,25.008,1.0,1.0,1.0
19.01,38.0,1.0,1.0,1.0
19.02,23.496,1.0,1.0,1.0
19.03,39.0,1.0,1.0,1.0
19.04,29.496,1.0,1.0,1.0
19.05,31.504,1.0,1.0,1.0
19.06,31.0,1.0,1.0,1.0
19.07,31.0,1.0,1.0,1.0
19.08,31.496,1.0,1.0,1.0
19.09,29.504,1.0,1.0,1.0
19.1,44.496,1.0,1.0,1.0
19.11,19.504,1.0,1.0,1.0
19.12,28.496,1.0,1.0,1.0
19.13,19.0,1.0,1.0,1.0
19.14,23.0,1.0,1.0,1.0
19.15,27.0,1.0,1.0,1.0
19.16,23.0,1.0,1.0,1.0
19.17,33.5119,1.0,1.0,1.0
19.18,24.992,1.0,1.0,1.0
19.19,26.496,1.0,1.0,1.0
19.2,35.0,1.0,1.0,1.0
19.21,32.504,1.0,1.0,1.0
19.22,32.496,1.0,1.0,1.0
19.23,39.0,1.0,1.0,1.0
19.24,33.0,1.0,1.0,1.0
19.25,30.0,1.0,1.0,1.0
19.26,35.0,1.0,1.0,1.0
19.27,37.504,1.0,1.0,1.0
19.28,40.0,1.0,1.0,1.0
19.29,33.496,1.0,1.0,1.0
19.3,54.0,1.0,1.0,1.0
19.31,23.504,1.0,1.0,1.0
19.32,36.496,1.0,1.0,1.0
19.33,25.504,1.0,1.0,1.0
19.34,56.504,1.0,1.0,1.0
19.35,45.496,1.0,1.0,1.0
19.36,42.0,1.0,1.0,1.0
19.37,55.0,1.0,1.0,1.0
19.38,44.0,1.0,1.0,1.0
19.39,25.496,1.0,1.0,1.0
19.4,52.504,1.0,1.0,1.0
19.41,36.496,1.0,1.0,1.0
19.42,47.008,1.0,1.0,1.0
19.43,33.504,1.0,1.0,1.0
19.44,38.992,1.0,1.0,1.0
19.45,54.496,1.0,1.0,1.0
19.46,42.504,1.0,1.0,1.0
19.47,68.496,1.0,1.0,1.0
19.48,56.008,1.0,1.0,1.0
19.49,50.504,1.0,1.0,1.0
19.5,81.496,1.0,1.0,1.0
19.51,57.496,1.0,1.0,1.0
19.52,59.0,1.0,1.0,1.0
19.53,81.0,1.0,1.0,1.0
19.54,92.0,1.0,1.0,1.0
19.55,71.496,1.0,1.0,1.0
19.56,93.008,1.0,1.0,1.0
19.57,88.992,1.0,1.0,1.0
19.58,97.008,1.0,1.0,1.0
19.59,71.496,1.0,1.0,1.0
19.6,78.0,1.0,1.0,1.0
19.61,86.0,1.0,1.0,1.0
19.62,81.496,1.0,1.0,1.0
19.63,99.5199,1.0,1.0,1.0
19.64,105.992,1.0,1.0,1.0
19.65,82.992,1.0,1.0,1.0
19.66,89.0159,1.0,1.0,1.0
19.67,77.4801,1.0,1.0,1.0
19.68,88.0,1.0,1.0,1.0
19.69,113.5119,1.0,1.0,1.0
19.7,83.0,1.0,1.0,1.0
19.71,66.4881,1.0,1.0,1.0
19.72,78.0,1.0,1.0,1.0
19.73,82.008,1.0,1.0,1.0
19.74,64.992,1.0,1.0,1.0
19.75,59.0,1.0,1.0,1.0
19.76,53.0159,1.0,1.0,1.0
19.77,56.9841,1.0,1.0,1.0
19.78,50.0,1.0,1.0,1.0
19.79,39.0,1.0,1.0,1.0
19.8,42.0,1.0,1.0,1.0
19.81,46.0,1.0,1.0,1.0
19.82,35.0,1.0,1.0,1.0
19.83,37.0,1.0,1.0,1.0
19.84,51.008,1.0,1.0,1.0
19.85,43.496,1.0,1.0,1.0
19.86,32.0,1.0,1.0,1.0
19.87,47.496,1.0,1.0,1.0
19.88,47.504,1.0,1.0,1.0
19.89,49.496,1.0,1.0,1.0
19.9,27.0,1.0,1.0,1.0
19.91,59.0,1.0,1.0,1.0
19.92,21.0,1.0,1.0,1.0
19.93,50.504,1.0,1.0,1.0
19.94,52.496,1.0,1.0,1.0
19.95,61.008,1.0,1.0,1.0
19.96,46.992,1.0,1.0,1.0
19.97,55.008,1.0,1.0,1.0
19.98,69.504,1.0,1.0,1.0
19.99,62.496,1.0,1.0,1.0
20.0,54.992,1.0,1.0,1.0
20.01,46.0,1.0,1.0,1.0
20.02,55.008,1.0,1.0,1.0
20.03,45.496,1.0,1.0,1.0
20.04,60.496,1.0,1.0,1.0
20.05,39.0,1.0,1.0,1.0
20.06,59.0,1.0,1.0,1.0
20.07,33.0,1.0,1.0,1.0
20.08,74.0159,1.0,1.0,1.0
20.09,55.4881,1.0,1.0,1.0
20.1,51.496,1.0,1.0,1.0
20.11,30.504,1.0,1.0,1.0
20.12,29.496,1.0,1.0,1.0
20.13,58.0,1.0,1.0,1.0
20.14,58.008,1.0,1.0,1.0
20.15,41.496,1.0,1.0,1.0
20.16,37.504,1.0,1.0,1.0
20.17,49.992,1.0,1.0,1.0
20.18,68.0,1.0,1.0,1.0
20.19,61.008,1.0,1.0,1.0
20.2,63.008,1.0,1.0,1.0
20.21,65.992,1.0,1.0,1.0
20.22,74.0,1.0,1.0,1.0
20.23,63.008,1.0,1.0,1.0
20.24,45.9841,1.0,1.0,1.0
20.25,63.0,1.0,1.0,1.0
20.26,59.008,1.0,1.0,1.0
20.27,73.496,1.0,1.0,1.0
20.28,65.496,1.0,1.0,1.0
20.29,61.504,1.0,1.0,1.0
20.3,64.0,1.0,1.0,1.0
20.31,63.496,1.0,1.0,1.0
20.32,71.0,1.0,1.0,1.0
20.33,58.504,1.0,1.0,1.0
20.34,70.496,1.0,1.0,1.0
20.35,57.008,1.0,1.0,1.0
20.36,79.504,1.0,1.0,1.0
20.37,89.992,1.0,1.0,1.0
20.38,54.008,1.0,1.0,1.0
20.39,63.4881,1.0,1.0,1.0
20.4,77.0,1.0,1.0,1.0
20.41,106.008,1.0,1.0,1.0
20.42,99.496,1.0,1.0,1.0
20.43,83.504,1.0,1.0,1.0
20.44,105.0,1.0,1.0,1.0
20.45,80.992,1.0,1.0,1.0
20.46,77.008,1.0,1.0,1.0
20.47,93.496,1.0,1.0,1.0
20.48,93.504,1.0,1.0,1.0
20.49,82.496,1.0,1.0,1.0
20.5,84.496,1.0,1.0,1.0
20.51,106.008,1.0,1.0,1.0
20.52,88.496,1.0,1.0,1.0
20.53,104.008,1.0,1.0,1.0
20.54,108.0,1.0,1.0,1.0
20.55,82.0,1.0,1.0,1.0
20.56,107.008,1.0,1.0,1.0
20.57,117.496,1.0,1.0,1.0
20.58,107.0,1.0,1.0,1.0
20.59,92.496,1.0,1.0,1.0
20.6,112.496,1.0,1.0,1.0
20.61,96.496,1.0,1.0,1.0
20.62,134.008,1.0,1.0,1.0
20.63,96.008,1.0,1.0,1.0
20.64,98.4881,1.0,1.0,1.0
20.65,95.008,1.0,1.0,1.0
20.66,116.4881,1.0,1.0,1.0
20.67,122.5199,1.0,1.0,1.0
20.68,123.4801,1.0,1.0,1.0
20.69,136.504,1.0,1.0,1.0
20.7,125.504,1.0,1.0,1.0
20.71,123.0,1.0,1.0,1.0
20.72,145.992,1.0,1.0,1.0
20.73,98.504,1.0,1.0,1.0
20.74,120.992,1.0,1.0,1.0
20.75,99.504,1.0,1.0,1.0
20.76,89.0,1.0,1.0,1.0
20.77,101.0,1.0,1.0,1.0
20.78,105.008,1.0,1.0,1.0
20.79,101.4881,1.0,1.0,1.0
20.8,69.504,1.0,1.0,1.0
20.81,95.504,1.0,1.0,1.0
20.82,89.504,1.0,1.0,1.0
20.83,62.992,1.0,1.0,1.0
20.84,69.496,1.0,1.0,1.0
20.85,72.504,1.0,1.0,1.0
20.86,51.496,1.0,1.0,1.0
20.87,51.504,1.0,1.0,1.0
20.88,48.504,1.0,1.0,1.0
20.89,43.496,1.0,1.0,1.0
20.9,58.504,1.0,1.0,1.0
20.91,67.496,1.0,1.0,1.0
20.92,38.0,1.0,1.0,1.0
20.93,39.496,1.0,1.0,1.0
20.94,35.0,1.0,1.0,1.0
20.95,68.504,1.0,1.0,1.0
20.96,50.496,1.0,1.0,1.0
20.97,50.504,1.0,1.0,1.0
20.98,35.008,1.0,1.0,1.0
20.99,52.4881,1.0,1.0,1.0
21.0,61.008,1.0,1.0,1.0
21.01,46.496,1.0,1.0,1.0
21.02,64.008,1.0,1.0,1.0
21.03,35.4881,1.0,1.0,1.0
21.04,42.008,1.0,1.0,1.0
21.05,55.496,1.0,1.0,1.0
21.06,57.496,1.0,1.0,1.0
21.07,56.0,1.0,1.0,1.0
21.08,37.504,1.0,1.0,1.0
21.09,47.0,1.0,1.0,1.0
21.1,51.504,1.0,1.0,1.0
21.11,40.496,1.0,1.0,1.0
21.12,43.0,1.0,1.0,1.0
21.13,69.5119,1.0,1.0,1.0
21.14,31.4881,1.0,1.0,1.0
21.15,53.0,1.0,1.0,1.0
21.16,40.0,1.0,1.0,1.0
21.17,55.504,1.0,1.0,1.0
21.18,51.496,1.0,1.0,1.0
21.19,42.496,1.0,1.0,1.0
21.2,64.008,1.0,1.0,1.0
21.21,72.504,1.0,1.0,1.0
21.22,79.0,1.0,1.0,1.0
21.23,62.992,1.0,1.0,1.0
21.24,94.496,1.0,1.0,1.0
21.25,77.504,1.0,1.0,1.0
21.26,94.496,1.0,1.0,1.0
21.27,120.504,1.0,1.0,1.0
21.28,87.008,1.0,1.0,1.0
21.29,123.992,1.0,1.0,1.0
21.3,117.504,1.0,1.0,1.0
21.31,123.008,1.0,1.0,1.0
21.32,121.504,1.0,1.0,1.0
21.33,129.4881,1.0,1.0,1.0
21.34,154.496,1.0,1.0,1.0
21.35,134.504,1.0,1.0,1.0
21.36,112.992,1.0,1.0,1.0
21.37,162.0159,1.0,1.0,1.0
21.38,146.496,1.0,1.0,1.0
21.39,144.0,1.0,1.0,1.0
21.4,158.504,1.0,1.0,1.0
21.41,176.992,1.0,1.0,1.0
21.42,194.504,1.0,1.0,1.0
21.43,178.992,1.0,1.0,1.0
21.44,220.5199,1.0,1.0,1.0
21.45,238.0,1.0,1.0,1.0
21.46,251.992,1.0,1.0,1.0
21.47,269.0,1.0,1.0,1.0
21.48,312.496,1.0,1.0,1.0
21.49,363.008,1.0,1.0,1.0
21.5,374.504,1.0,1.0,1.0
21.51,384.504,1.0,1.0,1.0
21.52,446.5119,1.0,1.0,1.0
21.53,437.992,1.0,1.0,1.0
21.54,480.0,1.0,1.0,1.0
21.55,523.496,1.0,1.0,1.0
21.56,490.008,1.0,1.0,1.0
21.57,497.992,1.0,1.0,1.0
21.58,576.0319,1.0,1.0,1.0
21.59,579.4721,1.0,1.0,1.0
21.6,540.0079,1.0,1.0,1.0
21.61,610.0079,1.0,1.0,1.0
21.62,632.0,1.0,1.0,1.0
21.63,618.0,1.0,1.0,1.0
21.64,663.0,1.0,1.0,1.0
21.65,707.0079,1.0,1.0,1.0
21.66,721.9841,1.0,1.0,1.0
21.67,707.0079,1.0,1.0,1.0
21.68,840.504,1.0,1.0,1.0
21.69,807.0,1.0,1.0,1.0
21.7,842.512,1.0,1.0,1.0
21.71,942.0239,1.0,1.0,1.0
21.72,1090.496,1.0,1.0,1.0
21.73,1076.512,1.0,1.0,1.0
21.74,1128.03,1.0,1.0,1.0
21.75,1273.0,1.0,1.0,1.0
21.76,1317.48,1.0,1.0,1.0
21.77,1462.0,1.0,1.0,1.0
21.78,1490.02,1.0,1.0,1.0
21.79,1477.54,1.0,1.0,1.0
21.8,1641.43,1.0,1.0,1.0
21.81,1644.04,1.0,1.0,1.0
21.82,1673.0,1.0,1.0,1.0
21.83,1695.98,1.0,1.0,1.0
21.84,1735.02,1.0,1.0,1.0
21.85,1748.48,1.0,1.0,1.0
21.86,1754.03,1.0,1.0,1.0
21.87,1710.97,1.0,1.0,1.0
21.88,1683.52,1.0,1.0,1.0
21.89,1580.512,1.0,1.0,1.0
21.9,1591.512,1.0,1.0,1.0
21.91,1464.98,1.0,1.0,1.0
21.92,1310.46,1.0,1.0,1.0
21.93,1253.02,1.0,1.0,1.0
21.94,1125.96,1.0,1.0,1.0
21.95,1018.496,1.0,1.0,1.0
21.96,908.0,1.0,1.0,1.0
21.97,839.9921,1.0,1.0,1.0
21.98,667.0079,1.0,1.0,1.0
21.99,661.0319,1.0,1.0,1.0
22.0,554.9602,1.0,1.0,1.0
22.01,455.9681,1.0,1.0,1.0
22.02,391.992,1.0,1.0,1.0
22.03,316.0,1.0,1.0,1.0
22.04,302.5119,1.0,1.0,1.0
22.05,288.4801,1.0,1.0,1.0
22.06,254.0,1.0,1.0,1.0
22.07,236.5199,1.0,1.0,1.0
22.08,250.992,1.0,1.0,1.0
22.09,232.496,1.0,1.0,1.0
22.1,257.992,1.0,1.0,1.0
22.11,235.992,1.0,1.0,1.0
22.12,266.0319,1.0,1.0,1.0
22.13,290.008,1.0,1.0,1.0
22.14,259.9841,1.0,1.0,1.0
22.15,324.496,1.0,1.0,1.0
22.16,314.0,1.0,1.0,1.0
22.17,301.504,1.0,1.0,1.0
22.18,278.504,1.0,1.0,1.0
22.19,285.4881,1.0,1.0,1.0
22.2,244.496,1.0,1.0,1.0
22.21,219.504,1.0,1.0,1.0
22.22,250.0,1.0,1.0,1.0
22.23,205.496,1.0,1.0,1.0
22.24,174.992,1.0,1.0,1.0
22.25,173.496,1.0,1.0,1.0
22.26,175.504,1.0,1.0,1.0
22.27,154.504,1.0,1.0,1.0
22.28,135.008,1.0,1.0,1.0
22.29,127.9841,1.0,1.0,1.0
22.3,96.0,1.0,1.0,1.0
22.31,103.0,1.0,1.0,1.0
22.32,146.5199,1.0,1.0,1.0
22.33,127.9761,1.0,1.0,1.0
22.34,133.0,1.0,1.0,1.0
22.35,166.5119,1.0,1.0,1.0
22.36,201.008,1.0,1.0,1.0
22.37,173.008,1.0,1.0,1.0
22.38,248.504,1.0,1.0,1.0
22.39,251.4881,1.0,1.0,1.0
22.4,262.992,1.0,1.0,1.0
22.41,291.504,1.0,1.0,1.0
22.42,292.0,1.0,1.0,1.0
22.43,339.504,1.0,1.0,1.0
22.44,371.0239,1.0,1.0,1.0
22.45,386.4801,1.0,1.0,1.0
22.46,370.496,1.0,1.0,1.0
22.47,395.0,1.0,1.0,1.0
22.48,395.5199,1.0,1.0,1.0
22.49,437.504,1.0,1.0,1.0
22.5,445.5119,1.0,1.0,1.0
22.51,441.496,1.0,1.0,1.0
22.52,481.496,1.0,1.0,1.0
22.53,512.9841,1.0,1.0,1.0
22.54,592.0159,1.0,1.0,1.0
22.55,603.496,1.0,1.0,1.0
22.56,704.504,1.0,1.0,1.0
22.57,735.0478,1.0,1.0,1.0
22.58,812.9761,1.0,1.0,1.0
22.59,996.504,1.0,1.0,1.0
22.6,1004.0,1.0,1.0,1.0
22.61,1141.52,1.0,1.0,1.0
22.62,1209.01,1.0,1.0,1.0
22.63,1351.02,1.0,1.0,1.0
22.64,1489.47,1.0,1.0,1.0
22.65,1578.02,1.0,1.0,1.0
22.66,1710.06,1.0,1.0,1.0
22.67,1903.45,1.0,1.0,1.0
22.68,2016.05,1.0,1.0,1.0
22.69,2071.03,1.0,1.0,1.0
22.7,2248.48,1.0,1.0,1.0
22.71,2291.0,1.0,1.0,1.0
22.72,2418.04,1.0,1.0,1.0
22.73,2571.99,1.0,1.0,1.0
22.74,2723.57,1.0,1.0,1.0
22.75,2929.94,1.0,1.0,1.0
22.76,3041.53,1.0,1.0,1.0
22.77,3170.99,1.0,1.0,1.0
22.78,3340.55,1.0,1.0,1.0
22.79,3556.488,1.0,1.0,1.0
22.8,3815.04,1.0,1.0,1.0
22.81,4134.5,1.0,1.0,1.0
22.82,4276.03,1.0,1.0,1.0
22.83,4648.04,1.0,1.0,1.0
22.84,5010.01,1.0,1.0,1.0
22.85,5422.07,1.0,1.0,1.0
22.86,5801.03,1.0,1.0,1.0
22.87,6207.46,1.0,1.0,1.0
22.88,6528.66,1.0,1.0,1.0
22.89,7057.97,1.0,1.0,1.0
22.9,7436.61,1.0,1.0,1.0
22.91,7813.48,1.0,1.0,1.0
22.92,8042.52,1.0,1.0,1.0
22.93,8385.47,1.0,1.0,1.0
22.94,8689.58,1.0,1.0,1.0
22.95,8773.0,1.0,1.0,1.0
22.96,8930.89,1.0,1.0,1.0
22.97,9191.57,1.0,1.0,1.0
22.98,9170.08,1.0,1.0,1.0
22.99,9005.95,1.0,1.0,1.0
23.0,8776.92,1.0,1.0,1.0
23.01,8534.51,1.0,1.0,1.0
23.02,8458.01,1.0,1.0,1.0
23.03,7983.45,1.0,1.0,1.0
23.04,7230.93,1.0,1.0,1.0
23.05,7030.5,1.0,1.0,1.0
23.06,6453.43,1.0,1.0,1.0
23.07,5977.5,1.0,1.0,1.0
23.08,5323.93,1.0,1.0,1.0
23.09,4840.46,1.0,1.0,1.0
23.1,4437.44,1.0,1.0,1.0
23.11,4131.03,1.0,1.0,1.0
23.12,3523.01,1.0,1.0,1.0
23.13,3360.89,1.0,1.0,1.0
23.14,3148.54,1.0,1.0,1.0
23.15,3103.97,1.0,1.0,1.0
23.16,3085.02,1.0,1.0,1.0
23.17,3277.97,1.0,1.0,1.0
23.18,3315.08,1.0,1.0,1.0
23.19,3749.98,1.0,1.0,1.0
23.2,4176.01,1.0,1.0,1.0
23.21,4625.07,1.0,1.0,1.0
23.22,5134.09,1.0,1.0,1.0
23.23,5701.06,1.0,1.0,1.0
23.24,6604.04,1.0,1.0,1.0
23.25,7301.55,1.0,1.0,1.0
23.26,8172.57,1.0,1.0,1.0
23.27,8909.11,1.0,1.0,1.0
23.28,9929.49,1.0,1.0,1.0
23.29,10821.584,1.0,1.0,1.0
23.3,11602.6,1.0,1.0,1.0
23.31,13014,1.0,1.0,1.0
23.32,14633.6,1.0,1.0,1.0
23.33,16017.8,1.0,1.0,1.0
23.34,18214.127,1.0,1.0,1.0
23.35,21256.9,1.0,1.0,1.0
23.36,25267.8,1.0,1.0,1.0
23.37,30364.6,1.0,1.0,1.0
23.38,38283.2,1.0,1.0,1.0
23.39,51346,1.0,1.0,1.0
23.4,78700.3,1.0,1.0,1.0
23.41,197164,1.0,1.0,1.0
23.42,680708,1.0,1.0,1.0
23.43,1516170.625,1.0,1.0,1.0
23.44,2483149.75,1.0,1.0,1.0
23.45,4038093.75,1.0,1.0,1.0
23.46,6184203.0,1.0,1.0,1.0
23.47,8516338.0,1.0,1.0,1.0
23.48,11045147.0,1.0,1.0,1.0
23.49,9245890.0,1.0,1.0,1.0
23.5,4803685.0,1.0,1.0,1.0
23.51,3518324.0,1.0,1.0,1.0
23.52,2266129.5,1.0,1.0,1.0
23.53,849282.5,1.0,1.0,1.0
23.54,223382,1.0,1.0,1.0
23.55,101448,1.0,1.0,1.0
23.56,61107.3,1.0,1.0,1.0
23.57,40210.6,1.0,1.0,1.0
23.58,27973.9,1.0,1.0,1.0
23.59,20857.1,1.0,1.0,1.0
23.6,16153.7,1.0,1.0,1.0
23.61,12878.9,1.0,1.0,1.0
23.62,10743.6,1.0,1.0,1.0
23.63,9042.92,1.0,1.0,1.0
23.64,7742.3,1.0,1.0,1.0
23.65,6717.51,1.0,1.0,1.0
23.66,5764.46,1.0,1.0,1.0
23.67,4996.98,1.0,1.0,1.0
23.68,4374.41,1.0,1.0,1.0
23.69,3905.92,1.0,1.0,1.0
23.7,3434.95,1.0,1.0,1.0
23.71,2962.98,1.0,1.0,1.0
23.72,2629.46,1.0,1.0,1.0
23.73,2352.04,1.0,1.0,1.0
23.74,2047.98,1.0,1.0,1.0
23.75,1742.48,1.0,1.0,1.0
23.76,1578.97,1.0,1.0,1.0
23.77,1398.98,1.0,1.0,1.0
23.78,1252.46,1.0,1.0,1.0
23.79,1119.02,1.0,1.0,1.0
23.8,1037.98,1.0,1.0,1.0
23.81,953.5279,1.0,1.0,1.0
23.82,830.4721,1.0,1.0,1.0
23.83,795.504,1.0,1.0,1.0
23.84,720.488,1.0,1.0,1.0
23.85,702.4801,1.0,1.0,1.0
23.86,667.0079,1.0,1.0,1.0
23.87,595.0159,1.0,1.0,1.0
23.88,551.0079,1.0,1.0,1.0
23.89,489.4721,1.0,1.0,1.0
23.9,445.504,1.0,1.0,1.0
23.91,453.9761,1.0,1.0,1.0
23.92,379.0159,1.0,1.0,1.0
23.93,391.5119,1.0,1.0,1.0
23.94,335.9602,1.0,1.0,1.0
23.95,290.504,1.0,1.0,1.0
23.96,233.0,1.0,1.0,1.0
23.97,196.5199,1.0,1.0,1.0
23.98,242.4801,1.0,1.0,1.0
23.99,218.0,1.0,1.0,1.0
24.0,209.504,1.0,1.0,1.0
24.01,204.504,1.0,1.0,1.0
24.02,215.992,1.0,1.0,1.0
24.03,212.992,1.0,1.0,1.0
24.04,282.5279,1.0,1.0,1.0
24.05,254.9841,1.0,1.0,1.0
24.06,301.496,1.0,1.0,1.0
24.07,297.5199,1.0,1.0,1.0
24.08,368.0,1.0,1.0,1.0
24.09,413.0,1.0,1.0,1.0
24.1,404.0159,1.0,1.0,1.0
24.11,430.4801,1.0,1.0,1.0
24.12,422.008,1.0,1.0,1.0
24.13,431.0319,1.0,1.0,1.0
24.14,434.9841,1.0,1.0,1.0
24.15,454.992,1.0,1.0,1.0
24.16,475.992,1.0,1.0,1.0
24.17,459.4801,1.0,1.0,1.0
24.18,449.5279,1.0,1.0,1.0
24.19,431.4801,1.0,1.0,1.0
24.2,420.5119,1.0,1.0,1.0
24.21,384.4801,1.0,1.0,1.0
24.22,369.504,1.0,1.0,1.0
24.23,353.5119,1.0,1.0,1.0
24.24,264.504,1.0,1.0,1.0
24.25,324.496,1.0,1.0,1.0
24.26,248.9841,1.0,1.0,1.0
24.27,253.504,1.0,1.0,1.0
24.28,217.008,1.0,1.0,1.0
24.29,228.992,1.0,1.0,1.0
24.3,192.992,1.0,1.0,1.0
24.31,192.0159,1.0,1.0,1.0
24.32,162.4881,1.0,1.0,1.0
24.33,166.0,1.0,1.0,1.0
24.34,136.9841,1.0,1.0,1.0
24.35,122.0159,1.0,1.0,1.0
24.36,143.496,1.0,1.0,1.0
24.37,146.4881,1.0,1.0,1.0
24.38,131.5119,1.0,1.0,1.0
24.39,107.0,1.0,1.0,1.0
24.4,122.496,1.0,1.0,1.0
24.41,126.992,1.0,1.0,1.0
24.42,122.008,1.0,1.0,1.0
24.43,101.496,1.0,1.0,1.0
24.44,114.0159,1.0,1.0,1.0
24.45,127.4881,1.0,1.0,1.0
24.46,112.992,1.0,1.0,1.0
24.47,110.5119,1.0,1.0,1.0
24.48,111.992,1.0,1.0,1.0
24.49,88.5119,1.0,1.0,1.0
24.5,121.0,1.0,1.0,1.0
24.51,100.0,1.0,1.0,1.0
24.52,106.5119,1.0,1.0,1.0
24.53,94.9761,1.0,1.0,1.0
24.54,100.496,1.0,1.0,1.0
24.55,90.504,1.0,1.0,1.0
24.56,68.0,1.0,1.0,1.0
24.57,104.0,1.0,1.0,1.0
24.58,107.5119,1.0,1.0,1.0
24.59,88.9841,1.0,1.0,1.0
24.6,216.0159,1.0,1.0,1.0
24.61,89.9841,1.0,1.0,1.0
24.62,79.504,1.0,1.0,1.0
24.63,60.504,1.0,1.0,1.0
24.64,82.008,1.0,1.0,1.0
24.65,85.9841,1.0,1.0,1.0
24.66,80.0,1.0,1.0,1.0
24.67,93.504,1.0,1.0,1.0
24.68,79.496,1.0,1.0,1.0
24.69,89.5119,1.0,1.0,1.0
24.7,79.992,1.0,1.0,1.0
24.71,92.0,1.0,1.0,1.0
24.72,85.0,1.0,1.0,1.0
24.73,93.504,1.0,1.0,1.0
24.74,101.496,1.0,1.0,1.0
24.75,105.504,1.0,1.0,1.0
24.76,72.0,1.0,1.0,1.0
24.77,82.0,1.0,1.0,1.0
24.78,106.0,1.0,1.0,1.0
24.79,103.504,1.0,1.0,1.0
24.8,111.496,1.0,1.0,1.0
24.81,80.496,1.0,1.0,1.0
24.82,121.008,1.0,1.0,1.0
24.83,112.4881,1.0,1.0,1.0
24.84,99.5119,1.0,1.0,1.0
24.85,102.992,1.0,1.0,1.0
24.86,103.496,1.0,1.0,1.0
24.87,83.0159,1.0,1.0,1.0
24.88,85.9841,1.0,1.0,1.0
24.89,87.008,1.0,1.0,1.0
24.9,82.0,1.0,1.0,1.0
24.91,84.496,1.0,1.0,1.0
24.92,81.0,1.0,1.0,1.0
24.93,86.008,1.0,1.0,1.0
24.94,67.0,1.0,1.0,1.0
24.95,93.496,1.0,1.0,1.0
24.96,88.992,1.0,1.0,1.0
24.97,46.0,1.0,1.0,1.0
24.98,71.008,1.0,1.0,1.0
24.99,92.0,1.0,1.0,1.0
25.0,75.0,1.0,1.0,1.0
25.01,65.0,1.0,1.0,1.0
25.02,76.0,1.0,1.0,1.0
25.03,55.0,1.0,1.0,1.0
25.04,70.496,1.0,1.0,1.0
25.05,71.496,1.0,1.0,1.0
25.06,67.0,1.0,1.0,1.0
25.07,49.5119,1.0,1.0,1.0
25.08,65.504,1.0,1.0,1.0
25.09,54.9841,1.0,1.0,1.0
25.1,42.504,1.0,1.0,1.0
25.11,63.496,1.0,1.0,1.0
25.12,46.504,1.0,1.0,1.0
25.13,38.496,1.0,1.0,1.0
25.14,31.504,1.0,1.0,1.0
25.15,23.0,1.0,1.0,1.0
25.16,54.496,1.0,1.0,1.0
25.17,29.504,1.0,1.0,1.0
25.18,40.496,1.0,1.0,1.0
25.19,35.0,1.0,1.0,1.0
25.2,34.0,1.0,1.0,1.0
25.21,34.0,1.0,1.0,1.0
25.22,22.008,1.0,1.0,1.0
25.23,25.496,1.0,1.0,1.0
25.24,30.504,1.0,1.0,1.0
25.25,35.992,1.0,1.0,1.0
25.26,30.0,1.0,1.0,1.0
25.27,27.0,1.0,1.0,1.0
25.28,32.0,1.0,1.0,1.0
25.29,46.0,1.0,1.0,1.0
25.3,32.0,1.0,1.0,1.0
25.31,20.0,1.0,1.0,1.0
25.32,32.504,1.0,1.0,1.0
25.33,35.496,1.0,1.0,1.0
25.34,26.504,1.0,1.0,1.0
25.35,12.0,1.0,1.0,1.0
25.36,45.496,1.0,1.0,1.0
25.37,37.0,1.0,1.0,1.0
25.38,37.008,1.0,1.0,1.0
25.39,32.992,1.0,1.0,1.0
25.4,30.0,1.0,1.0,1.0
25.41,78.504,1.0,1.0,1.0
25.42,39.496,1.0,1.0,1.0
25.43,22.0,1.0,1.0,1.0
25.44,30.504,1.0,1.0,1.0
25.45,47.008,1.0,1.0,1.0
25.46,47.992,1.0,1.0,1.0
25.47,66.496,1.0,1.0,1.0
25.48,27.504,1.0,1.0,1.0
25.49,22.496,1.0,1.0,1.0
25.5,33.0,1.0,1.0,1.0
25.51,38.0,1.0,1.0,1.0
25.52,36.008,1.0,1.0,1.0
25.53,37.496,1.0,1.0,1.0
25.54,24.0,1.0,1.0,1.0
25.55,39.0,1.0,1.0,1.0
25.56,39.496,1.0,1.0,1.0
25.57,40.504,1.0,1.0,1.0
25.58,27.0,1.0,1.0,1.0
25.59,32.0,1.0,1.0,1.0
25.6,25.496,1.0,1.0,1.0
25.61,56.0,1.0,1.0,1.0
25.62,32.504,1.0,1.0,1.0
25.63,26.496,1.0,1.0,1.0
25.64,35.008,1.0,1.0,1.0
25.65,33.992,1.0,1.0,1.0
25.66,27.0,1.0,1.0,1.0
25.67,17.504,1.0,1.0,1.0
25.68,42.0,1.0,1.0,1.0
25.69,30.504,1.0,1.0,1.0
25.7,23.992,1.0,1.0,1.0
25.71,25.0,1.0,1.0,1.0
25.72,40.0,1.0,1.0,1.0
25.73,22.0,1.0,1.0,1.0
25.74,35.0,1.0,1.0,1.0
25.75,36.0,1.0,1.0,1.0
25.76,38.0,1.0,1.0,1.0
25.77,37.504,1.0,1.0,1.0
25.78,30.496,1.0,1.0,1.0
25.79,31.0,1.0,1.0,1.0
25.8,37.0,1.0,1.0,1.0
25.81,30.0,1.0,1.0,1.0
25.82,39.0,1.0,1.0,1.0
25.83,33.008,1.0,1.0,1.0
25.84,24.992,1.0,1.0,1.0
25.85,43.0,1.0,1.0,1.0
25.86,29.0,1.0,1.0,1.0
25.87,23.0,1.0,1.0,1.0
25.88,33.0,1.0,1.0,1.0
25.89,35.0,1.0,1.0,1.0
25.9,41.0,1.0,1.0,1.0
25.91,21.0,1.0,1.0,1.0
25.92,29.0,1.0,1.0,1.0
25.93,33.008,1.0,1.0,1.0
25.94,28.992,1.0,1.0,1.0
25.95,33.0,1.0,1.0,1.0
25.96,28.0,1.0,1.0,1.0
25.97,37.0,1.0,1.0,1.0
25.98,22.504,1.0,1.0,1.0
25.99,36.0,1.0,1.0,1.0
26.0,33.496,1.0,1.0,1.0
26.01,22.0,1.0,1.0,1.0
26.02,30.008,1.0,1.0,1.0
26.03,40.992,1.0,1.0,1.0
26.04,26.504,1.0,1.0,1.0
26.05,18.496,1.0,1.0,1.0
26.06,33.0,1.0,1.0,1.0
26.07,24.0,1.0,1.0,1.0
26.08,9.0,1.0,1.0,1.0
26.09,38.0,1.0,1.0,1.0
26.1,14.0,1.0,1.0,1.0
26.11,25.0,1.0,1.0,1.0
26.12,19.504,1.0,1.0,1.0
26.13,34.496,1.0,1.0,1.0
26.14,23.0,1.0,1.0,1.0
26.15,34.008,1.0,1.0,1.0
26.16,29.992,1.0,1.0,1.0
26.17,24.0,1.0,1.0,1.0
26.18,21.0,1.0,1.0,1.0
26.19,16.0,1.0,1.0,1.0
26.2,26.504,1.0,1.0,1.0
26.21,30.0,1.0,1.0,1.0
26.22,18.0,1.0,1.0,1.0
26.23,24.496,1.0,1.0,1.0
26.24,5.0,1.0,1.0,1.0
26.25,27.0,1.0,1.0,1.0
26.26,11.0,1.0,1.0,1.0
26.27,26.504,1.0,1.0,1.0
26.28,20.496,1.0,1.0,1.0
26.29,26.504,1.0,1.0,1.0
26.3,18.504,1.0,1.0,1.0
26.31,29.992,1.0,1.0,1.0
26.32,27.008,1.0,1.0,1.0
26.33,30.992,1.0,1.0,1.0
26.34,16.0,1.0,1.0,1.0
26.35,18.504,1.0,1.0,1.0
26.36,27.496,1.0,1.0,1.0
26.37,36.0,1.0,1.0,1.0
26.38,33.0,1.0,1.0,1.0
26.39,10.0,1.0,1.0,1.0
26.4,11.0,1.0,1.0,1.0
26.41,19.504,1.0,1.0,1.0
26.42,18.496,1.0,1.0,1.0
26.43,21.0,1.0,1.0,1.0
26.44,12.0,1.0,1.0,1.0
26.45,15.504,1.0,1.0,1.0
26.46,12.0,1.0,1.0,1.0
26.47,19.496,1.0,1.0,1.0
26.48,23.0,1.0,1.0,1.0
26.49,23.0,1.0,1.0,1.0
26.5,28.0,1.0,1.0,1.0
26.51,27.0,1.0,1.0,1.0
26.52,21.0,1.0,1.0,1.0
26.53,15.0,1.0,1.0,1.0
26.54,11.0,1.0,1.0,1.0
26.55,19.504,1.0,1.0,1.0
26.56,30.496,1.0,1.0,1.0
26.57,24.008,1.0,1.0,1.0
26.58,24.496,1.0,1.0,1.0
26.59,12.496,1.0,1.0,1.0
26.6,7.504,1.0,1.0,1.0
26.61,22.496,1.0,1.0,1.0
26.62,11.0,1.0,1.0,1.0
26.63,22.0,1.0,1.0,1.0
26.64,4.0,1.0,1.0,1.0
26.65,9.0,1.0,1.0,1.0
26.66,7.0,1.0,1.0,1.0
26.67,12.0,1.0,1.0,1.0
26.68,18.0,1.0,1.0,1.0
26.69,22.0,1.0,1.0,1.0
26.7,3.0,1.0,1.0,1.0
26.71,13.504,1.0,1.0,1.0
26.72,11.496,1.0,1.0,1.0
26.73,13.0,1.0,1.0,1.0
26.74,3.0,1.0,1.0,1.0
26.75,7.0,1.0,1.0,1.0
26.76,19.0,1.0,1.0,1.0
26.77,7.0,1.0,1.0,1.0
26.78,4.504,1.0,1.0,1.0
26.79,15.496,1.0,1.0,1.0
26.8,14.0,1.0,1.0,1.0
26.81,5.0,1.0,1.0,1.0
26.82,6.504,1.0,1.0,1.0
26.83,17.0,1.0,1.0,1.0
26.84,17.496,1.0,1.0,1.0
26.85,19.504,1.0,1.0,1.0
26.86,7.496,1.0,1.0,1.0
26.87,16.0,1.0,1.0,1.0
26.88,17.504,1.0,1.0,1.0
26.89,4.496,1.0,1.0,1.0
26.9,9.0,1.0,1.0,1.0
26.91,0.0,1.0,1.0,1.0
26.92,5.0,1.0,1.0,1.0
26.93,13.0,1.0,1.0,1.0
26.94,13.0,1.0,1.0,1.0
26.95,16.0,1.0,1.0,1.0
26.96,17.0,1.0,1.0,1.0
26.97,21.0,1.0,1.0,1.0
26.98,9.0,1.0,1.0,1.0
26.99,13.0,1.0,1.0,1.0
27.0,18.0,1.0,1.0,1.0
27.01,20.0,1.0,1.0,1.0
27.02,18.0,1.0,1.0,1.0
27.03,12.0,1.0,1.0,1.0
27.04,20.0,1.0,1.0,1.0
27.05,15.0,1.0,1.0,1.0
27.06,8.504,1.0,1.0,1.0
27.07,14.496,1.0,1.0,1.0
27.08,15.0,1.0,1.0,1.0
27.09,14.504,1.0,1.0,1.0
27.1,4.496,1.0,1.0,1.0
27.11,15.0,1.0,1.0,1.0
27.12,20.504,1.0,1.0,1.0
27.13,19.496,1.0,1.0,1.0
27.14,21.0,1.0,1.0,1.0
27.15,13.504,1.0,1.0,1.0
27.16,30.496,1.0,1.0,1.0
27.17,19.0,1.0,1.0,1.0
27.18,24.0,1.0,1.0,1.0
27.19,9.504,1.0,1.0,1.0
27.2,25.496,1.0,1.0,1.0
27.21,16.0,1.0,1.0,1.0
27.22,16.0,1.0,1.0,1.0
27.23,13.504,1.0,1.0,1.0
27.24,18.0,1.0,1.0,1.0
27.25,16.0,1.0,1.0,1.0
27.26,10.496,1.0,1.0,1.0
27.27,18.0,1.0,1.0,1.0
27.28,12.0,1.0,1.0,1.0
27.29,18.0,1.0,1.0,1.0
27.3,11.0,1.0,1.0,1.0
27.31,5.0,1.0,1.0,1.0
27.32,7.0,1.0,1.0,1.0
27.33,18.0,1.0,1.0,1.0
27.34,19.0,1.0,1.0,1.0
27.35,7.0,1.0,1.0,1.0
27.36,15.008,1.0,1.0,1.0
27.37,15.992,1.0,1.0,1.0
27.38,4.0,1.0,1.0,1.0
27.39,7.504,1.0,1.0,1.0
27.4,15.0,1.0,1.0,1.0
27.41,41.0,1.0,1.0,1.0
27.42,10.496,1.0,1.0,1.0
27.43,9.0,1.0,1.0,1.0
27.44,5.0,1.0,1.0,1.0
27.45,21.0,1.0,1.0,1.0
27.46,14.0,1.0,1.0,1.0
27.47,15.0,1.0,1.0,1.0
27.48,19.0,1.0,1.0,1.0
27.49,7.0,1.0,1.0,1.0
27.5,20.0,1.0,1.0,1.0
27.51,9.0,1.0,1.0,1.0
27.52,8.0,1.0,1.0,1.0
27.53,9.0,1.0,1.0,1.0
27.54,15.0,1.0,1.0,1.0
27.55,14.0,1.0,1.0,1.0
27.56,8.504,1.0,1.0,1.0
27.57,7.496,1.0,1.0,1.0
27.58,8.0,1.0,1.0,1.0
27.59,21.0,1.0,1.0,1.0
27.6,10.0,1.0,1.0,1.0
27.61,10.0,1.0,1.0,1.0
27.62,10.0,1.0,1.0,1.0
27.63,12.0,1.0,1.0,1.0
27.64,5.504,1.0,1.0,1.0
27.65,14.0,1.0,1.0,1.0
27.66,16.0,1.0,1.0,1.0
27.67,17.496,1.0,1.0,1.0
27.68,15.0,1.0,1.0,1.0
27.69,13.0,1.0,1.0,1.0
27.7,17.0,1.0,1.0,1.0
27.71,4.0,1.0,1.0,1.0
27.72,10.0,1.0,1.0,1.0
27.73,15.0,1.0,1.0,1.0
27.74,5.0,1.0,1.0,1.0
27.75,16.504,1.0,1.0,1.0
27.76,10.496,1.0,1.0,1.0
27.77,21.0,1.0,1.0,1.0
27.78,0.0,1.0,1.0,1.0
27.79,12.0,1.0,1.0,1.0
27.8,20.0,1.0,1.0,1.0
27.81,13.0,1.0,1.0,1.0
27.82,12.504,1.0,1.0,1.0
27.83,8.496,1.0,1.0,1.0
27.84,18.0,1.0,1.0,1.0
27.85,14.0,1.0,1.0,1.0
27.86,5.0,1.0,1.0,1.0
27.87,7.504,1.0,1.0,1.0
27.88,20.496,1.0,1.0,1.0
27.89,15.504,1.0,1.0,1.0
27.9,7.496,1.0,1.0,1.0
27.91,11.0,1.0,1.0,1.0
27.92,15.0,1.0,1.0,1.0
27.93,13.0,1.0,1.0,1.0
27.94,10.0,1.0,1.0,1.0
27.95,12.0,1.0,1.0,1.0
27.96,25.0,1.0,1.0,1.0
27.97,15.0,1.0,1.0,1.0
27.98,14.0,1.0,1.0,1.0
27.99,18.504,1.0,1.0,1.0
28.0,12.496,1.0,1.0,1.0