File: XRD:XRR/SCO/23002_SL(CO)L/23002_SL(CO)L_002_XRD.csv
#twotheta, yobs, ycal, bkg, diff
42.0,8.0,1.0,1.0,1.0
42.01,11.4944,1.0,1.0,1.0
42.02,3.5056,1.0,1.0,1.0
42.03,2.0,1.0,1.0,1.0
42.04,18.0,1.0,1.0,1.0
42.05,13.0,1.0,1.0,1.0
42.06,12.0,1.0,1.0,1.0
42.07,9.0,1.0,1.0,1.0
42.08,11.0,1.0,1.0,1.0
42.09,7.0,1.0,1.0,1.0
42.1,6.0,1.0,1.0,1.0
42.11,15.0,1.0,1.0,1.0
42.12,5.0,1.0,1.0,1.0
42.13,9.0,1.0,1.0,1.0
42.14,3.0,1.0,1.0,1.0
42.15,55.0,1.0,1.0,1.0
42.16,15.0,1.0,1.0,1.0
42.17,3.0,1.0,1.0,1.0
42.18,11.0,1.0,1.0,1.0
42.19,6.4944,1.0,1.0,1.0
42.2,8.5056,1.0,1.0,1.0
42.21,18.0,1.0,1.0,1.0
42.22,0.0,1.0,1.0,1.0
42.23,8.0,1.0,1.0,1.0
42.24,2.4944,1.0,1.0,1.0
42.25,16.5056,1.0,1.0,1.0
42.26,11.0,1.0,1.0,1.0
42.27,10.0,1.0,1.0,1.0
42.28,12.0,1.0,1.0,1.0
42.29,13.0,1.0,1.0,1.0
42.3,3.0,1.0,1.0,1.0
42.31,8.0,1.0,1.0,1.0
42.32,10.0,1.0,1.0,1.0
42.33,14.0,1.0,1.0,1.0
42.34,8.0,1.0,1.0,1.0
42.35,10.0,1.0,1.0,1.0
42.36,6.0,1.0,1.0,1.0
42.37,23.0,1.0,1.0,1.0
42.38,10.0,1.0,1.0,1.0
42.39,5.0,1.0,1.0,1.0
42.4,10.0,1.0,1.0,1.0
42.41,18.0,1.0,1.0,1.0
42.42,5.0,1.0,1.0,1.0
42.43,13.0,1.0,1.0,1.0
42.44,9.0,1.0,1.0,1.0
42.45,12.0,1.0,1.0,1.0
42.46,13.0,1.0,1.0,1.0
42.47,14.0,1.0,1.0,1.0
42.48,11.0,1.0,1.0,1.0
42.49,8.0,1.0,1.0,1.0
42.5,4.4944,1.0,1.0,1.0
42.51,11.5056,1.0,1.0,1.0
42.52,13.0,1.0,1.0,1.0
42.53,9.0,1.0,1.0,1.0
42.54,12.0,1.0,1.0,1.0
42.55,9.0,1.0,1.0,1.0
42.56,5.4944,1.0,1.0,1.0
42.57,6.5056,1.0,1.0,1.0
42.58,11.0,1.0,1.0,1.0
42.59,12.0,1.0,1.0,1.0
42.6,2.0,1.0,1.0,1.0
42.61,6.0,1.0,1.0,1.0
42.62,16.0,1.0,1.0,1.0
42.63,8.0,1.0,1.0,1.0
42.64,5.0,1.0,1.0,1.0
42.65,13.0,1.0,1.0,1.0
42.66,8.0,1.0,1.0,1.0
42.67,8.0,1.0,1.0,1.0
42.68,19.0,1.0,1.0,1.0
42.69,10.0,1.0,1.0,1.0
42.7,14.0,1.0,1.0,1.0
42.71,14.0,1.0,1.0,1.0
42.72,19.0,1.0,1.0,1.0
42.73,12.0,1.0,1.0,1.0
42.74,4.0,1.0,1.0,1.0
42.75,14.0,1.0,1.0,1.0
42.76,11.0,1.0,1.0,1.0
42.77,7.0,1.0,1.0,1.0
42.78,1.0,1.0,1.0,1.0
42.79,8.0,1.0,1.0,1.0
42.8,13.4944,1.0,1.0,1.0
42.81,8.5056,1.0,1.0,1.0
42.82,18.0,1.0,1.0,1.0
42.83,8.0,1.0,1.0,1.0
42.84,0.4944,1.0,1.0,1.0
42.85,4.5056,1.0,1.0,1.0
42.86,4.0,1.0,1.0,1.0
42.87,13.0,1.0,1.0,1.0
42.88,17.0,1.0,1.0,1.0
42.89,16.0,1.0,1.0,1.0
42.9,4.0,1.0,1.0,1.0
42.91,13.4944,1.0,1.0,1.0
42.92,11.0,1.0,1.0,1.0
42.93,11.5056,1.0,1.0,1.0
42.94,11.0,1.0,1.0,1.0
42.95,13.0,1.0,1.0,1.0
42.96,15.0,1.0,1.0,1.0
42.97,10.0,1.0,1.0,1.0
42.98,12.0,1.0,1.0,1.0
42.99,9.4944,1.0,1.0,1.0
43.0,9.5056,1.0,1.0,1.0
43.01,2.0,1.0,1.0,1.0
43.02,17.0,1.0,1.0,1.0
43.03,29.4944,1.0,1.0,1.0
43.04,11.0,1.0,1.0,1.0
43.05,15.5056,1.0,1.0,1.0
43.06,11.0,1.0,1.0,1.0
43.07,10.0,1.0,1.0,1.0
43.08,9.0,1.0,1.0,1.0
43.09,12.4944,1.0,1.0,1.0
43.1,12.0,1.0,1.0,1.0
43.11,9.5056,1.0,1.0,1.0
43.12,12.4944,1.0,1.0,1.0
43.13,14.5056,1.0,1.0,1.0
43.14,17.0,1.0,1.0,1.0
43.15,9.9889,1.0,1.0,1.0
43.16,8.0111,1.0,1.0,1.0
43.17,20.0,1.0,1.0,1.0
43.18,8.4944,1.0,1.0,1.0
43.19,19.5056,1.0,1.0,1.0
43.2,5.9889,1.0,1.0,1.0
43.21,12.0,1.0,1.0,1.0
43.22,14.0111,1.0,1.0,1.0
43.23,11.0,1.0,1.0,1.0
43.24,7.0,1.0,1.0,1.0
43.25,17.4944,1.0,1.0,1.0
43.26,11.5056,1.0,1.0,1.0
43.27,14.0,1.0,1.0,1.0
43.28,10.0,1.0,1.0,1.0
43.29,23.9889,1.0,1.0,1.0
43.3,20.5056,1.0,1.0,1.0
43.31,14.0,1.0,1.0,1.0
43.32,22.0,1.0,1.0,1.0
43.33,3.5056,1.0,1.0,1.0
43.34,17.0,1.0,1.0,1.0
43.35,21.4944,1.0,1.0,1.0
43.36,17.5056,1.0,1.0,1.0
43.37,21.0,1.0,1.0,1.0
43.38,13.0,1.0,1.0,1.0
43.39,16.4944,1.0,1.0,1.0
43.4,23.5056,1.0,1.0,1.0
43.41,30.0,1.0,1.0,1.0
43.42,14.4944,1.0,1.0,1.0
43.43,12.5056,1.0,1.0,1.0
43.44,14.0,1.0,1.0,1.0
43.45,15.0,1.0,1.0,1.0
43.46,4.4944,1.0,1.0,1.0
43.47,9.0,1.0,1.0,1.0
43.48,22.4944,1.0,1.0,1.0
43.49,23.0111,1.0,1.0,1.0
43.5,13.4944,1.0,1.0,1.0
43.51,14.5056,1.0,1.0,1.0
43.52,12.0,1.0,1.0,1.0
43.53,22.4944,1.0,1.0,1.0
43.54,26.5056,1.0,1.0,1.0
43.55,21.0,1.0,1.0,1.0
43.56,28.0,1.0,1.0,1.0
43.57,10.0,1.0,1.0,1.0
43.58,31.0,1.0,1.0,1.0
43.59,26.0,1.0,1.0,1.0
43.6,36.0,1.0,1.0,1.0
43.61,44.0,1.0,1.0,1.0
43.62,19.0,1.0,1.0,1.0
43.63,17.0,1.0,1.0,1.0
43.64,24.0,1.0,1.0,1.0
43.65,17.0,1.0,1.0,1.0
43.66,29.4944,1.0,1.0,1.0
43.67,30.5056,1.0,1.0,1.0
43.68,35.0,1.0,1.0,1.0
43.69,25.0,1.0,1.0,1.0
43.7,40.9889,1.0,1.0,1.0
43.71,35.5056,1.0,1.0,1.0
43.72,36.4944,1.0,1.0,1.0
43.73,50.0111,1.0,1.0,1.0
43.74,32.0,1.0,1.0,1.0
43.75,57.4944,1.0,1.0,1.0
43.76,55.0,1.0,1.0,1.0
43.77,39.4944,1.0,1.0,1.0
43.78,44.0,1.0,1.0,1.0
43.79,39.0111,1.0,1.0,1.0
43.8,62.0,1.0,1.0,1.0
43.81,56.0,1.0,1.0,1.0
43.82,76.9667,1.0,1.0,1.0
43.83,69.0222,1.0,1.0,1.0
43.84,78.5056,1.0,1.0,1.0
43.85,68.0,1.0,1.0,1.0
43.86,47.5056,1.0,1.0,1.0
43.87,59.9778,1.0,1.0,1.0
43.88,71.5167,1.0,1.0,1.0
43.89,59.5056,1.0,1.0,1.0
43.9,51.9889,1.0,1.0,1.0
43.91,82.5056,1.0,1.0,1.0
43.92,59.5056,1.0,1.0,1.0
43.93,70.4833,1.0,1.0,1.0
43.94,78.5167,1.0,1.0,1.0
43.95,75.4944,1.0,1.0,1.0
43.96,95.4944,1.0,1.0,1.0
43.97,88.5056,1.0,1.0,1.0
43.98,91.5056,1.0,1.0,1.0
43.99,76.4944,1.0,1.0,1.0
44.0,86.0,1.0,1.0,1.0
44.01,129.4833,1.0,1.0,1.0
44.02,95.0111,1.0,1.0,1.0
44.03,85.4944,1.0,1.0,1.0
44.04,128.4944,1.0,1.0,1.0
44.05,123.0111,1.0,1.0,1.0
44.06,108.0,1.0,1.0,1.0
44.07,120.5056,1.0,1.0,1.0
44.08,111.4944,1.0,1.0,1.0
44.09,107.0111,1.0,1.0,1.0
44.1,124.4944,1.0,1.0,1.0
44.11,100.4944,1.0,1.0,1.0
44.12,111.0,1.0,1.0,1.0
44.13,121.5056,1.0,1.0,1.0
44.14,131.9889,1.0,1.0,1.0
44.15,94.0111,1.0,1.0,1.0
44.16,110.4722,1.0,1.0,1.0
44.17,137.5167,1.0,1.0,1.0
44.18,117.4944,1.0,1.0,1.0
44.19,105.0,1.0,1.0,1.0
44.2,137.0111,1.0,1.0,1.0
44.21,129.4944,1.0,1.0,1.0
44.22,144.0111,1.0,1.0,1.0
44.23,125.0,1.0,1.0,1.0
44.24,162.9889,1.0,1.0,1.0
44.25,113.5056,1.0,1.0,1.0
44.26,118.0,1.0,1.0,1.0
44.27,105.9889,1.0,1.0,1.0
44.28,123.5056,1.0,1.0,1.0
44.29,121.0,1.0,1.0,1.0
44.3,94.5056,1.0,1.0,1.0
44.31,93.4944,1.0,1.0,1.0
44.32,104.0111,1.0,1.0,1.0
44.33,95.0,1.0,1.0,1.0
44.34,75.5056,1.0,1.0,1.0
44.35,98.4833,1.0,1.0,1.0
44.36,89.0111,1.0,1.0,1.0
44.37,72.4944,1.0,1.0,1.0
44.38,75.0,1.0,1.0,1.0
44.39,51.4944,1.0,1.0,1.0
44.4,77.0111,1.0,1.0,1.0
44.41,57.5056,1.0,1.0,1.0
44.42,64.0,1.0,1.0,1.0
44.43,56.4944,1.0,1.0,1.0
44.44,55.5056,1.0,1.0,1.0
44.45,59.9889,1.0,1.0,1.0
44.46,67.0,1.0,1.0,1.0
44.47,69.0,1.0,1.0,1.0
44.48,67.5056,1.0,1.0,1.0
44.49,60.0,1.0,1.0,1.0
44.5,67.0,1.0,1.0,1.0
44.51,60.0,1.0,1.0,1.0
44.52,56.5056,1.0,1.0,1.0
44.53,56.9889,1.0,1.0,1.0
44.54,63.0111,1.0,1.0,1.0
44.55,53.9889,1.0,1.0,1.0
44.56,67.0111,1.0,1.0,1.0
44.57,63.9778,1.0,1.0,1.0
44.58,69.5167,1.0,1.0,1.0
44.59,73.0,1.0,1.0,1.0
44.6,61.0,1.0,1.0,1.0
44.61,69.0,1.0,1.0,1.0
44.62,55.4944,1.0,1.0,1.0
44.63,96.0111,1.0,1.0,1.0
44.64,71.0,1.0,1.0,1.0
44.65,86.9778,1.0,1.0,1.0
44.66,150.0,1.0,1.0,1.0
44.67,83.4944,1.0,1.0,1.0
44.68,107.5167,1.0,1.0,1.0
44.69,113.5056,1.0,1.0,1.0
44.7,121.9778,1.0,1.0,1.0
44.71,119.5056,1.0,1.0,1.0
44.72,122.0111,1.0,1.0,1.0
44.73,164.0,1.0,1.0,1.0
44.74,138.9889,1.0,1.0,1.0
44.75,151.4944,1.0,1.0,1.0
44.76,139.5167,1.0,1.0,1.0
44.77,150.4722,1.0,1.0,1.0
44.78,178.0111,1.0,1.0,1.0
44.79,166.0111,1.0,1.0,1.0
44.8,158.5056,1.0,1.0,1.0
44.81,164.9778,1.0,1.0,1.0
44.82,183.4833,1.0,1.0,1.0
44.83,209.5167,1.0,1.0,1.0
44.84,217.0111,1.0,1.0,1.0
44.85,237.5056,1.0,1.0,1.0
44.86,241.9889,1.0,1.0,1.0
44.87,274.5278,1.0,1.0,1.0
44.88,266.4833,1.0,1.0,1.0
44.89,242.9778,1.0,1.0,1.0
44.9,272.0111,1.0,1.0,1.0
44.91,273.0,1.0,1.0,1.0
44.92,298.0,1.0,1.0,1.0
44.93,295.0,1.0,1.0,1.0
44.94,286.0111,1.0,1.0,1.0
44.95,335.9889,1.0,1.0,1.0
44.96,336.9889,1.0,1.0,1.0
44.97,358.5056,1.0,1.0,1.0
44.98,383.0222,1.0,1.0,1.0
44.99,428.9778,1.0,1.0,1.0
45.0,423.4722,1.0,1.0,1.0
45.01,387.0333,1.0,1.0,1.0
45.02,488.4611,1.0,1.0,1.0
45.03,543.5389,1.0,1.0,1.0
45.04,424.4722,1.0,1.0,1.0
45.05,488.5056,1.0,1.0,1.0
45.06,506.4944,1.0,1.0,1.0
45.07,520.4833,1.0,1.0,1.0
45.08,596.5056,1.0,1.0,1.0
45.09,540.5167,1.0,1.0,1.0
45.1,626.0,1.0,1.0,1.0
45.11,709.9778,1.0,1.0,1.0
45.12,700.5167,1.0,1.0,1.0
45.13,674.9889,1.0,1.0,1.0
45.14,714.0,1.0,1.0,1.0
45.15,717.4722,1.0,1.0,1.0
45.16,753.9556,1.0,1.0,1.0
45.17,794.0667,1.0,1.0,1.0
45.18,783.9778,1.0,1.0,1.0
45.19,899.0111,1.0,1.0,1.0
45.2,847.5056,1.0,1.0,1.0
45.21,840.9778,1.0,1.0,1.0
45.22,865.0,1.0,1.0,1.0
45.23,902.4944,1.0,1.0,1.0
45.24,914.4833,1.0,1.0,1.0
45.25,934.5167,1.0,1.0,1.0
45.26,896.4944,1.0,1.0,1.0
45.27,915.4722,1.0,1.0,1.0
45.28,936.5389,1.0,1.0,1.0
45.29,941.4833,1.0,1.0,1.0
45.3,951.0555,1.0,1.0,1.0
45.31,981.9889,1.0,1.0,1.0
45.32,915.4389,1.0,1.0,1.0
45.33,941.5056,1.0,1.0,1.0
45.34,1006.04,1.0,1.0,1.0
45.35,971.9556,1.0,1.0,1.0
45.36,943.5167,1.0,1.0,1.0
45.37,916.9889,1.0,1.0,1.0
45.38,990.5278,1.0,1.0,1.0
45.39,926.5056,1.0,1.0,1.0
45.4,923.9667,1.0,1.0,1.0
45.41,938.5278,1.0,1.0,1.0
45.42,859.5056,1.0,1.0,1.0
45.43,902.4944,1.0,1.0,1.0
45.44,894.5056,1.0,1.0,1.0
45.45,855.5056,1.0,1.0,1.0
45.46,864.0,1.0,1.0,1.0
45.47,823.0222,1.0,1.0,1.0
45.48,756.4722,1.0,1.0,1.0
45.49,788.0,1.0,1.0,1.0
45.5,724.5056,1.0,1.0,1.0
45.51,685.0,1.0,1.0,1.0
45.52,687.5167,1.0,1.0,1.0
45.53,601.55,1.0,1.0,1.0
45.54,621.4611,1.0,1.0,1.0
45.55,606.5167,1.0,1.0,1.0
45.56,605.5056,1.0,1.0,1.0
45.57,542.9778,1.0,1.0,1.0
45.58,527.5056,1.0,1.0,1.0
45.59,519.5167,1.0,1.0,1.0
45.6,471.9667,1.0,1.0,1.0
45.61,474.5389,1.0,1.0,1.0
45.62,457.4611,1.0,1.0,1.0
45.63,455.9889,1.0,1.0,1.0
45.64,435.5389,1.0,1.0,1.0
45.65,422.5167,1.0,1.0,1.0
45.66,444.9778,1.0,1.0,1.0
45.67,415.4833,1.0,1.0,1.0
45.68,438.0,1.0,1.0,1.0
45.69,423.4722,1.0,1.0,1.0
45.7,462.0222,1.0,1.0,1.0
45.71,456.0,1.0,1.0,1.0
45.72,406.5167,1.0,1.0,1.0
45.73,473.0222,1.0,1.0,1.0
45.74,455.9889,1.0,1.0,1.0
45.75,470.4389,1.0,1.0,1.0
45.76,535.0555,1.0,1.0,1.0
45.77,520.5056,1.0,1.0,1.0
45.78,531.9667,1.0,1.0,1.0
45.79,575.0111,1.0,1.0,1.0
45.8,590.4833,1.0,1.0,1.0
45.81,630.0,1.0,1.0,1.0
45.82,641.5278,1.0,1.0,1.0
45.83,718.4944,1.0,1.0,1.0
45.84,674.4389,1.0,1.0,1.0
45.85,726.5167,1.0,1.0,1.0
45.86,743.0222,1.0,1.0,1.0
45.87,772.4833,1.0,1.0,1.0
45.88,765.5056,1.0,1.0,1.0
45.89,774.4944,1.0,1.0,1.0
45.9,834.9556,1.0,1.0,1.0
45.91,890.0333,1.0,1.0,1.0
45.92,948.9667,1.0,1.0,1.0
45.93,984.0555,1.0,1.0,1.0
45.94,984.5167,1.0,1.0,1.0
45.95,1044.98,1.0,1.0,1.0
45.96,1087.47,1.0,1.0,1.0
45.97,1061.51,1.0,1.0,1.0
45.98,1091.49,1.0,1.0,1.0
45.99,1098.54,1.0,1.0,1.0
46.0,1123.94,1.0,1.0,1.0
46.01,1153.49,1.0,1.0,1.0
46.02,1160.53,1.0,1.0,1.0
46.03,1177.48,1.0,1.0,1.0
46.04,1216.44,1.0,1.0,1.0
46.05,1233.08,1.0,1.0,1.0
46.06,1316.46,1.0,1.0,1.0
46.07,1341.02,1.0,1.0,1.0
46.08,1262.96,1.0,1.0,1.0
46.09,1392.52,1.0,1.0,1.0
46.1,1345.52,1.0,1.0,1.0
46.11,1440.03,1.0,1.0,1.0
46.12,1429.96,1.0,1.0,1.0
46.13,1607.47,1.0,1.0,1.0
46.14,1588.49,1.0,1.0,1.0
46.15,1566.52,1.0,1.0,1.0
46.16,1687.41,1.0,1.0,1.0
46.17,1736.07,1.0,1.0,1.0
46.18,1902.51,1.0,1.0,1.0
46.19,1907.01,1.0,1.0,1.0
46.2,2021.92,1.0,1.0,1.0
46.21,2146.45,1.0,1.0,1.0
46.22,2282.53,1.0,1.0,1.0
46.23,2293.07,1.0,1.0,1.0
46.24,2394.39,1.0,1.0,1.0
46.25,2414.49,1.0,1.0,1.0
46.26,2567.03,1.0,1.0,1.0
46.27,2702.97,1.0,1.0,1.0
46.28,2746.99,1.0,1.0,1.0
46.29,3037.0,1.0,1.0,1.0
46.3,3051.08,1.0,1.0,1.0
46.31,3211.96,1.0,1.0,1.0
46.32,3319.39,1.0,1.0,1.0
46.33,3434.97,1.0,1.0,1.0
46.34,3541.51,1.0,1.0,1.0
46.35,3665.94,1.0,1.0,1.0
46.36,3911.93,1.0,1.0,1.0
46.37,3974.66,1.0,1.0,1.0
46.38,4050.92,1.0,1.0,1.0
46.39,4190.02,1.0,1.0,1.0
46.4,4369.561,1.0,1.0,1.0
46.41,4406.52,1.0,1.0,1.0
46.42,4400.45,1.0,1.0,1.0
46.43,4708.98,1.0,1.0,1.0
46.44,4730.561,1.0,1.0,1.0
46.45,4893.32,1.0,1.0,1.0
46.46,4759.01,1.0,1.0,1.0
46.47,5016.06,1.0,1.0,1.0
46.48,5099.45,1.0,1.0,1.0
46.49,5106.49,1.0,1.0,1.0
46.5,5159.88,1.0,1.0,1.0
46.51,5075.1,1.0,1.0,1.0
46.52,5225.07,1.0,1.0,1.0
46.53,5294.93,1.0,1.0,1.0
46.54,5366.91,1.0,1.0,1.0
46.55,5393.06,1.0,1.0,1.0
46.56,5392.49,1.0,1.0,1.0
46.57,5432.54,1.0,1.0,1.0
46.58,5386.63,1.0,1.0,1.0
46.59,5346.77,1.0,1.0,1.0
46.6,5451.59,1.0,1.0,1.0
46.61,5350.96,1.0,1.0,1.0
46.62,5407.01,1.0,1.0,1.0
46.63,5280.52,1.0,1.0,1.0
46.64,5159.58,1.0,1.0,1.0
46.65,5255.52,1.0,1.0,1.0
46.66,5161.42,1.0,1.0,1.0
46.67,4979.49,1.0,1.0,1.0
46.68,5015.04,1.0,1.0,1.0
46.69,4916.89,1.0,1.0,1.0
46.7,4902.65,1.0,1.0,1.0
46.71,4761.46,1.0,1.0,1.0
46.72,4669.52,1.0,1.0,1.0
46.73,4431.08,1.0,1.0,1.0
46.74,4542.55,1.0,1.0,1.0
46.75,4298.99,1.0,1.0,1.0
46.76,4018.01,1.0,1.0,1.0
46.77,3944.45,1.0,1.0,1.0
46.78,3888.59,1.0,1.0,1.0
46.79,3806.0,1.0,1.0,1.0
46.8,3599.42,1.0,1.0,1.0
46.81,3537.58,1.0,1.0,1.0
46.82,3520.99,1.0,1.0,1.0
46.83,3431.96,1.0,1.0,1.0
46.84,3271.0,1.0,1.0,1.0
46.85,3149.61,1.0,1.0,1.0
46.86,3058.811,1.0,1.0,1.0
46.87,3114.65,1.0,1.0,1.0
46.88,3079.04,1.0,1.0,1.0
46.89,3007.48,1.0,1.0,1.0
46.9,2838.04,1.0,1.0,1.0
46.91,2782.0,1.0,1.0,1.0
46.92,2903.98,1.0,1.0,1.0
46.93,2947.01,1.0,1.0,1.0
46.94,2827.97,1.0,1.0,1.0
46.95,2699.03,1.0,1.0,1.0
46.96,2696.49,1.0,1.0,1.0
46.97,2746.49,1.0,1.0,1.0
46.98,2707.46,1.0,1.0,1.0
46.99,2828.48,1.0,1.0,1.0
47.0,2857.59,1.0,1.0,1.0
47.01,2643.45,1.0,1.0,1.0
47.02,2751.49,1.0,1.0,1.0
47.03,2867.49,1.0,1.0,1.0
47.04,2890.93,1.0,1.0,1.0
47.05,2835.13,1.0,1.0,1.0
47.06,2777.41,1.0,1.0,1.0
47.07,2921.47,1.0,1.0,1.0
47.08,2887.06,1.0,1.0,1.0
47.09,2843.52,1.0,1.0,1.0
47.1,2950.49,1.0,1.0,1.0
47.11,2960.97,1.0,1.0,1.0
47.12,3093.02,1.0,1.0,1.0
47.13,2925.89,1.0,1.0,1.0
47.14,3067.18,1.0,1.0,1.0
47.15,3035.94,1.0,1.0,1.0
47.16,3059.92,1.0,1.0,1.0
47.17,3025.06,1.0,1.0,1.0
47.18,2979.51,1.0,1.0,1.0
47.19,2970.47,1.0,1.0,1.0
47.2,3174.48,1.0,1.0,1.0
47.21,3083.55,1.0,1.0,1.0
47.22,2973.51,1.0,1.0,1.0
47.23,2966.51,1.0,1.0,1.0
47.24,2974.46,1.0,1.0,1.0
47.25,2779.06,1.0,1.0,1.0
47.26,2803.06,1.0,1.0,1.0
47.27,2701.96,1.0,1.0,1.0
47.28,2691.03,1.0,1.0,1.0
47.29,2579.45,1.0,1.0,1.0
47.3,2516.09,1.0,1.0,1.0
47.31,2343.36,1.0,1.0,1.0
47.32,2331.14,1.0,1.0,1.0
47.33,2196.52,1.0,1.0,1.0
47.34,2026.44,1.0,1.0,1.0
47.35,2003.08,1.0,1.0,1.0
47.36,1975.47,1.0,1.0,1.0
47.37,1885.03,1.0,1.0,1.0
47.38,1817.97,1.0,1.0,1.0
47.39,1764.99,1.0,1.0,1.0
47.4,1580.59,1.0,1.0,1.0
47.41,1531.48,1.0,1.0,1.0
47.42,1488.88,1.0,1.0,1.0
47.43,1419.61,1.0,1.0,1.0
47.44,1386.48,1.0,1.0,1.0
47.45,1329.0,1.0,1.0,1.0
47.46,1338.98,1.0,1.0,1.0
47.47,1204.58,1.0,1.0,1.0
47.48,1165.97,1.0,1.0,1.0
47.49,1151.98,1.0,1.0,1.0
47.5,1085.06,1.0,1.0,1.0
47.51,1118.48,1.0,1.0,1.0
47.52,1091.98,1.0,1.0,1.0
47.53,1032.51,1.0,1.0,1.0
47.54,1040.04,1.0,1.0,1.0
47.55,1018.48,1.0,1.0,1.0
47.56,984.0,1.0,1.0,1.0
47.57,972.4611,1.0,1.0,1.0
47.58,960.0555,1.0,1.0,1.0
47.59,942.9889,1.0,1.0,1.0
47.6,904.0222,1.0,1.0,1.0
47.61,825.9778,1.0,1.0,1.0
47.62,908.9778,1.0,1.0,1.0
47.63,844.5167,1.0,1.0,1.0
47.64,871.0111,1.0,1.0,1.0
47.65,861.0,1.0,1.0,1.0
47.66,879.0111,1.0,1.0,1.0
47.67,888.5167,1.0,1.0,1.0
47.68,929.4722,1.0,1.0,1.0
47.69,935.55,1.0,1.0,1.0
47.7,1007.44,1.0,1.0,1.0
47.71,1089.51,1.0,1.0,1.0
47.72,1121.49,1.0,1.0,1.0
47.73,1118.48,1.0,1.0,1.0
47.74,1434.46,1.0,1.0,1.0
47.75,1478.01,1.0,1.0,1.0
47.76,1723.44,1.0,1.0,1.0
47.77,1893.02,1.0,1.0,1.0
47.78,2188.43,1.0,1.0,1.0
47.79,2520.46,1.0,1.0,1.0
47.8,2881.51,1.0,1.0,1.0
47.81,3365.34,1.0,1.0,1.0
47.82,4002.46,1.0,1.0,1.0
47.83,4675.9,1.0,1.0,1.0
47.84,5739.34,1.0,1.0,1.0
47.85,6927.83,1.0,1.0,1.0
47.86,8718.35,1.0,1.0,1.0
47.87,10478.8,1.0,1.0,1.0
47.88,13248.6,1.0,1.0,1.0
47.89,16813.5,1.0,1.0,1.0
47.9,21260.5,1.0,1.0,1.0
47.91,26699.2,1.0,1.0,1.0
47.92,34397.8,1.0,1.0,1.0
47.93,43477.1,1.0,1.0,1.0
47.94,55253.9,1.0,1.0,1.0
47.95,69629,1.0,1.0,1.0
47.96,87821.1,1.0,1.0,1.0
47.97,110709,1.0,1.0,1.0
47.98,139898,1.0,1.0,1.0
47.99,176815,1.0,1.0,1.0
48.0,226447,1.0,1.0,1.0
48.01,299893,1.0,1.0,1.0
48.02,485826,1.0,1.0,1.0
48.03,1674670.75,1.0,1.0,1.0
48.04,4071262.75,1.0,1.0,1.0
48.05,4630352.0,1.0,1.0,1.0
48.06,4284083.5,1.0,1.0,1.0
48.07,2477492.25,1.0,1.0,1.0
48.08,542295,1.0,1.0,1.0
48.09,158557,1.0,1.0,1.0
48.1,52646.7,1.0,1.0,1.0
48.11,26284.5,1.0,1.0,1.0
48.12,16946.9,1.0,1.0,1.0
48.13,12058.8,1.0,1.0,1.0
48.14,8895.23,1.0,1.0,1.0
48.15,6824.13,1.0,1.0,1.0
48.16,5587.16,1.0,1.0,1.0
48.17,4555.64,1.0,1.0,1.0
48.18,3824.02,1.0,1.0,1.0
48.19,3494.68,1.0,1.0,1.0
48.2,2796.03,1.0,1.0,1.0
48.21,2567.93,1.0,1.0,1.0
48.22,2267.561,1.0,1.0,1.0
48.23,2074.53,1.0,1.0,1.0
48.24,1914.52,1.0,1.0,1.0
48.25,1782.52,1.0,1.0,1.0
48.26,1615.99,1.0,1.0,1.0
48.27,1484.57,1.0,1.0,1.0
48.28,1487.97,1.0,1.0,1.0
48.29,1376.54,1.0,1.0,1.0
48.3,1275.01,1.0,1.0,1.0
48.31,1252.47,1.0,1.0,1.0
48.32,1161.01,1.0,1.0,1.0
48.33,1153.0,1.0,1.0,1.0
48.34,1194.93,1.0,1.0,1.0
48.35,1069.58,1.0,1.0,1.0
48.36,959.9445,1.0,1.0,1.0
48.37,931.5833,1.0,1.0,1.0
48.38,926.4167,1.0,1.0,1.0
48.39,844.5389,1.0,1.0,1.0
48.4,848.5389,1.0,1.0,1.0
48.41,793.4833,1.0,1.0,1.0
48.42,717.5167,1.0,1.0,1.0
48.43,698.5278,1.0,1.0,1.0
48.44,636.45,1.0,1.0,1.0
48.45,591.55,1.0,1.0,1.0
48.46,582.0222,1.0,1.0,1.0
48.47,572.4833,1.0,1.0,1.0
48.48,529.9889,1.0,1.0,1.0
48.49,485.4833,1.0,1.0,1.0
48.5,467.0333,1.0,1.0,1.0
48.51,399.0,1.0,1.0,1.0
48.52,386.0111,1.0,1.0,1.0
48.53,356.0,1.0,1.0,1.0
48.54,320.4944,1.0,1.0,1.0
48.55,341.5167,1.0,1.0,1.0
48.56,272.0,1.0,1.0,1.0
48.57,303.5056,1.0,1.0,1.0
48.58,267.4833,1.0,1.0,1.0
48.59,238.0,1.0,1.0,1.0
48.6,275.5056,1.0,1.0,1.0
48.61,242.8667,1.0,1.0,1.0
48.62,247.6166,1.0,1.0,1.0
48.63,237.0333,1.0,1.0,1.0
48.64,191.9556,1.0,1.0,1.0
48.65,185.5167,1.0,1.0,1.0
48.66,175.0111,1.0,1.0,1.0
48.67,141.5056,1.0,1.0,1.0
48.68,181.0,1.0,1.0,1.0
48.69,146.0,1.0,1.0,1.0
48.7,125.0111,1.0,1.0,1.0
48.71,148.9889,1.0,1.0,1.0
48.72,126.5056,1.0,1.0,1.0
48.73,128.0,1.0,1.0,1.0
48.74,142.4944,1.0,1.0,1.0
48.75,147.0,1.0,1.0,1.0
48.76,113.5056,1.0,1.0,1.0
48.77,117.0,1.0,1.0,1.0
48.78,114.9889,1.0,1.0,1.0
48.79,106.5167,1.0,1.0,1.0
48.8,92.4944,1.0,1.0,1.0
48.81,109.9889,1.0,1.0,1.0
48.82,68.0111,1.0,1.0,1.0
48.83,85.5056,1.0,1.0,1.0
48.84,91.5056,1.0,1.0,1.0
48.85,92.9889,1.0,1.0,1.0
48.86,69.5056,1.0,1.0,1.0
48.87,77.4944,1.0,1.0,1.0
48.88,67.5056,1.0,1.0,1.0
48.89,87.5056,1.0,1.0,1.0
48.9,87.4833,1.0,1.0,1.0
48.91,86.0111,1.0,1.0,1.0
48.92,99.0,1.0,1.0,1.0
48.93,65.0,1.0,1.0,1.0
48.94,68.5056,1.0,1.0,1.0
48.95,51.9889,1.0,1.0,1.0
48.96,72.5056,1.0,1.0,1.0
48.97,69.4833,1.0,1.0,1.0
48.98,81.5056,1.0,1.0,1.0
48.99,75.5167,1.0,1.0,1.0
49.0,71.9889,1.0,1.0,1.0
49.01,55.5056,1.0,1.0,1.0
49.02,77.4944,1.0,1.0,1.0
49.03,105.4944,1.0,1.0,1.0
49.04,60.5167,1.0,1.0,1.0
49.05,63.4833,1.0,1.0,1.0
49.06,61.5056,1.0,1.0,1.0
49.07,35.9889,1.0,1.0,1.0
49.08,58.0222,1.0,1.0,1.0
49.09,55.4944,1.0,1.0,1.0
49.1,50.4944,1.0,1.0,1.0
49.11,60.0,1.0,1.0,1.0
49.12,60.0111,1.0,1.0,1.0
49.13,41.0,1.0,1.0,1.0
49.14,30.0,1.0,1.0,1.0
49.15,48.4944,1.0,1.0,1.0
49.16,45.9889,1.0,1.0,1.0
49.17,65.5167,1.0,1.0,1.0
49.18,56.0,1.0,1.0,1.0
49.19,49.0,1.0,1.0,1.0
49.2,67.9889,1.0,1.0,1.0
49.21,53.5056,1.0,1.0,1.0
49.22,27.5056,1.0,1.0,1.0
49.23,39.0,1.0,1.0,1.0
49.24,42.4944,1.0,1.0,1.0
49.25,37.4944,1.0,1.0,1.0
49.26,48.0111,1.0,1.0,1.0
49.27,33.4944,1.0,1.0,1.0
49.28,32.0,1.0,1.0,1.0
49.29,40.4944,1.0,1.0,1.0
49.3,42.4944,1.0,1.0,1.0
49.31,41.5167,1.0,1.0,1.0
49.32,35.9889,1.0,1.0,1.0
49.33,42.5056,1.0,1.0,1.0
49.34,34.5056,1.0,1.0,1.0
49.35,33.0,1.0,1.0,1.0
49.36,51.0,1.0,1.0,1.0
49.37,46.4944,1.0,1.0,1.0
49.38,41.0,1.0,1.0,1.0
49.39,33.5056,1.0,1.0,1.0
49.4,45.0,1.0,1.0,1.0
49.41,52.4944,1.0,1.0,1.0
49.42,48.0,1.0,1.0,1.0
49.43,31.0,1.0,1.0,1.0
49.44,41.5056,1.0,1.0,1.0
49.45,35.4944,1.0,1.0,1.0
49.46,31.0,1.0,1.0,1.0
49.47,35.5056,1.0,1.0,1.0
49.48,34.4944,1.0,1.0,1.0
49.49,35.5056,1.0,1.0,1.0
49.5,50.4944,1.0,1.0,1.0
49.51,40.0,1.0,1.0,1.0
49.52,48.4944,1.0,1.0,1.0
49.53,37.4944,1.0,1.0,1.0
49.54,32.5167,1.0,1.0,1.0
49.55,27.0,1.0,1.0,1.0
49.56,27.0,1.0,1.0,1.0
49.57,32.0,1.0,1.0,1.0
49.58,39.0,1.0,1.0,1.0
49.59,39.0,1.0,1.0,1.0
49.6,12.0,1.0,1.0,1.0
49.61,19.0,1.0,1.0,1.0
49.62,20.0,1.0,1.0,1.0
49.63,16.0,1.0,1.0,1.0
49.64,18.0,1.0,1.0,1.0
49.65,32.9889,1.0,1.0,1.0
49.66,31.5056,1.0,1.0,1.0
49.67,40.5056,1.0,1.0,1.0
49.68,34.0,1.0,1.0,1.0
49.69,32.0,1.0,1.0,1.0
49.7,22.4944,1.0,1.0,1.0
49.71,32.5056,1.0,1.0,1.0
49.72,25.0,1.0,1.0,1.0
49.73,17.0,1.0,1.0,1.0
49.74,11.4944,1.0,1.0,1.0
49.75,19.5056,1.0,1.0,1.0
49.76,16.4944,1.0,1.0,1.0
49.77,22.5056,1.0,1.0,1.0
49.78,25.0,1.0,1.0,1.0
49.79,23.0,1.0,1.0,1.0
49.8,4.9889,1.0,1.0,1.0
49.81,17.5056,1.0,1.0,1.0
49.82,22.5056,1.0,1.0,1.0
49.83,22.4944,1.0,1.0,1.0
49.84,27.4944,1.0,1.0,1.0
49.85,18.0111,1.0,1.0,1.0
49.86,15.4944,1.0,1.0,1.0
49.87,13.5056,1.0,1.0,1.0
49.88,25.0,1.0,1.0,1.0
49.89,24.0,1.0,1.0,1.0
49.9,17.0,1.0,1.0,1.0
49.91,22.4944,1.0,1.0,1.0
49.92,22.5056,1.0,1.0,1.0
49.93,22.0,1.0,1.0,1.0
49.94,10.4944,1.0,1.0,1.0
49.95,3.5056,1.0,1.0,1.0
49.96,14.4833,1.0,1.0,1.0
49.97,16.5167,1.0,1.0,1.0
49.98,19.0,1.0,1.0,1.0
49.99,10.4944,1.0,1.0,1.0
50.0,14.5056,1.0,1.0,1.0
50.01,17.4944,1.0,1.0,1.0
50.02,11.5056,1.0,1.0,1.0
50.03,13.0,1.0,1.0,1.0
50.04,15.9889,1.0,1.0,1.0
50.05,12.0111,1.0,1.0,1.0
50.06,29.0,1.0,1.0,1.0
50.07,10.0,1.0,1.0,1.0
50.08,31.0,1.0,1.0,1.0
50.09,6.0,1.0,1.0,1.0
50.1,16.0,1.0,1.0,1.0
50.11,8.4944,1.0,1.0,1.0
50.12,17.5056,1.0,1.0,1.0
50.13,11.0,1.0,1.0,1.0
50.14,18.4944,1.0,1.0,1.0
50.15,20.0,1.0,1.0,1.0
50.16,19.5056,1.0,1.0,1.0
50.17,32.0,1.0,1.0,1.0
50.18,13.4944,1.0,1.0,1.0
50.19,11.5056,1.0,1.0,1.0
50.2,11.0,1.0,1.0,1.0
50.21,9.0,1.0,1.0,1.0
50.22,3.0,1.0,1.0,1.0
50.23,10.0,1.0,1.0,1.0
50.24,9.0,1.0,1.0,1.0
50.25,5.0,1.0,1.0,1.0
50.26,8.0,1.0,1.0,1.0
50.27,7.0,1.0,1.0,1.0
50.28,2.0,1.0,1.0,1.0
50.29,17.9889,1.0,1.0,1.0
50.3,21.5056,1.0,1.0,1.0
50.31,13.5056,1.0,1.0,1.0
50.32,16.0,1.0,1.0,1.0
50.33,17.0,1.0,1.0,1.0
50.34,7.4944,1.0,1.0,1.0
50.35,14.5056,1.0,1.0,1.0
50.36,15.0,1.0,1.0,1.0
50.37,15.0,1.0,1.0,1.0
50.38,13.0,1.0,1.0,1.0
50.39,10.0,1.0,1.0,1.0
50.4,7.4944,1.0,1.0,1.0
50.41,9.0,1.0,1.0,1.0
50.42,13.5056,1.0,1.0,1.0
50.43,7.0,1.0,1.0,1.0
50.44,10.0,1.0,1.0,1.0
50.45,9.4944,1.0,1.0,1.0
50.46,12.0,1.0,1.0,1.0
50.47,20.5056,1.0,1.0,1.0
50.48,22.4944,1.0,1.0,1.0
50.49,17.5056,1.0,1.0,1.0
50.5,7.0,1.0,1.0,1.0
50.51,6.0,1.0,1.0,1.0
50.52,10.0,1.0,1.0,1.0
50.53,8.0,1.0,1.0,1.0
50.54,11.4944,1.0,1.0,1.0
50.55,10.5056,1.0,1.0,1.0
50.56,13.0,1.0,1.0,1.0
50.57,3.0,1.0,1.0,1.0
50.58,3.0,1.0,1.0,1.0
50.59,8.0,1.0,1.0,1.0
50.6,6.0,1.0,1.0,1.0
50.61,18.4944,1.0,1.0,1.0
50.62,17.5056,1.0,1.0,1.0
50.63,0.0,1.0,1.0,1.0
50.64,9.0,1.0,1.0,1.0
50.65,8.0,1.0,1.0,1.0
50.66,2.0,1.0,1.0,1.0
50.67,4.0,1.0,1.0,1.0
50.68,12.0,1.0,1.0,1.0
50.69,5.4944,1.0,1.0,1.0
50.7,11.5056,1.0,1.0,1.0
50.71,5.0,1.0,1.0,1.0
50.72,6.0,1.0,1.0,1.0
50.73,4.0,1.0,1.0,1.0
50.74,12.0,1.0,1.0,1.0
50.75,5.0,1.0,1.0,1.0
50.76,12.4944,1.0,1.0,1.0
50.77,9.5056,1.0,1.0,1.0
50.78,7.0,1.0,1.0,1.0
50.79,10.0,1.0,1.0,1.0
50.8,7.0,1.0,1.0,1.0
50.81,6.0,1.0,1.0,1.0
50.82,11.0,1.0,1.0,1.0
50.83,8.4944,1.0,1.0,1.0
50.84,8.0,1.0,1.0,1.0
50.85,13.5056,1.0,1.0,1.0
50.86,4.0,1.0,1.0,1.0
50.87,2.4944,1.0,1.0,1.0
50.88,18.0,1.0,1.0,1.0
50.89,7.5056,1.0,1.0,1.0
50.9,16.0,1.0,1.0,1.0
50.91,9.0,1.0,1.0,1.0
50.92,7.0,1.0,1.0,1.0
50.93,7.0,1.0,1.0,1.0
50.94,6.0,1.0,1.0,1.0
50.95,8.0,1.0,1.0,1.0
50.96,4.0,1.0,1.0,1.0
50.97,1.4944,1.0,1.0,1.0
50.98,13.5056,1.0,1.0,1.0
50.99,9.0,1.0,1.0,1.0
51.0,9.0,1.0,1.0,1.0
51.01,12.0,1.0,1.0,1.0
51.02,14.0,1.0,1.0,1.0
51.03,11.0,1.0,1.0,1.0
51.04,12.0,1.0,1.0,1.0
51.05,10.4944,1.0,1.0,1.0
51.06,12.5056,1.0,1.0,1.0
51.07,10.0,1.0,1.0,1.0
51.08,4.0,1.0,1.0,1.0
51.09,14.0,1.0,1.0,1.0
51.1,6.0,1.0,1.0,1.0
51.11,18.0,1.0,1.0,1.0
51.12,14.0,1.0,1.0,1.0
51.13,14.4944,1.0,1.0,1.0
51.14,7.0,1.0,1.0,1.0
51.15,8.5056,1.0,1.0,1.0
51.16,5.0,1.0,1.0,1.0
51.17,8.0,1.0,1.0,1.0
51.18,6.0,1.0,1.0,1.0
51.19,3.0,1.0,1.0,1.0
51.2,0.0,1.0,1.0,1.0
51.21,9.0,1.0,1.0,1.0
51.22,9.0,1.0,1.0,1.0
51.23,4.0,1.0,1.0,1.0
51.24,8.4944,1.0,1.0,1.0
51.25,53.5056,1.0,1.0,1.0
51.26,8.0,1.0,1.0,1.0
51.27,13.0,1.0,1.0,1.0
51.28,10.0,1.0,1.0,1.0
51.29,7.4944,1.0,1.0,1.0
51.3,7.5056,1.0,1.0,1.0
51.31,13.0,1.0,1.0,1.0
51.32,11.0,1.0,1.0,1.0
51.33,17.0,1.0,1.0,1.0
51.34,7.4944,1.0,1.0,1.0
51.35,14.0,1.0,1.0,1.0
51.36,10.0,1.0,1.0,1.0
51.37,6.5056,1.0,1.0,1.0
51.38,8.0,1.0,1.0,1.0
51.39,3.0,1.0,1.0,1.0
51.4,12.4944,1.0,1.0,1.0
51.41,10.5056,1.0,1.0,1.0
51.42,12.0,1.0,1.0,1.0
51.43,9.0,1.0,1.0,1.0
51.44,12.0,1.0,1.0,1.0
51.45,12.0,1.0,1.0,1.0
51.46,8.0,1.0,1.0,1.0
51.47,11.0,1.0,1.0,1.0
51.48,9.0,1.0,1.0,1.0
51.49,10.0,1.0,1.0,1.0
51.5,15.0,1.0,1.0,1.0
51.51,3.0,1.0,1.0,1.0
51.52,4.4944,1.0,1.0,1.0
51.53,13.5056,1.0,1.0,1.0
51.54,4.0,1.0,1.0,1.0
51.55,8.0,1.0,1.0,1.0
51.56,3.0,1.0,1.0,1.0
51.57,6.0,1.0,1.0,1.0
51.58,4.0,1.0,1.0,1.0
51.59,0.0,1.0,1.0,1.0
51.6,8.0,1.0,1.0,1.0
51.61,14.0,1.0,1.0,1.0
51.62,12.0,1.0,1.0,1.0
51.63,2.0,1.0,1.0,1.0
51.64,13.0,1.0,1.0,1.0
51.65,7.0,1.0,1.0,1.0
51.66,10.0,1.0,1.0,1.0
51.67,14.0,1.0,1.0,1.0
51.68,8.0,1.0,1.0,1.0
51.69,6.0,1.0,1.0,1.0
51.7,8.0,1.0,1.0,1.0
51.71,6.4944,1.0,1.0,1.0
51.72,7.5056,1.0,1.0,1.0
51.73,15.0,1.0,1.0,1.0
51.74,3.9889,1.0,1.0,1.0
51.75,4.0111,1.0,1.0,1.0
51.76,4.0,1.0,1.0,1.0
51.77,5.0,1.0,1.0,1.0
51.78,15.9889,1.0,1.0,1.0
51.79,10.0111,1.0,1.0,1.0
51.8,5.9889,1.0,1.0,1.0
51.81,14.0111,1.0,1.0,1.0
51.82,4.0,1.0,1.0,1.0
51.83,5.4944,1.0,1.0,1.0
51.84,19.5056,1.0,1.0,1.0
51.85,2.0,1.0,1.0,1.0
51.86,4.0,1.0,1.0,1.0
51.87,0.0,1.0,1.0,1.0
51.88,7.0,1.0,1.0,1.0
51.89,11.0,1.0,1.0,1.0
51.9,7.4944,1.0,1.0,1.0
51.91,11.5056,1.0,1.0,1.0
51.92,9.0,1.0,1.0,1.0
51.93,8.0,1.0,1.0,1.0
51.94,12.0,1.0,1.0,1.0
51.95,9.9889,1.0,1.0,1.0
51.96,18.0111,1.0,1.0,1.0
51.97,5.0,1.0,1.0,1.0
51.98,4.0,1.0,1.0,1.0
51.99,10.0,1.0,1.0,1.0
52.0,12.0,1.0,1.0,1.0