File: XRD:XRR/SCO/22156_(SL)CO_L/22156_(SL)C0_L_XRD.csv
#twotheta, yobs, ycal, bkg, diff
42.0,4.0,1.0,1.0,1.0
42.01,14.0,1.0,1.0,1.0
42.02,5.0,1.0,1.0,1.0
42.03,7.0,1.0,1.0,1.0
42.04,11.0,1.0,1.0,1.0
42.05,2.0,1.0,1.0,1.0
42.06,8.0,1.0,1.0,1.0
42.07,7.4944,1.0,1.0,1.0
42.08,2.5056,1.0,1.0,1.0
42.09,6.0,1.0,1.0,1.0
42.1,6.0,1.0,1.0,1.0
42.11,8.4944,1.0,1.0,1.0
42.12,12.5056,1.0,1.0,1.0
42.13,0.0,1.0,1.0,1.0
42.14,11.0,1.0,1.0,1.0
42.15,7.0,1.0,1.0,1.0
42.16,9.0,1.0,1.0,1.0
42.17,7.0,1.0,1.0,1.0
42.18,14.0,1.0,1.0,1.0
42.19,1.4944,1.0,1.0,1.0
42.2,10.4944,1.0,1.0,1.0
42.21,3.5056,1.0,1.0,1.0
42.22,7.5056,1.0,1.0,1.0
42.23,7.0,1.0,1.0,1.0
42.24,12.0,1.0,1.0,1.0
42.25,9.0,1.0,1.0,1.0
42.26,8.0,1.0,1.0,1.0
42.27,7.0,1.0,1.0,1.0
42.28,7.0,1.0,1.0,1.0
42.29,5.0,1.0,1.0,1.0
42.3,13.0,1.0,1.0,1.0
42.31,12.0,1.0,1.0,1.0
42.32,17.0,1.0,1.0,1.0
42.33,9.0,1.0,1.0,1.0
42.34,2.0,1.0,1.0,1.0
42.35,10.9889,1.0,1.0,1.0
42.36,16.0111,1.0,1.0,1.0
42.37,4.0,1.0,1.0,1.0
42.38,13.0,1.0,1.0,1.0
42.39,11.0,1.0,1.0,1.0
42.4,7.0,1.0,1.0,1.0
42.41,5.0,1.0,1.0,1.0
42.42,11.0,1.0,1.0,1.0
42.43,14.0,1.0,1.0,1.0
42.44,16.0,1.0,1.0,1.0
42.45,16.0,1.0,1.0,1.0
42.46,10.0,1.0,1.0,1.0
42.47,7.0,1.0,1.0,1.0
42.48,5.0,1.0,1.0,1.0
42.49,10.0,1.0,1.0,1.0
42.5,12.0,1.0,1.0,1.0
42.51,12.0,1.0,1.0,1.0
42.52,8.0,1.0,1.0,1.0
42.53,8.0,1.0,1.0,1.0
42.54,0.0,1.0,1.0,1.0
42.55,14.0,1.0,1.0,1.0
42.56,6.9889,1.0,1.0,1.0
42.57,15.0111,1.0,1.0,1.0
42.58,16.4944,1.0,1.0,1.0
42.59,7.0,1.0,1.0,1.0
42.6,16.5056,1.0,1.0,1.0
42.61,4.0,1.0,1.0,1.0
42.62,10.0,1.0,1.0,1.0
42.63,6.0,1.0,1.0,1.0
42.64,7.0,1.0,1.0,1.0
42.65,7.0,1.0,1.0,1.0
42.66,0.0,1.0,1.0,1.0
42.67,13.0,1.0,1.0,1.0
42.68,6.0,1.0,1.0,1.0
42.69,6.0,1.0,1.0,1.0
42.7,0.0,1.0,1.0,1.0
42.71,8.0,1.0,1.0,1.0
42.72,9.0,1.0,1.0,1.0
42.73,14.0,1.0,1.0,1.0
42.74,9.0,1.0,1.0,1.0
42.75,12.0,1.0,1.0,1.0
42.76,10.0,1.0,1.0,1.0
42.77,13.0,1.0,1.0,1.0
42.78,6.0,1.0,1.0,1.0
42.79,13.0,1.0,1.0,1.0
42.8,8.0,1.0,1.0,1.0
42.81,14.4944,1.0,1.0,1.0
42.82,9.5056,1.0,1.0,1.0
42.83,10.0,1.0,1.0,1.0
42.84,12.4944,1.0,1.0,1.0
42.85,6.0,1.0,1.0,1.0
42.86,13.0,1.0,1.0,1.0
42.87,4.5056,1.0,1.0,1.0
42.88,7.4944,1.0,1.0,1.0
42.89,9.5056,1.0,1.0,1.0
42.9,6.0,1.0,1.0,1.0
42.91,12.0,1.0,1.0,1.0
42.92,4.0,1.0,1.0,1.0
42.93,10.0,1.0,1.0,1.0
42.94,13.0,1.0,1.0,1.0
42.95,9.0,1.0,1.0,1.0
42.96,7.0,1.0,1.0,1.0
42.97,0.4944,1.0,1.0,1.0
42.98,14.5056,1.0,1.0,1.0
42.99,5.4944,1.0,1.0,1.0
43.0,2.5056,1.0,1.0,1.0
43.01,7.4944,1.0,1.0,1.0
43.02,5.5056,1.0,1.0,1.0
43.03,7.0,1.0,1.0,1.0
43.04,10.0,1.0,1.0,1.0
43.05,4.0,1.0,1.0,1.0
43.06,0.0,1.0,1.0,1.0
43.07,3.0,1.0,1.0,1.0
43.08,6.0,1.0,1.0,1.0
43.09,7.0,1.0,1.0,1.0
43.1,7.0,1.0,1.0,1.0
43.11,19.0,1.0,1.0,1.0
43.12,11.4944,1.0,1.0,1.0
43.13,14.0,1.0,1.0,1.0
43.14,12.5056,1.0,1.0,1.0
43.15,17.9889,1.0,1.0,1.0
43.16,13.0111,1.0,1.0,1.0
43.17,9.0,1.0,1.0,1.0
43.18,8.0,1.0,1.0,1.0
43.19,18.0,1.0,1.0,1.0
43.2,6.0,1.0,1.0,1.0
43.21,6.0,1.0,1.0,1.0
43.22,9.0,1.0,1.0,1.0
43.23,16.0,1.0,1.0,1.0
43.24,13.0,1.0,1.0,1.0
43.25,4.4944,1.0,1.0,1.0
43.26,6.5056,1.0,1.0,1.0
43.27,2.4944,1.0,1.0,1.0
43.28,8.5056,1.0,1.0,1.0
43.29,11.0,1.0,1.0,1.0
43.3,15.0,1.0,1.0,1.0
43.31,2.0,1.0,1.0,1.0
43.32,10.4944,1.0,1.0,1.0
43.33,10.5056,1.0,1.0,1.0
43.34,11.0,1.0,1.0,1.0
43.35,7.0,1.0,1.0,1.0
43.36,22.0,1.0,1.0,1.0
43.37,14.4944,1.0,1.0,1.0
43.38,9.5056,1.0,1.0,1.0
43.39,0.0,1.0,1.0,1.0
43.4,15.0,1.0,1.0,1.0
43.41,14.0,1.0,1.0,1.0
43.42,13.0,1.0,1.0,1.0
43.43,4.0,1.0,1.0,1.0
43.44,9.4944,1.0,1.0,1.0
43.45,8.5056,1.0,1.0,1.0
43.46,15.0,1.0,1.0,1.0
43.47,11.0,1.0,1.0,1.0
43.48,12.0,1.0,1.0,1.0
43.49,13.0,1.0,1.0,1.0
43.5,8.4944,1.0,1.0,1.0
43.51,27.4944,1.0,1.0,1.0
43.52,17.0111,1.0,1.0,1.0
43.53,8.0,1.0,1.0,1.0
43.54,17.9889,1.0,1.0,1.0
43.55,11.5056,1.0,1.0,1.0
43.56,13.5056,1.0,1.0,1.0
43.57,26.0,1.0,1.0,1.0
43.58,15.0,1.0,1.0,1.0
43.59,8.0,1.0,1.0,1.0
43.6,21.4944,1.0,1.0,1.0
43.61,22.5056,1.0,1.0,1.0
43.62,13.0,1.0,1.0,1.0
43.63,23.9778,1.0,1.0,1.0
43.64,32.0222,1.0,1.0,1.0
43.65,21.0,1.0,1.0,1.0
43.66,19.0,1.0,1.0,1.0
43.67,24.4944,1.0,1.0,1.0
43.68,15.5056,1.0,1.0,1.0
43.69,11.4944,1.0,1.0,1.0
43.7,21.5056,1.0,1.0,1.0
43.71,22.4944,1.0,1.0,1.0
43.72,24.5056,1.0,1.0,1.0
43.73,27.0,1.0,1.0,1.0
43.74,29.4944,1.0,1.0,1.0
43.75,24.0,1.0,1.0,1.0
43.76,31.5056,1.0,1.0,1.0
43.77,24.4833,1.0,1.0,1.0
43.78,40.0111,1.0,1.0,1.0
43.79,42.5056,1.0,1.0,1.0
43.8,22.4944,1.0,1.0,1.0
43.81,17.5056,1.0,1.0,1.0
43.82,22.0,1.0,1.0,1.0
43.83,28.0,1.0,1.0,1.0
43.84,15.0,1.0,1.0,1.0
43.85,21.4944,1.0,1.0,1.0
43.86,24.0,1.0,1.0,1.0
43.87,16.5056,1.0,1.0,1.0
43.88,23.9889,1.0,1.0,1.0
43.89,12.0111,1.0,1.0,1.0
43.9,21.0,1.0,1.0,1.0
43.91,36.9889,1.0,1.0,1.0
43.92,30.0111,1.0,1.0,1.0
43.93,31.0,1.0,1.0,1.0
43.94,30.0,1.0,1.0,1.0
43.95,27.0,1.0,1.0,1.0
43.96,23.0,1.0,1.0,1.0
43.97,35.0,1.0,1.0,1.0
43.98,27.0,1.0,1.0,1.0
43.99,29.0,1.0,1.0,1.0
44.0,41.0,1.0,1.0,1.0
44.01,46.9667,1.0,1.0,1.0
44.02,33.5278,1.0,1.0,1.0
44.03,13.5056,1.0,1.0,1.0
44.04,29.4944,1.0,1.0,1.0
44.05,30.5056,1.0,1.0,1.0
44.06,26.4944,1.0,1.0,1.0
44.07,27.5056,1.0,1.0,1.0
44.08,42.4944,1.0,1.0,1.0
44.09,12.5056,1.0,1.0,1.0
44.1,22.0,1.0,1.0,1.0
44.11,34.0,1.0,1.0,1.0
44.12,23.0,1.0,1.0,1.0
44.13,17.0,1.0,1.0,1.0
44.14,12.0,1.0,1.0,1.0
44.15,22.0,1.0,1.0,1.0
44.16,22.0,1.0,1.0,1.0
44.17,20.9889,1.0,1.0,1.0
44.18,18.0111,1.0,1.0,1.0
44.19,9.0,1.0,1.0,1.0
44.2,36.0,1.0,1.0,1.0
44.21,16.0,1.0,1.0,1.0
44.22,22.0,1.0,1.0,1.0
44.23,17.0,1.0,1.0,1.0
44.24,20.0,1.0,1.0,1.0
44.25,15.0,1.0,1.0,1.0
44.26,16.0,1.0,1.0,1.0
44.27,24.4944,1.0,1.0,1.0
44.28,12.4944,1.0,1.0,1.0
44.29,24.0111,1.0,1.0,1.0
44.3,31.0,1.0,1.0,1.0
44.31,22.0,1.0,1.0,1.0
44.32,26.0,1.0,1.0,1.0
44.33,27.0,1.0,1.0,1.0
44.34,19.0,1.0,1.0,1.0
44.35,34.0,1.0,1.0,1.0
44.36,10.0,1.0,1.0,1.0
44.37,31.0,1.0,1.0,1.0
44.38,62.0,1.0,1.0,1.0
44.39,25.0,1.0,1.0,1.0
44.4,34.0,1.0,1.0,1.0
44.41,26.0,1.0,1.0,1.0
44.42,32.4944,1.0,1.0,1.0
44.43,49.5056,1.0,1.0,1.0
44.44,33.4833,1.0,1.0,1.0
44.45,23.5167,1.0,1.0,1.0
44.46,45.0,1.0,1.0,1.0
44.47,28.0,1.0,1.0,1.0
44.48,34.0,1.0,1.0,1.0
44.49,44.4944,1.0,1.0,1.0
44.5,30.4944,1.0,1.0,1.0
44.51,30.5056,1.0,1.0,1.0
44.52,46.0,1.0,1.0,1.0
44.53,40.5056,1.0,1.0,1.0
44.54,32.9778,1.0,1.0,1.0
44.55,38.5167,1.0,1.0,1.0
44.56,51.5056,1.0,1.0,1.0
44.57,35.4944,1.0,1.0,1.0
44.58,45.5056,1.0,1.0,1.0
44.59,37.4944,1.0,1.0,1.0
44.6,40.0,1.0,1.0,1.0
44.61,32.5056,1.0,1.0,1.0
44.62,44.9889,1.0,1.0,1.0
44.63,41.0111,1.0,1.0,1.0
44.64,55.4944,1.0,1.0,1.0
44.65,50.5056,1.0,1.0,1.0
44.66,61.9889,1.0,1.0,1.0
44.67,73.5056,1.0,1.0,1.0
44.68,58.4944,1.0,1.0,1.0
44.69,76.5056,1.0,1.0,1.0
44.7,63.5056,1.0,1.0,1.0
44.71,69.9889,1.0,1.0,1.0
44.72,57.0111,1.0,1.0,1.0
44.73,86.4944,1.0,1.0,1.0
44.74,78.0,1.0,1.0,1.0
44.75,73.0,1.0,1.0,1.0
44.76,75.9889,1.0,1.0,1.0
44.77,88.0111,1.0,1.0,1.0
44.78,82.4722,1.0,1.0,1.0
44.79,100.0333,1.0,1.0,1.0
44.8,79.9778,1.0,1.0,1.0
44.81,112.0111,1.0,1.0,1.0
44.82,125.4833,1.0,1.0,1.0
44.83,140.0222,1.0,1.0,1.0
44.84,123.5056,1.0,1.0,1.0
44.85,148.4722,1.0,1.0,1.0
44.86,162.4944,1.0,1.0,1.0
44.87,193.0,1.0,1.0,1.0
44.88,159.5278,1.0,1.0,1.0
44.89,176.4944,1.0,1.0,1.0
44.9,190.5056,1.0,1.0,1.0
44.91,197.4722,1.0,1.0,1.0
44.92,200.5056,1.0,1.0,1.0
44.93,228.0,1.0,1.0,1.0
44.94,241.9889,1.0,1.0,1.0
44.95,267.0,1.0,1.0,1.0
44.96,245.5167,1.0,1.0,1.0
44.97,275.9889,1.0,1.0,1.0
44.98,336.9778,1.0,1.0,1.0
44.99,355.0222,1.0,1.0,1.0
45.0,308.0111,1.0,1.0,1.0
45.01,367.0,1.0,1.0,1.0
45.02,373.9778,1.0,1.0,1.0
45.03,416.9667,1.0,1.0,1.0
45.04,461.0333,1.0,1.0,1.0
45.05,425.0222,1.0,1.0,1.0
45.06,471.0111,1.0,1.0,1.0
45.07,547.45,1.0,1.0,1.0
45.08,543.0111,1.0,1.0,1.0
45.09,533.4722,1.0,1.0,1.0
45.1,598.5278,1.0,1.0,1.0
45.11,540.9889,1.0,1.0,1.0
45.12,553.4944,1.0,1.0,1.0
45.13,550.0111,1.0,1.0,1.0
45.14,517.4833,1.0,1.0,1.0
45.15,544.5278,1.0,1.0,1.0
45.16,559.9556,1.0,1.0,1.0
45.17,559.5167,1.0,1.0,1.0
45.18,486.5056,1.0,1.0,1.0
45.19,540.0222,1.0,1.0,1.0
45.2,536.4944,1.0,1.0,1.0
45.21,527.4944,1.0,1.0,1.0
45.22,528.0,1.0,1.0,1.0
45.23,533.4944,1.0,1.0,1.0
45.24,524.0111,1.0,1.0,1.0
45.25,589.4944,1.0,1.0,1.0
45.26,540.0333,1.0,1.0,1.0
45.27,536.4722,1.0,1.0,1.0
45.28,521.9889,1.0,1.0,1.0
45.29,582.0222,1.0,1.0,1.0
45.3,560.4944,1.0,1.0,1.0
45.31,571.9222,1.0,1.0,1.0
45.32,593.5833,1.0,1.0,1.0
45.33,637.9889,1.0,1.0,1.0
45.34,722.9556,1.0,1.0,1.0
45.35,675.55,1.0,1.0,1.0
45.36,767.45,1.0,1.0,1.0
45.37,803.0,1.0,1.0,1.0
45.38,913.4611,1.0,1.0,1.0
45.39,998.5167,1.0,1.0,1.0
45.4,1054.46,1.0,1.0,1.0
45.41,1114.08,1.0,1.0,1.0
45.42,1179.92,1.0,1.0,1.0
45.43,1300.03,1.0,1.0,1.0
45.44,1266.96,1.0,1.0,1.0
45.45,1401.57,1.0,1.0,1.0
45.46,1405.94,1.0,1.0,1.0
45.47,1469.0,1.0,1.0,1.0
45.48,1470.02,1.0,1.0,1.0
45.49,1511.47,1.0,1.0,1.0
45.5,1562.45,1.0,1.0,1.0
45.51,1638.53,1.0,1.0,1.0
45.52,1644.51,1.0,1.0,1.0
45.53,1564.47,1.0,1.0,1.0
45.54,1693.49,1.0,1.0,1.0
45.55,1687.0,1.0,1.0,1.0
45.56,1818.53,1.0,1.0,1.0
45.57,1848.52,1.0,1.0,1.0
45.58,2058.97,1.0,1.0,1.0
45.59,1967.44,1.0,1.0,1.0
45.6,2033.99,1.0,1.0,1.0
45.61,2226.57,1.0,1.0,1.0
45.62,2399.46,1.0,1.0,1.0
45.63,2433.51,1.0,1.0,1.0
45.64,2568.92,1.0,1.0,1.0
45.65,2669.03,1.0,1.0,1.0
45.66,2728.439,1.0,1.0,1.0
45.67,2836.49,1.0,1.0,1.0
45.68,3015.93,1.0,1.0,1.0
45.69,3139.63,1.0,1.0,1.0
45.7,3077.49,1.0,1.0,1.0
45.71,3183.98,1.0,1.0,1.0
45.72,3238.439,1.0,1.0,1.0
45.73,3471.52,1.0,1.0,1.0
45.74,3472.46,1.0,1.0,1.0
45.75,3460.47,1.0,1.0,1.0
45.76,3478.97,1.0,1.0,1.0
45.77,3630.58,1.0,1.0,1.0
45.78,3793.84,1.0,1.0,1.0
45.79,3882.58,1.0,1.0,1.0
45.8,4096.41,1.0,1.0,1.0
45.81,4238.04,1.0,1.0,1.0
45.82,4531.58,1.0,1.0,1.0
45.83,4480.37,1.0,1.0,1.0
45.84,4676.54,1.0,1.0,1.0
45.85,4887.89,1.0,1.0,1.0
45.86,4929.03,1.0,1.0,1.0
45.87,4953.53,1.0,1.0,1.0
45.88,5047.99,1.0,1.0,1.0
45.89,5377.52,1.0,1.0,1.0
45.9,5186.1,1.0,1.0,1.0
45.91,5334.811,1.0,1.0,1.0
45.92,5484.52,1.0,1.0,1.0
45.93,5278.54,1.0,1.0,1.0
45.94,5253.54,1.0,1.0,1.0
45.95,5276.48,1.0,1.0,1.0
45.96,5423.41,1.0,1.0,1.0
45.97,5431.08,1.0,1.0,1.0
45.98,5398.9,1.0,1.0,1.0
45.99,5408.02,1.0,1.0,1.0
46.0,5461.0,1.0,1.0,1.0
46.01,5530.04,1.0,1.0,1.0
46.02,5441.45,1.0,1.0,1.0
46.03,5670.02,1.0,1.0,1.0
46.04,5614.0,1.0,1.0,1.0
46.05,5626.91,1.0,1.0,1.0
46.06,5694.09,1.0,1.0,1.0
46.07,5471.12,1.0,1.0,1.0
46.08,5454.43,1.0,1.0,1.0
46.09,5420.49,1.0,1.0,1.0
46.1,5209.98,1.0,1.0,1.0
46.11,5225.11,1.0,1.0,1.0
46.12,4882.47,1.0,1.0,1.0
46.13,4884.52,1.0,1.0,1.0
46.14,4782.07,1.0,1.0,1.0
46.15,4701.97,1.0,1.0,1.0
46.16,4471.98,1.0,1.0,1.0
46.17,4395.53,1.0,1.0,1.0
46.18,4309.96,1.0,1.0,1.0
46.19,4314.52,1.0,1.0,1.0
46.2,4204.58,1.0,1.0,1.0
46.21,4146.52,1.0,1.0,1.0
46.22,4276.61,1.0,1.0,1.0
46.23,4310.76,1.0,1.0,1.0
46.24,4132.66,1.0,1.0,1.0
46.25,4111.84,1.0,1.0,1.0
46.26,4043.46,1.0,1.0,1.0
46.27,4053.63,1.0,1.0,1.0
46.28,3905.53,1.0,1.0,1.0
46.29,3822.02,1.0,1.0,1.0
46.3,3685.53,1.0,1.0,1.0
46.31,3574.54,1.0,1.0,1.0
46.32,3324.93,1.0,1.0,1.0
46.33,3189.03,1.0,1.0,1.0
46.34,2829.02,1.0,1.0,1.0
46.35,2610.561,1.0,1.0,1.0
46.36,2385.98,1.0,1.0,1.0
46.37,2168.06,1.0,1.0,1.0
46.38,1951.91,1.0,1.0,1.0
46.39,1769.63,1.0,1.0,1.0
46.4,1522.53,1.0,1.0,1.0
46.41,1465.43,1.0,1.0,1.0
46.42,1363.59,1.0,1.0,1.0
46.43,1226.49,1.0,1.0,1.0
46.44,1246.01,1.0,1.0,1.0
46.45,1254.01,1.0,1.0,1.0
46.46,1178.99,1.0,1.0,1.0
46.47,1188.94,1.0,1.0,1.0
46.48,1244.56,1.0,1.0,1.0
46.49,1202.98,1.0,1.0,1.0
46.5,1272.99,1.0,1.0,1.0
46.51,1254.55,1.0,1.0,1.0
46.52,1212.47,1.0,1.0,1.0
46.53,1180.01,1.0,1.0,1.0
46.54,1088.01,1.0,1.0,1.0
46.55,1150.97,1.0,1.0,1.0
46.56,1063.53,1.0,1.0,1.0
46.57,1002.54,1.0,1.0,1.0
46.58,952.9667,1.0,1.0,1.0
46.59,948.9778,1.0,1.0,1.0
46.6,908.0333,1.0,1.0,1.0
46.61,894.9889,1.0,1.0,1.0
46.62,864.0222,1.0,1.0,1.0
46.63,969.0,1.0,1.0,1.0
46.64,1000.02,1.0,1.0,1.0
46.65,947.4611,1.0,1.0,1.0
46.66,1092.98,1.0,1.0,1.0
46.67,1135.53,1.0,1.0,1.0
46.68,1193.96,1.0,1.0,1.0
46.69,1227.52,1.0,1.0,1.0
46.7,1278.99,1.0,1.0,1.0
46.71,1360.53,1.0,1.0,1.0
46.72,1356.97,1.0,1.0,1.0
46.73,1443.02,1.0,1.0,1.0
46.74,1468.52,1.0,1.0,1.0
46.75,1409.91,1.0,1.0,1.0
46.76,1421.54,1.0,1.0,1.0
46.77,1453.48,1.0,1.0,1.0
46.78,1428.51,1.0,1.0,1.0
46.79,1455.02,1.0,1.0,1.0
46.8,1483.94,1.0,1.0,1.0
46.81,1554.06,1.0,1.0,1.0
46.82,1669.96,1.0,1.0,1.0
46.83,1744.52,1.0,1.0,1.0
46.84,1821.42,1.0,1.0,1.0
46.85,1888.53,1.0,1.0,1.0
46.86,2029.04,1.0,1.0,1.0
46.87,2104.87,1.0,1.0,1.0
46.88,2224.04,1.0,1.0,1.0
46.89,2231.49,1.0,1.0,1.0
46.9,2400.96,1.0,1.0,1.0
46.91,2522.48,1.0,1.0,1.0
46.92,2585.53,1.0,1.0,1.0
46.93,2625.49,1.0,1.0,1.0
46.94,2590.1,1.0,1.0,1.0
46.95,2541.91,1.0,1.0,1.0
46.96,2528.58,1.0,1.0,1.0
46.97,2573.01,1.0,1.0,1.0
46.98,2405.45,1.0,1.0,1.0
46.99,2405.439,1.0,1.0,1.0
47.0,2140.61,1.0,1.0,1.0
47.01,1983.46,1.0,1.0,1.0
47.02,1936.56,1.0,1.0,1.0
47.03,1789.92,1.0,1.0,1.0
47.04,1596.65,1.0,1.0,1.0
47.05,1445.99,1.0,1.0,1.0
47.06,1303.03,1.0,1.0,1.0
47.07,1182.47,1.0,1.0,1.0
47.08,1057.06,1.0,1.0,1.0
47.09,940.4833,1.0,1.0,1.0
47.1,848.4722,1.0,1.0,1.0
47.11,777.5611,1.0,1.0,1.0
47.12,672.9889,1.0,1.0,1.0
47.13,638.4722,1.0,1.0,1.0
47.14,664.0444,1.0,1.0,1.0
47.15,665.4389,1.0,1.0,1.0
47.16,665.5278,1.0,1.0,1.0
47.17,686.5056,1.0,1.0,1.0
47.18,706.4833,1.0,1.0,1.0
47.19,713.0,1.0,1.0,1.0
47.2,700.5278,1.0,1.0,1.0
47.21,668.5056,1.0,1.0,1.0
47.22,681.0,1.0,1.0,1.0
47.23,686.0,1.0,1.0,1.0
47.24,725.5056,1.0,1.0,1.0
47.25,697.9667,1.0,1.0,1.0
47.26,676.5389,1.0,1.0,1.0
47.27,673.0,1.0,1.0,1.0
47.28,612.0111,1.0,1.0,1.0
47.29,625.4722,1.0,1.0,1.0
47.3,612.5056,1.0,1.0,1.0
47.31,588.0,1.0,1.0,1.0
47.32,586.4944,1.0,1.0,1.0
47.33,585.5056,1.0,1.0,1.0
47.34,572.9667,1.0,1.0,1.0
47.35,586.0333,1.0,1.0,1.0
47.36,539.0,1.0,1.0,1.0
47.37,599.5167,1.0,1.0,1.0
47.38,587.9667,1.0,1.0,1.0
47.39,604.0222,1.0,1.0,1.0
47.4,675.0111,1.0,1.0,1.0
47.41,643.4833,1.0,1.0,1.0
47.42,674.4611,1.0,1.0,1.0
47.43,673.0444,1.0,1.0,1.0
47.44,653.9778,1.0,1.0,1.0
47.45,708.0,1.0,1.0,1.0
47.46,681.5056,1.0,1.0,1.0
47.47,706.5167,1.0,1.0,1.0
47.48,680.9889,1.0,1.0,1.0
47.49,756.9778,1.0,1.0,1.0
47.5,751.0111,1.0,1.0,1.0
47.51,780.9889,1.0,1.0,1.0
47.52,785.0333,1.0,1.0,1.0
47.53,831.45,1.0,1.0,1.0
47.54,853.9889,1.0,1.0,1.0
47.55,834.55,1.0,1.0,1.0
47.56,848.9556,1.0,1.0,1.0
47.57,868.5389,1.0,1.0,1.0
47.58,908.0,1.0,1.0,1.0
47.59,982.9222,1.0,1.0,1.0
47.6,1067.01,1.0,1.0,1.0
47.61,1088.02,1.0,1.0,1.0
47.62,1201.0,1.0,1.0,1.0
47.63,1241.47,1.0,1.0,1.0
47.64,1239.48,1.0,1.0,1.0
47.65,1285.98,1.0,1.0,1.0
47.66,1325.55,1.0,1.0,1.0
47.67,1393.01,1.0,1.0,1.0
47.68,1509.43,1.0,1.0,1.0
47.69,1534.48,1.0,1.0,1.0
47.7,1679.49,1.0,1.0,1.0
47.71,1678.04,1.0,1.0,1.0
47.72,1894.45,1.0,1.0,1.0
47.73,2068.94,1.0,1.0,1.0
47.74,2198.97,1.0,1.0,1.0
47.75,2432.52,1.0,1.0,1.0
47.76,2632.439,1.0,1.0,1.0
47.77,2843.561,1.0,1.0,1.0
47.78,3265.41,1.0,1.0,1.0
47.79,3556.54,1.0,1.0,1.0
47.8,4077.9,1.0,1.0,1.0
47.81,4550.43,1.0,1.0,1.0
47.82,5173.86,1.0,1.0,1.0
47.83,5775.06,1.0,1.0,1.0
47.84,6662.9,1.0,1.0,1.0
47.85,7858.29,1.0,1.0,1.0
47.86,9363.33,1.0,1.0,1.0
47.87,11460.8,1.0,1.0,1.0
47.88,14113.2,1.0,1.0,1.0
47.89,17996.3,1.0,1.0,1.0
47.9,23730.4,1.0,1.0,1.0
47.91,32203.8,1.0,1.0,1.0
47.92,44004.7,1.0,1.0,1.0
47.93,64562.2,1.0,1.0,1.0
47.94,98928,1.0,1.0,1.0
47.95,160091,1.0,1.0,1.0
47.96,300892,1.0,1.0,1.0
47.97,1144438.875,1.0,1.0,1.0
47.98,4742827.0,1.0,1.0,1.0
47.99,7818812.0,1.0,1.0,1.0
48.0,8725462.0,1.0,1.0,1.0
48.01,4091711.25,1.0,1.0,1.0
48.02,1614303.125,1.0,1.0,1.0
48.03,1194980.625,1.0,1.0,1.0
48.04,540877.125,1.0,1.0,1.0
48.05,273057,1.0,1.0,1.0
48.06,187364,1.0,1.0,1.0
48.07,260249,1.0,1.0,1.0
48.08,120145,1.0,1.0,1.0
48.09,31985.6,1.0,1.0,1.0
48.1,16226.8,1.0,1.0,1.0
48.11,11268.3,1.0,1.0,1.0
48.12,8572.66,1.0,1.0,1.0
48.13,6626.24,1.0,1.0,1.0
48.14,5514.08,1.0,1.0,1.0
48.15,4663.02,1.0,1.0,1.0
48.16,3937.54,1.0,1.0,1.0
48.17,3299.1,1.0,1.0,1.0
48.18,2813.07,1.0,1.0,1.0
48.19,2577.97,1.0,1.0,1.0
48.2,2331.62,1.0,1.0,1.0
48.21,2086.96,1.0,1.0,1.0
48.22,1783.49,1.0,1.0,1.0
48.23,1720.56,1.0,1.0,1.0
48.24,1451.01,1.0,1.0,1.0
48.25,1407.01,1.0,1.0,1.0
48.26,1219.04,1.0,1.0,1.0
48.27,1197.02,1.0,1.0,1.0
48.28,1134.98,1.0,1.0,1.0
48.29,990.0222,1.0,1.0,1.0
48.3,894.0333,1.0,1.0,1.0
48.31,840.45,1.0,1.0,1.0
48.32,727.0778,1.0,1.0,1.0
48.33,725.4611,1.0,1.0,1.0
48.34,691.4722,1.0,1.0,1.0
48.35,583.0667,1.0,1.0,1.0
48.36,578.5167,1.0,1.0,1.0
48.37,530.4944,1.0,1.0,1.0
48.38,521.4389,1.0,1.0,1.0
48.39,496.55,1.0,1.0,1.0
48.4,488.0,1.0,1.0,1.0
48.41,474.5056,1.0,1.0,1.0
48.42,398.4944,1.0,1.0,1.0
48.43,399.0,1.0,1.0,1.0
48.44,363.0333,1.0,1.0,1.0
48.45,407.4833,1.0,1.0,1.0
48.46,372.5167,1.0,1.0,1.0
48.47,322.4611,1.0,1.0,1.0
48.48,332.5167,1.0,1.0,1.0
48.49,365.5056,1.0,1.0,1.0
48.5,312.5167,1.0,1.0,1.0
48.51,302.4722,1.0,1.0,1.0
48.52,295.0222,1.0,1.0,1.0
48.53,283.9778,1.0,1.0,1.0
48.54,261.5167,1.0,1.0,1.0
48.55,259.4944,1.0,1.0,1.0
48.56,242.0,1.0,1.0,1.0
48.57,246.5278,1.0,1.0,1.0
48.58,205.4722,1.0,1.0,1.0
48.59,236.5056,1.0,1.0,1.0
48.6,219.0111,1.0,1.0,1.0
48.61,188.0,1.0,1.0,1.0
48.62,206.9667,1.0,1.0,1.0
48.63,185.5278,1.0,1.0,1.0
48.64,218.5056,1.0,1.0,1.0
48.65,226.4944,1.0,1.0,1.0
48.66,213.0,1.0,1.0,1.0
48.67,191.0,1.0,1.0,1.0
48.68,186.5167,1.0,1.0,1.0
48.69,178.4833,1.0,1.0,1.0
48.7,218.0222,1.0,1.0,1.0
48.71,178.4833,1.0,1.0,1.0
48.72,206.0,1.0,1.0,1.0
48.73,176.5056,1.0,1.0,1.0
48.74,173.0111,1.0,1.0,1.0
48.75,167.9889,1.0,1.0,1.0
48.76,187.5056,1.0,1.0,1.0
48.77,169.4722,1.0,1.0,1.0
48.78,177.0222,1.0,1.0,1.0
48.79,142.5056,1.0,1.0,1.0
48.8,138.0111,1.0,1.0,1.0
48.81,134.4833,1.0,1.0,1.0
48.82,125.0,1.0,1.0,1.0
48.83,122.0,1.0,1.0,1.0
48.84,108.0111,1.0,1.0,1.0
48.85,106.9889,1.0,1.0,1.0
48.86,94.5167,1.0,1.0,1.0
48.87,88.9889,1.0,1.0,1.0
48.88,96.5056,1.0,1.0,1.0
48.89,48.0,1.0,1.0,1.0
48.9,60.5056,1.0,1.0,1.0
48.91,42.4944,1.0,1.0,1.0
48.92,43.5056,1.0,1.0,1.0
48.93,55.0,1.0,1.0,1.0
48.94,41.4944,1.0,1.0,1.0
48.95,37.0,1.0,1.0,1.0
48.96,48.5056,1.0,1.0,1.0
48.97,40.9889,1.0,1.0,1.0
48.98,47.0111,1.0,1.0,1.0
48.99,18.0,1.0,1.0,1.0
49.0,27.0,1.0,1.0,1.0
49.01,28.0,1.0,1.0,1.0
49.02,23.0,1.0,1.0,1.0
49.03,32.4944,1.0,1.0,1.0
49.04,23.5056,1.0,1.0,1.0
49.05,34.0,1.0,1.0,1.0
49.06,32.0,1.0,1.0,1.0
49.07,30.4944,1.0,1.0,1.0
49.08,36.5056,1.0,1.0,1.0
49.09,39.0,1.0,1.0,1.0
49.1,32.4833,1.0,1.0,1.0
49.11,39.5167,1.0,1.0,1.0
49.12,24.0,1.0,1.0,1.0
49.13,23.0,1.0,1.0,1.0
49.14,20.0,1.0,1.0,1.0
49.15,34.4944,1.0,1.0,1.0
49.16,26.5056,1.0,1.0,1.0
49.17,19.0,1.0,1.0,1.0
49.18,34.4944,1.0,1.0,1.0
49.19,25.9889,1.0,1.0,1.0
49.2,17.5167,1.0,1.0,1.0
49.21,28.4944,1.0,1.0,1.0
49.22,21.0,1.0,1.0,1.0
49.23,32.5056,1.0,1.0,1.0
49.24,31.4944,1.0,1.0,1.0
49.25,16.5056,1.0,1.0,1.0
49.26,13.0,1.0,1.0,1.0
49.27,23.0,1.0,1.0,1.0
49.28,36.9889,1.0,1.0,1.0
49.29,22.4944,1.0,1.0,1.0
49.3,20.0111,1.0,1.0,1.0
49.31,28.0,1.0,1.0,1.0
49.32,15.5056,1.0,1.0,1.0
49.33,21.9889,1.0,1.0,1.0
49.34,20.5056,1.0,1.0,1.0
49.35,13.5056,1.0,1.0,1.0
49.36,19.0,1.0,1.0,1.0
49.37,27.0,1.0,1.0,1.0
49.38,18.9889,1.0,1.0,1.0
49.39,23.5056,1.0,1.0,1.0
49.4,24.5056,1.0,1.0,1.0
49.41,19.0,1.0,1.0,1.0
49.42,23.9889,1.0,1.0,1.0
49.43,34.0111,1.0,1.0,1.0
49.44,17.0,1.0,1.0,1.0
49.45,17.0,1.0,1.0,1.0
49.46,14.0,1.0,1.0,1.0
49.47,31.4944,1.0,1.0,1.0
49.48,25.5056,1.0,1.0,1.0
49.49,23.0,1.0,1.0,1.0
49.5,13.4944,1.0,1.0,1.0
49.51,22.5056,1.0,1.0,1.0
49.52,15.4944,1.0,1.0,1.0
49.53,17.0,1.0,1.0,1.0
49.54,17.0,1.0,1.0,1.0
49.55,33.5056,1.0,1.0,1.0
49.56,19.9889,1.0,1.0,1.0
49.57,38.0111,1.0,1.0,1.0
49.58,19.9889,1.0,1.0,1.0
49.59,28.0111,1.0,1.0,1.0
49.6,20.4944,1.0,1.0,1.0
49.61,22.5056,1.0,1.0,1.0
49.62,18.4944,1.0,1.0,1.0
49.63,24.0,1.0,1.0,1.0
49.64,25.0,1.0,1.0,1.0
49.65,25.5056,1.0,1.0,1.0
49.66,31.0,1.0,1.0,1.0
49.67,10.0,1.0,1.0,1.0
49.68,19.0,1.0,1.0,1.0
49.69,6.0,1.0,1.0,1.0
49.7,19.0,1.0,1.0,1.0
49.71,21.0,1.0,1.0,1.0
49.72,14.4944,1.0,1.0,1.0
49.73,22.5056,1.0,1.0,1.0
49.74,14.0,1.0,1.0,1.0
49.75,16.0,1.0,1.0,1.0
49.76,20.4944,1.0,1.0,1.0
49.77,24.5056,1.0,1.0,1.0
49.78,11.0,1.0,1.0,1.0
49.79,12.0,1.0,1.0,1.0
49.8,11.0,1.0,1.0,1.0
49.81,12.9889,1.0,1.0,1.0
49.82,9.0111,1.0,1.0,1.0
49.83,8.0,1.0,1.0,1.0
49.84,13.0,1.0,1.0,1.0
49.85,5.0,1.0,1.0,1.0
49.86,13.0,1.0,1.0,1.0
49.87,8.0,1.0,1.0,1.0
49.88,9.4944,1.0,1.0,1.0
49.89,13.5056,1.0,1.0,1.0
49.9,10.0,1.0,1.0,1.0
49.91,11.0,1.0,1.0,1.0
49.92,23.4944,1.0,1.0,1.0
49.93,13.5056,1.0,1.0,1.0
49.94,10.4944,1.0,1.0,1.0
49.95,7.0,1.0,1.0,1.0
49.96,15.0,1.0,1.0,1.0
49.97,22.5056,1.0,1.0,1.0
49.98,13.0,1.0,1.0,1.0
49.99,14.0,1.0,1.0,1.0
50.0,13.4944,1.0,1.0,1.0
50.01,14.5056,1.0,1.0,1.0
50.02,15.0,1.0,1.0,1.0
50.03,5.0,1.0,1.0,1.0
50.04,18.4944,1.0,1.0,1.0
50.05,11.5056,1.0,1.0,1.0
50.06,10.0,1.0,1.0,1.0
50.07,8.0,1.0,1.0,1.0
50.08,4.0,1.0,1.0,1.0
50.09,11.0,1.0,1.0,1.0
50.1,18.0,1.0,1.0,1.0
50.11,14.4944,1.0,1.0,1.0
50.12,14.5056,1.0,1.0,1.0
50.13,4.0,1.0,1.0,1.0
50.14,8.0,1.0,1.0,1.0
50.15,15.4944,1.0,1.0,1.0
50.16,8.0,1.0,1.0,1.0
50.17,15.0,1.0,1.0,1.0
50.18,6.5056,1.0,1.0,1.0
50.19,10.4944,1.0,1.0,1.0
50.2,15.5056,1.0,1.0,1.0
50.21,19.0,1.0,1.0,1.0
50.22,10.4944,1.0,1.0,1.0
50.23,7.5056,1.0,1.0,1.0
50.24,5.0,1.0,1.0,1.0
50.25,5.0,1.0,1.0,1.0
50.26,5.0,1.0,1.0,1.0
50.27,8.0,1.0,1.0,1.0
50.28,21.0,1.0,1.0,1.0
50.29,9.0,1.0,1.0,1.0
50.3,5.0,1.0,1.0,1.0
50.31,14.0,1.0,1.0,1.0
50.32,6.0,1.0,1.0,1.0
50.33,7.0,1.0,1.0,1.0
50.34,12.0,1.0,1.0,1.0
50.35,2.0,1.0,1.0,1.0
50.36,14.0,1.0,1.0,1.0
50.37,6.0,1.0,1.0,1.0
50.38,16.0,1.0,1.0,1.0
50.39,6.9889,1.0,1.0,1.0
50.4,10.0111,1.0,1.0,1.0
50.41,8.0,1.0,1.0,1.0
50.42,25.0,1.0,1.0,1.0
50.43,17.4944,1.0,1.0,1.0
50.44,19.0,1.0,1.0,1.0
50.45,7.5056,1.0,1.0,1.0
50.46,14.0,1.0,1.0,1.0
50.47,12.0,1.0,1.0,1.0
50.48,9.0,1.0,1.0,1.0
50.49,19.0,1.0,1.0,1.0
50.5,6.0,1.0,1.0,1.0
50.51,10.0,1.0,1.0,1.0
50.52,8.0,1.0,1.0,1.0
50.53,2.0,1.0,1.0,1.0
50.54,8.0,1.0,1.0,1.0
50.55,13.0,1.0,1.0,1.0
50.56,10.0,1.0,1.0,1.0
50.57,8.0,1.0,1.0,1.0
50.58,9.0,1.0,1.0,1.0
50.59,15.0,1.0,1.0,1.0
50.6,18.0,1.0,1.0,1.0
50.61,7.9889,1.0,1.0,1.0
50.62,9.5056,1.0,1.0,1.0
50.63,24.5056,1.0,1.0,1.0
50.64,10.4944,1.0,1.0,1.0
50.65,25.5056,1.0,1.0,1.0
50.66,8.4944,1.0,1.0,1.0
50.67,12.5056,1.0,1.0,1.0
50.68,7.0,1.0,1.0,1.0
50.69,10.9889,1.0,1.0,1.0
50.7,8.5056,1.0,1.0,1.0
50.71,13.5056,1.0,1.0,1.0
50.72,6.0,1.0,1.0,1.0
50.73,19.4944,1.0,1.0,1.0
50.74,16.5056,1.0,1.0,1.0
50.75,16.0,1.0,1.0,1.0
50.76,16.0,1.0,1.0,1.0
50.77,19.0,1.0,1.0,1.0
50.78,17.9889,1.0,1.0,1.0
50.79,6.0111,1.0,1.0,1.0
50.8,15.0,1.0,1.0,1.0
50.81,12.0,1.0,1.0,1.0
50.82,17.0,1.0,1.0,1.0
50.83,13.0,1.0,1.0,1.0
50.84,7.4944,1.0,1.0,1.0
50.85,10.5056,1.0,1.0,1.0
50.86,12.0,1.0,1.0,1.0
50.87,12.0,1.0,1.0,1.0
50.88,12.4944,1.0,1.0,1.0
50.89,20.5056,1.0,1.0,1.0
50.9,13.4944,1.0,1.0,1.0
50.91,11.4944,1.0,1.0,1.0
50.92,22.0111,1.0,1.0,1.0
50.93,3.0,1.0,1.0,1.0
50.94,13.0,1.0,1.0,1.0
50.95,14.4944,1.0,1.0,1.0
50.96,15.5056,1.0,1.0,1.0
50.97,13.0,1.0,1.0,1.0
50.98,15.0,1.0,1.0,1.0
50.99,9.0,1.0,1.0,1.0
51.0,14.0,1.0,1.0,1.0
51.01,8.0,1.0,1.0,1.0
51.02,11.9889,1.0,1.0,1.0
51.03,16.0111,1.0,1.0,1.0
51.04,13.0,1.0,1.0,1.0
51.05,4.0,1.0,1.0,1.0
51.06,7.0,1.0,1.0,1.0
51.07,8.0,1.0,1.0,1.0
51.08,13.0,1.0,1.0,1.0
51.09,15.0,1.0,1.0,1.0
51.1,23.0,1.0,1.0,1.0
51.11,14.0,1.0,1.0,1.0
51.12,10.0,1.0,1.0,1.0
51.13,17.0,1.0,1.0,1.0
51.14,11.9889,1.0,1.0,1.0
51.15,3.0111,1.0,1.0,1.0
51.16,20.0,1.0,1.0,1.0
51.17,6.0,1.0,1.0,1.0
51.18,6.0,1.0,1.0,1.0
51.19,16.0,1.0,1.0,1.0
51.2,10.0,1.0,1.0,1.0
51.21,2.0,1.0,1.0,1.0
51.22,13.0,1.0,1.0,1.0
51.23,9.0,1.0,1.0,1.0
51.24,7.4944,1.0,1.0,1.0
51.25,6.5056,1.0,1.0,1.0
51.26,8.4944,1.0,1.0,1.0
51.27,9.5056,1.0,1.0,1.0
51.28,12.0,1.0,1.0,1.0
51.29,11.0,1.0,1.0,1.0
51.3,10.9889,1.0,1.0,1.0
51.31,4.0111,1.0,1.0,1.0
51.32,7.0,1.0,1.0,1.0
51.33,9.0,1.0,1.0,1.0
51.34,5.9889,1.0,1.0,1.0
51.35,17.0111,1.0,1.0,1.0
51.36,15.0,1.0,1.0,1.0
51.37,4.0,1.0,1.0,1.0
51.38,9.0,1.0,1.0,1.0
51.39,5.0,1.0,1.0,1.0
51.4,2.0,1.0,1.0,1.0
51.41,10.0,1.0,1.0,1.0
51.42,9.0,1.0,1.0,1.0
51.43,16.4944,1.0,1.0,1.0
51.44,10.5056,1.0,1.0,1.0
51.45,3.0,1.0,1.0,1.0
51.46,3.0,1.0,1.0,1.0
51.47,16.0,1.0,1.0,1.0
51.48,3.0,1.0,1.0,1.0
51.49,2.0,1.0,1.0,1.0
51.5,11.4944,1.0,1.0,1.0
51.51,6.0,1.0,1.0,1.0
51.52,8.5056,1.0,1.0,1.0
51.53,15.0,1.0,1.0,1.0
51.54,7.0,1.0,1.0,1.0
51.55,13.4944,1.0,1.0,1.0
51.56,7.5056,1.0,1.0,1.0
51.57,6.0,1.0,1.0,1.0
51.58,7.0,1.0,1.0,1.0
51.59,8.0,1.0,1.0,1.0
51.6,12.0,1.0,1.0,1.0
51.61,1.0,1.0,1.0,1.0
51.62,5.4944,1.0,1.0,1.0
51.63,6.5056,1.0,1.0,1.0
51.64,7.0,1.0,1.0,1.0
51.65,11.0,1.0,1.0,1.0
51.66,4.4944,1.0,1.0,1.0
51.67,5.5056,1.0,1.0,1.0
51.68,9.0,1.0,1.0,1.0
51.69,6.0,1.0,1.0,1.0
51.7,4.0,1.0,1.0,1.0
51.71,14.0,1.0,1.0,1.0
51.72,9.0,1.0,1.0,1.0
51.73,12.0,1.0,1.0,1.0
51.74,36.0,1.0,1.0,1.0
51.75,11.0,1.0,1.0,1.0
51.76,2.0,1.0,1.0,1.0
51.77,5.0,1.0,1.0,1.0
51.78,6.0,1.0,1.0,1.0
51.79,8.0,1.0,1.0,1.0
51.8,6.4944,1.0,1.0,1.0
51.81,6.5056,1.0,1.0,1.0
51.82,10.0,1.0,1.0,1.0
51.83,0.0,1.0,1.0,1.0
51.84,6.0,1.0,1.0,1.0
51.85,4.0,1.0,1.0,1.0
51.86,8.0,1.0,1.0,1.0
51.87,7.0,1.0,1.0,1.0
51.88,8.4944,1.0,1.0,1.0
51.89,4.5056,1.0,1.0,1.0
51.9,9.0,1.0,1.0,1.0
51.91,1.0,1.0,1.0,1.0
51.92,3.0,1.0,1.0,1.0
51.93,6.0,1.0,1.0,1.0
51.94,3.0,1.0,1.0,1.0
51.95,4.0,1.0,1.0,1.0
51.96,5.0,1.0,1.0,1.0
51.97,6.4944,1.0,1.0,1.0
51.98,10.0,1.0,1.0,1.0
51.99,10.5056,1.0,1.0,1.0
52.0,4.0,1.0,1.0,1.0