File: XRD:XRR/22148b_LCOL_XRD.csv
#twotheta, yobs, ycal, bkg, diff
42.0,17.4944,1.0,1.0,1.0
42.01,10.5056,1.0,1.0,1.0
42.02,11.4944,1.0,1.0,1.0
42.03,6.5056,1.0,1.0,1.0
42.04,13.0,1.0,1.0,1.0
42.05,18.4944,1.0,1.0,1.0
42.06,12.5056,1.0,1.0,1.0
42.07,15.4944,1.0,1.0,1.0
42.08,14.5056,1.0,1.0,1.0
42.09,17.4944,1.0,1.0,1.0
42.1,23.5056,1.0,1.0,1.0
42.11,5.0,1.0,1.0,1.0
42.12,11.0,1.0,1.0,1.0
42.13,12.0,1.0,1.0,1.0
42.14,14.0,1.0,1.0,1.0
42.15,11.0,1.0,1.0,1.0
42.16,16.0,1.0,1.0,1.0
42.17,22.4944,1.0,1.0,1.0
42.18,17.5056,1.0,1.0,1.0
42.19,18.0,1.0,1.0,1.0
42.2,8.0,1.0,1.0,1.0
42.21,18.0,1.0,1.0,1.0
42.22,9.0,1.0,1.0,1.0
42.23,21.0,1.0,1.0,1.0
42.24,15.0,1.0,1.0,1.0
42.25,17.0,1.0,1.0,1.0
42.26,7.0,1.0,1.0,1.0
42.27,17.0,1.0,1.0,1.0
42.28,5.4944,1.0,1.0,1.0
42.29,5.5056,1.0,1.0,1.0
42.3,24.0,1.0,1.0,1.0
42.31,15.0,1.0,1.0,1.0
42.32,27.0,1.0,1.0,1.0
42.33,24.0,1.0,1.0,1.0
42.34,11.0,1.0,1.0,1.0
42.35,23.0,1.0,1.0,1.0
42.36,25.0,1.0,1.0,1.0
42.37,30.0,1.0,1.0,1.0
42.38,9.0,1.0,1.0,1.0
42.39,28.0,1.0,1.0,1.0
42.4,17.0,1.0,1.0,1.0
42.41,18.4944,1.0,1.0,1.0
42.42,24.0,1.0,1.0,1.0
42.43,23.5056,1.0,1.0,1.0
42.44,23.4944,1.0,1.0,1.0
42.45,18.5056,1.0,1.0,1.0
42.46,22.9889,1.0,1.0,1.0
42.47,24.0,1.0,1.0,1.0
42.48,29.5056,1.0,1.0,1.0
42.49,26.0,1.0,1.0,1.0
42.5,30.4944,1.0,1.0,1.0
42.51,24.0111,1.0,1.0,1.0
42.52,17.9889,1.0,1.0,1.0
42.53,27.5056,1.0,1.0,1.0
42.54,16.5056,1.0,1.0,1.0
42.55,29.0,1.0,1.0,1.0
42.56,13.4944,1.0,1.0,1.0
42.57,15.0,1.0,1.0,1.0
42.58,18.5056,1.0,1.0,1.0
42.59,23.0,1.0,1.0,1.0
42.6,28.0,1.0,1.0,1.0
42.61,30.0,1.0,1.0,1.0
42.62,11.4944,1.0,1.0,1.0
42.63,26.5056,1.0,1.0,1.0
42.64,24.0,1.0,1.0,1.0
42.65,9.0,1.0,1.0,1.0
42.66,10.4944,1.0,1.0,1.0
42.67,18.0,1.0,1.0,1.0
42.68,26.0,1.0,1.0,1.0
42.69,31.5056,1.0,1.0,1.0
42.7,11.4944,1.0,1.0,1.0
42.71,14.5056,1.0,1.0,1.0
42.72,22.0,1.0,1.0,1.0
42.73,16.0,1.0,1.0,1.0
42.74,6.0,1.0,1.0,1.0
42.75,14.0,1.0,1.0,1.0
42.76,20.0,1.0,1.0,1.0
42.77,12.0,1.0,1.0,1.0
42.78,14.0,1.0,1.0,1.0
42.79,24.0,1.0,1.0,1.0
42.8,11.9889,1.0,1.0,1.0
42.81,26.0111,1.0,1.0,1.0
42.82,9.0,1.0,1.0,1.0
42.83,21.0,1.0,1.0,1.0
42.84,19.0,1.0,1.0,1.0
42.85,24.0,1.0,1.0,1.0
42.86,12.0,1.0,1.0,1.0
42.87,14.9889,1.0,1.0,1.0
42.88,15.0111,1.0,1.0,1.0
42.89,17.0,1.0,1.0,1.0
42.9,19.0,1.0,1.0,1.0
42.91,10.4944,1.0,1.0,1.0
42.92,14.0,1.0,1.0,1.0
42.93,23.0,1.0,1.0,1.0
42.94,15.5056,1.0,1.0,1.0
42.95,16.0,1.0,1.0,1.0
42.96,12.0,1.0,1.0,1.0
42.97,0.0,1.0,1.0,1.0
42.98,10.4944,1.0,1.0,1.0
42.99,7.0,1.0,1.0,1.0
43.0,21.5056,1.0,1.0,1.0
43.01,15.0,1.0,1.0,1.0
43.02,18.0,1.0,1.0,1.0
43.03,12.0,1.0,1.0,1.0
43.04,15.0,1.0,1.0,1.0
43.05,23.9889,1.0,1.0,1.0
43.06,16.0111,1.0,1.0,1.0
43.07,22.9778,1.0,1.0,1.0
43.08,20.0222,1.0,1.0,1.0
43.09,7.0,1.0,1.0,1.0
43.1,9.0,1.0,1.0,1.0
43.11,20.4944,1.0,1.0,1.0
43.12,12.5056,1.0,1.0,1.0
43.13,19.0,1.0,1.0,1.0
43.14,23.0,1.0,1.0,1.0
43.15,23.4944,1.0,1.0,1.0
43.16,30.0,1.0,1.0,1.0
43.17,22.5056,1.0,1.0,1.0
43.18,17.0,1.0,1.0,1.0
43.19,20.9889,1.0,1.0,1.0
43.2,36.0111,1.0,1.0,1.0
43.21,23.0,1.0,1.0,1.0
43.22,8.0,1.0,1.0,1.0
43.23,29.0,1.0,1.0,1.0
43.24,29.0,1.0,1.0,1.0
43.25,66.0,1.0,1.0,1.0
43.26,45.4944,1.0,1.0,1.0
43.27,23.0,1.0,1.0,1.0
43.28,17.4944,1.0,1.0,1.0
43.29,34.0111,1.0,1.0,1.0
43.3,40.0,1.0,1.0,1.0
43.31,30.0,1.0,1.0,1.0
43.32,33.9889,1.0,1.0,1.0
43.33,52.0111,1.0,1.0,1.0
43.34,42.9889,1.0,1.0,1.0
43.35,42.0111,1.0,1.0,1.0
43.36,35.9889,1.0,1.0,1.0
43.37,51.4944,1.0,1.0,1.0
43.38,45.5167,1.0,1.0,1.0
43.39,43.0,1.0,1.0,1.0
43.4,56.4944,1.0,1.0,1.0
43.41,43.9889,1.0,1.0,1.0
43.42,44.0111,1.0,1.0,1.0
43.43,40.0,1.0,1.0,1.0
43.44,41.5056,1.0,1.0,1.0
43.45,43.9889,1.0,1.0,1.0
43.46,51.0111,1.0,1.0,1.0
43.47,48.0,1.0,1.0,1.0
43.48,33.4944,1.0,1.0,1.0
43.49,43.5056,1.0,1.0,1.0
43.5,46.0,1.0,1.0,1.0
43.51,27.0,1.0,1.0,1.0
43.52,44.9889,1.0,1.0,1.0
43.53,31.0,1.0,1.0,1.0
43.54,36.4944,1.0,1.0,1.0
43.55,42.5167,1.0,1.0,1.0
43.56,42.0,1.0,1.0,1.0
43.57,43.0,1.0,1.0,1.0
43.58,53.0,1.0,1.0,1.0
43.59,30.0,1.0,1.0,1.0
43.6,27.9889,1.0,1.0,1.0
43.61,42.0,1.0,1.0,1.0
43.62,54.0111,1.0,1.0,1.0
43.63,31.4944,1.0,1.0,1.0
43.64,42.0,1.0,1.0,1.0
43.65,46.5056,1.0,1.0,1.0
43.66,37.9889,1.0,1.0,1.0
43.67,43.0111,1.0,1.0,1.0
43.68,26.4944,1.0,1.0,1.0
43.69,29.5056,1.0,1.0,1.0
43.7,36.4944,1.0,1.0,1.0
43.71,30.4833,1.0,1.0,1.0
43.72,32.0222,1.0,1.0,1.0
43.73,30.0,1.0,1.0,1.0
43.74,59.4944,1.0,1.0,1.0
43.75,24.5056,1.0,1.0,1.0
43.76,39.4944,1.0,1.0,1.0
43.77,44.4944,1.0,1.0,1.0
43.78,30.0111,1.0,1.0,1.0
43.79,28.4944,1.0,1.0,1.0
43.8,27.5056,1.0,1.0,1.0
43.81,33.9889,1.0,1.0,1.0
43.82,31.0,1.0,1.0,1.0
43.83,30.5056,1.0,1.0,1.0
43.84,22.0,1.0,1.0,1.0
43.85,26.0,1.0,1.0,1.0
43.86,17.0,1.0,1.0,1.0
43.87,30.5056,1.0,1.0,1.0
43.88,25.4944,1.0,1.0,1.0
43.89,32.5056,1.0,1.0,1.0
43.9,8.0,1.0,1.0,1.0
43.91,26.4944,1.0,1.0,1.0
43.92,24.5056,1.0,1.0,1.0
43.93,27.9889,1.0,1.0,1.0
43.94,20.0111,1.0,1.0,1.0
43.95,20.4944,1.0,1.0,1.0
43.96,20.4944,1.0,1.0,1.0
43.97,40.0111,1.0,1.0,1.0
43.98,24.0,1.0,1.0,1.0
43.99,30.0,1.0,1.0,1.0
44.0,31.0,1.0,1.0,1.0
44.01,18.0,1.0,1.0,1.0
44.02,30.0,1.0,1.0,1.0
44.03,33.0,1.0,1.0,1.0
44.04,43.4944,1.0,1.0,1.0
44.05,41.0,1.0,1.0,1.0
44.06,32.5056,1.0,1.0,1.0
44.07,44.0,1.0,1.0,1.0
44.08,40.4944,1.0,1.0,1.0
44.09,34.5056,1.0,1.0,1.0
44.1,42.4944,1.0,1.0,1.0
44.11,42.0,1.0,1.0,1.0
44.12,45.4944,1.0,1.0,1.0
44.13,34.5056,1.0,1.0,1.0
44.14,64.5056,1.0,1.0,1.0
44.15,47.4944,1.0,1.0,1.0
44.16,62.5056,1.0,1.0,1.0
44.17,43.4833,1.0,1.0,1.0
44.18,57.5056,1.0,1.0,1.0
44.19,44.4944,1.0,1.0,1.0
44.2,71.5056,1.0,1.0,1.0
44.21,55.0111,1.0,1.0,1.0
44.22,75.9778,1.0,1.0,1.0
44.23,61.0111,1.0,1.0,1.0
44.24,59.0111,1.0,1.0,1.0
44.25,73.0,1.0,1.0,1.0
44.26,64.4833,1.0,1.0,1.0
44.27,70.5167,1.0,1.0,1.0
44.28,83.0,1.0,1.0,1.0
44.29,79.9889,1.0,1.0,1.0
44.3,96.4944,1.0,1.0,1.0
44.31,78.5167,1.0,1.0,1.0
44.32,100.4611,1.0,1.0,1.0
44.33,119.0222,1.0,1.0,1.0
44.34,98.4944,1.0,1.0,1.0
44.35,104.5056,1.0,1.0,1.0
44.36,119.0,1.0,1.0,1.0
44.37,100.0,1.0,1.0,1.0
44.38,106.5056,1.0,1.0,1.0
44.39,89.9889,1.0,1.0,1.0
44.4,131.5056,1.0,1.0,1.0
44.41,132.0111,1.0,1.0,1.0
44.42,107.4944,1.0,1.0,1.0
44.43,121.0,1.0,1.0,1.0
44.44,114.0,1.0,1.0,1.0
44.45,109.0,1.0,1.0,1.0
44.46,108.5056,1.0,1.0,1.0
44.47,134.5056,1.0,1.0,1.0
44.48,135.9889,1.0,1.0,1.0
44.49,118.5056,1.0,1.0,1.0
44.5,131.4833,1.0,1.0,1.0
44.51,117.5167,1.0,1.0,1.0
44.52,136.0,1.0,1.0,1.0
44.53,124.4944,1.0,1.0,1.0
44.54,125.0,1.0,1.0,1.0
44.55,130.9889,1.0,1.0,1.0
44.56,128.0,1.0,1.0,1.0
44.57,118.4944,1.0,1.0,1.0
44.58,110.0222,1.0,1.0,1.0
44.59,115.0,1.0,1.0,1.0
44.6,117.4944,1.0,1.0,1.0
44.61,127.5056,1.0,1.0,1.0
44.62,118.4944,1.0,1.0,1.0
44.63,119.0,1.0,1.0,1.0
44.64,102.0,1.0,1.0,1.0
44.65,125.4944,1.0,1.0,1.0
44.66,133.5056,1.0,1.0,1.0
44.67,102.4944,1.0,1.0,1.0
44.68,104.5167,1.0,1.0,1.0
44.69,64.9889,1.0,1.0,1.0
44.7,105.0111,1.0,1.0,1.0
44.71,82.0,1.0,1.0,1.0
44.72,70.4944,1.0,1.0,1.0
44.73,96.0,1.0,1.0,1.0
44.74,82.5056,1.0,1.0,1.0
44.75,67.0,1.0,1.0,1.0
44.76,76.4944,1.0,1.0,1.0
44.77,69.5056,1.0,1.0,1.0
44.78,69.4833,1.0,1.0,1.0
44.79,79.5056,1.0,1.0,1.0
44.8,67.5056,1.0,1.0,1.0
44.81,57.5056,1.0,1.0,1.0
44.82,81.4944,1.0,1.0,1.0
44.83,70.0,1.0,1.0,1.0
44.84,54.4944,1.0,1.0,1.0
44.85,45.0111,1.0,1.0,1.0
44.86,47.4833,1.0,1.0,1.0
44.87,53.5167,1.0,1.0,1.0
44.88,38.4944,1.0,1.0,1.0
44.89,40.5056,1.0,1.0,1.0
44.9,35.0,1.0,1.0,1.0
44.91,49.4833,1.0,1.0,1.0
44.92,58.0111,1.0,1.0,1.0
44.93,49.0,1.0,1.0,1.0
44.94,33.4944,1.0,1.0,1.0
44.95,52.0111,1.0,1.0,1.0
44.96,65.0,1.0,1.0,1.0
44.97,51.4833,1.0,1.0,1.0
44.98,84.5056,1.0,1.0,1.0
44.99,66.5056,1.0,1.0,1.0
45.0,78.4944,1.0,1.0,1.0
45.01,84.5056,1.0,1.0,1.0
45.02,114.9778,1.0,1.0,1.0
45.03,147.0222,1.0,1.0,1.0
45.04,122.0,1.0,1.0,1.0
45.05,140.4833,1.0,1.0,1.0
45.06,150.0,1.0,1.0,1.0
45.07,154.0,1.0,1.0,1.0
45.08,140.5167,1.0,1.0,1.0
45.09,170.4944,1.0,1.0,1.0
45.1,205.9889,1.0,1.0,1.0
45.11,252.9889,1.0,1.0,1.0
45.12,203.0111,1.0,1.0,1.0
45.13,279.9889,1.0,1.0,1.0
45.14,293.4944,1.0,1.0,1.0
45.15,301.9889,1.0,1.0,1.0
45.16,307.5167,1.0,1.0,1.0
45.17,343.5056,1.0,1.0,1.0
45.18,373.9889,1.0,1.0,1.0
45.19,387.0,1.0,1.0,1.0
45.2,426.4833,1.0,1.0,1.0
45.21,469.4944,1.0,1.0,1.0
45.22,519.9778,1.0,1.0,1.0
45.23,573.5056,1.0,1.0,1.0
45.24,561.4944,1.0,1.0,1.0
45.25,582.0111,1.0,1.0,1.0
45.26,694.9889,1.0,1.0,1.0
45.27,700.5389,1.0,1.0,1.0
45.28,776.4278,1.0,1.0,1.0
45.29,799.0555,1.0,1.0,1.0
45.3,782.9556,1.0,1.0,1.0
45.31,874.5389,1.0,1.0,1.0
45.32,863.9111,1.0,1.0,1.0
45.33,907.0667,1.0,1.0,1.0
45.34,1011.93,1.0,1.0,1.0
45.35,1097.06,1.0,1.0,1.0
45.36,1087.47,1.0,1.0,1.0
45.37,1157.97,1.0,1.0,1.0
45.38,1179.08,1.0,1.0,1.0
45.39,1221.93,1.0,1.0,1.0
45.4,1347.02,1.0,1.0,1.0
45.41,1384.49,1.0,1.0,1.0
45.42,1375.01,1.0,1.0,1.0
45.43,1497.47,1.0,1.0,1.0
45.44,1539.47,1.0,1.0,1.0
45.45,1573.53,1.0,1.0,1.0
45.46,1679.45,1.0,1.0,1.0
45.47,1746.47,1.0,1.0,1.0
45.48,1721.02,1.0,1.0,1.0
45.49,1803.47,1.0,1.0,1.0
45.5,1957.04,1.0,1.0,1.0
45.51,1939.38,1.0,1.0,1.0
45.52,1999.12,1.0,1.0,1.0
45.53,2261.92,1.0,1.0,1.0
45.54,2151.54,1.0,1.0,1.0
45.55,2296.439,1.0,1.0,1.0
45.56,2332.04,1.0,1.0,1.0
45.57,2376.96,1.0,1.0,1.0
45.58,2382.02,1.0,1.0,1.0
45.59,2493.98,1.0,1.0,1.0
45.6,2524.93,1.0,1.0,1.0
45.61,2663.63,1.0,1.0,1.0
45.62,2717.38,1.0,1.0,1.0
45.63,2794.94,1.0,1.0,1.0
45.64,2836.17,1.0,1.0,1.0
45.65,2803.89,1.0,1.0,1.0
45.66,2859.57,1.0,1.0,1.0
45.67,2939.46,1.0,1.0,1.0
45.68,3007.94,1.0,1.0,1.0
45.69,3000.01,1.0,1.0,1.0
45.7,3102.01,1.0,1.0,1.0
45.71,3312.45,1.0,1.0,1.0
45.72,3248.04,1.0,1.0,1.0
45.73,3371.51,1.0,1.0,1.0
45.74,3336.48,1.0,1.0,1.0
45.75,3458.94,1.0,1.0,1.0
45.76,3407.55,1.0,1.0,1.0
45.77,3566.45,1.0,1.0,1.0
45.78,3548.0,1.0,1.0,1.0
45.79,3584.02,1.0,1.0,1.0
45.8,3601.42,1.0,1.0,1.0
45.81,3724.63,1.0,1.0,1.0
45.82,3623.84,1.0,1.0,1.0
45.83,3721.62,1.0,1.0,1.0
45.84,3825.97,1.0,1.0,1.0
45.85,3785.04,1.0,1.0,1.0
45.86,3731.41,1.0,1.0,1.0
45.87,3893.08,1.0,1.0,1.0
45.88,3863.49,1.0,1.0,1.0
45.89,3995.49,1.0,1.0,1.0
45.9,3975.94,1.0,1.0,1.0
45.91,3811.51,1.0,1.0,1.0
45.92,3868.01,1.0,1.0,1.0
45.93,3946.49,1.0,1.0,1.0
45.94,4099.97,1.0,1.0,1.0
45.95,3988.04,1.0,1.0,1.0
45.96,4008.0,1.0,1.0,1.0
45.97,3766.08,1.0,1.0,1.0
45.98,4053.88,1.0,1.0,1.0
45.99,4076.52,1.0,1.0,1.0
46.0,4069.92,1.0,1.0,1.0
46.01,3898.55,1.0,1.0,1.0
46.02,3911.55,1.0,1.0,1.0
46.03,3902.46,1.0,1.0,1.0
46.04,3878.06,1.0,1.0,1.0
46.05,3893.38,1.0,1.0,1.0
46.06,3921.12,1.0,1.0,1.0
46.07,3944.01,1.0,1.0,1.0
46.08,3783.9,1.0,1.0,1.0
46.09,3849.65,1.0,1.0,1.0
46.1,3710.439,1.0,1.0,1.0
46.11,3639.92,1.0,1.0,1.0
46.12,3793.09,1.0,1.0,1.0
46.13,3631.47,1.0,1.0,1.0
46.14,3617.52,1.0,1.0,1.0
46.15,3487.0,1.0,1.0,1.0
46.16,3433.07,1.0,1.0,1.0
46.17,3537.47,1.0,1.0,1.0
46.18,3458.0,1.0,1.0,1.0
46.19,3450.1,1.0,1.0,1.0
46.2,3404.36,1.0,1.0,1.0
46.21,3322.03,1.0,1.0,1.0
46.22,3138.43,1.0,1.0,1.0
46.23,3212.63,1.0,1.0,1.0
46.24,3109.02,1.0,1.0,1.0
46.25,3061.89,1.0,1.0,1.0
46.26,2949.59,1.0,1.0,1.0
46.27,2972.51,1.0,1.0,1.0
46.28,2890.51,1.0,1.0,1.0
46.29,2845.08,1.0,1.0,1.0
46.3,2806.89,1.0,1.0,1.0
46.31,2748.48,1.0,1.0,1.0
46.32,2577.13,1.0,1.0,1.0
46.33,2490.97,1.0,1.0,1.0
46.34,2385.49,1.0,1.0,1.0
46.35,2508.49,1.0,1.0,1.0
46.36,2397.52,1.0,1.0,1.0
46.37,2213.01,1.0,1.0,1.0
46.38,2231.96,1.0,1.0,1.0
46.39,2231.12,1.0,1.0,1.0
46.4,2003.98,1.0,1.0,1.0
46.41,1972.46,1.0,1.0,1.0
46.42,1932.55,1.0,1.0,1.0
46.43,1822.98,1.0,1.0,1.0
46.44,1813.0,1.0,1.0,1.0
46.45,1793.02,1.0,1.0,1.0
46.46,1688.47,1.0,1.0,1.0
46.47,1639.56,1.0,1.0,1.0
46.48,1491.47,1.0,1.0,1.0
46.49,1532.0,1.0,1.0,1.0
46.5,1420.51,1.0,1.0,1.0
46.51,1473.52,1.0,1.0,1.0
46.52,1297.51,1.0,1.0,1.0
46.53,1227.98,1.0,1.0,1.0
46.54,1248.0,1.0,1.0,1.0
46.55,1150.54,1.0,1.0,1.0
46.56,1057.03,1.0,1.0,1.0
46.57,979.9667,1.0,1.0,1.0
46.58,951.0222,1.0,1.0,1.0
46.59,886.0111,1.0,1.0,1.0
46.6,833.9889,1.0,1.0,1.0
46.61,864.5611,1.0,1.0,1.0
46.62,750.9556,1.0,1.0,1.0
46.63,714.4722,1.0,1.0,1.0
46.64,651.5278,1.0,1.0,1.0
46.65,575.5611,1.0,1.0,1.0
46.66,605.9556,1.0,1.0,1.0
46.67,513.5056,1.0,1.0,1.0
46.68,451.5278,1.0,1.0,1.0
46.69,446.4944,1.0,1.0,1.0
46.7,452.9889,1.0,1.0,1.0
46.71,436.5056,1.0,1.0,1.0
46.72,377.0111,1.0,1.0,1.0
46.73,358.5056,1.0,1.0,1.0
46.74,353.4833,1.0,1.0,1.0
46.75,296.0,1.0,1.0,1.0
46.76,284.0333,1.0,1.0,1.0
46.77,285.4833,1.0,1.0,1.0
46.78,234.5167,1.0,1.0,1.0
46.79,217.5167,1.0,1.0,1.0
46.8,239.4611,1.0,1.0,1.0
46.81,231.0333,1.0,1.0,1.0
46.82,176.9889,1.0,1.0,1.0
46.83,188.0,1.0,1.0,1.0
46.84,193.4833,1.0,1.0,1.0
46.85,172.0222,1.0,1.0,1.0
46.86,179.9889,1.0,1.0,1.0
46.87,156.0,1.0,1.0,1.0
46.88,149.0,1.0,1.0,1.0
46.89,169.0,1.0,1.0,1.0
46.9,173.0,1.0,1.0,1.0
46.91,156.0111,1.0,1.0,1.0
46.92,176.0,1.0,1.0,1.0
46.93,170.0,1.0,1.0,1.0
46.94,180.0,1.0,1.0,1.0
46.95,199.4833,1.0,1.0,1.0
46.96,199.4833,1.0,1.0,1.0
46.97,197.0,1.0,1.0,1.0
46.98,221.5167,1.0,1.0,1.0
46.99,238.0111,1.0,1.0,1.0
47.0,220.4833,1.0,1.0,1.0
47.01,265.5167,1.0,1.0,1.0
47.02,249.4722,1.0,1.0,1.0
47.03,291.4944,1.0,1.0,1.0
47.04,302.0111,1.0,1.0,1.0
47.05,292.9778,1.0,1.0,1.0
47.06,331.5167,1.0,1.0,1.0
47.07,325.5167,1.0,1.0,1.0
47.08,356.9778,1.0,1.0,1.0
47.09,357.5167,1.0,1.0,1.0
47.1,386.9889,1.0,1.0,1.0
47.11,423.0,1.0,1.0,1.0
47.12,445.4833,1.0,1.0,1.0
47.13,457.4944,1.0,1.0,1.0
47.14,443.5056,1.0,1.0,1.0
47.15,402.4944,1.0,1.0,1.0
47.16,461.5056,1.0,1.0,1.0
47.17,490.5056,1.0,1.0,1.0
47.18,497.0,1.0,1.0,1.0
47.19,457.5056,1.0,1.0,1.0
47.2,490.4722,1.0,1.0,1.0
47.21,480.55,1.0,1.0,1.0
47.22,503.4833,1.0,1.0,1.0
47.23,582.4833,1.0,1.0,1.0
47.24,568.9889,1.0,1.0,1.0
47.25,586.4944,1.0,1.0,1.0
47.26,611.4722,1.0,1.0,1.0
47.27,608.0222,1.0,1.0,1.0
47.28,680.0,1.0,1.0,1.0
47.29,625.0333,1.0,1.0,1.0
47.3,690.5167,1.0,1.0,1.0
47.31,603.9889,1.0,1.0,1.0
47.32,693.4389,1.0,1.0,1.0
47.33,833.0333,1.0,1.0,1.0
47.34,680.5056,1.0,1.0,1.0
47.35,710.0,1.0,1.0,1.0
47.36,714.9778,1.0,1.0,1.0
47.37,766.9889,1.0,1.0,1.0
47.38,748.5056,1.0,1.0,1.0
47.39,799.0222,1.0,1.0,1.0
47.4,750.4722,1.0,1.0,1.0
47.41,783.0111,1.0,1.0,1.0
47.42,737.4833,1.0,1.0,1.0
47.43,742.0444,1.0,1.0,1.0
47.44,781.0111,1.0,1.0,1.0
47.45,813.9778,1.0,1.0,1.0
47.46,902.5056,1.0,1.0,1.0
47.47,845.9778,1.0,1.0,1.0
47.48,812.4833,1.0,1.0,1.0
47.49,891.5389,1.0,1.0,1.0
47.5,868.4389,1.0,1.0,1.0
47.51,883.0555,1.0,1.0,1.0
47.52,883.9556,1.0,1.0,1.0
47.53,966.4833,1.0,1.0,1.0
47.54,945.0111,1.0,1.0,1.0
47.55,1043.04,1.0,1.0,1.0
47.56,979.9333,1.0,1.0,1.0
47.57,1044.03,1.0,1.0,1.0
47.58,1067.01,1.0,1.0,1.0
47.59,1079.99,1.0,1.0,1.0
47.6,1115.51,1.0,1.0,1.0
47.61,1181.97,1.0,1.0,1.0
47.62,1240.46,1.0,1.0,1.0
47.63,1225.07,1.0,1.0,1.0
47.64,1264.45,1.0,1.0,1.0
47.65,1215.98,1.0,1.0,1.0
47.66,1323.02,1.0,1.0,1.0
47.67,1342.99,1.0,1.0,1.0
47.68,1498.04,1.0,1.0,1.0
47.69,1488.48,1.0,1.0,1.0
47.7,1615.44,1.0,1.0,1.0
47.71,1707.99,1.0,1.0,1.0
47.72,1840.49,1.0,1.0,1.0
47.73,1911.48,1.0,1.0,1.0
47.74,2087.47,1.0,1.0,1.0
47.75,2392.01,1.0,1.0,1.0
47.76,2520.45,1.0,1.0,1.0
47.77,2800.04,1.0,1.0,1.0
47.78,3217.43,1.0,1.0,1.0
47.79,3582.41,1.0,1.0,1.0
47.8,4102.88,1.0,1.0,1.0
47.81,4766.48,1.0,1.0,1.0
47.82,5627.39,1.0,1.0,1.0
47.83,6653.88,1.0,1.0,1.0
47.84,8048.36,1.0,1.0,1.0
47.85,10217.2,1.0,1.0,1.0
47.86,14563.4,1.0,1.0,1.0
47.87,24064.3,1.0,1.0,1.0
47.88,52751,1.0,1.0,1.0
47.89,148613,1.0,1.0,1.0
47.9,343512,1.0,1.0,1.0
47.91,599001.375,1.0,1.0,1.0
47.92,989455,1.0,1.0,1.0
47.93,1440224.375,1.0,1.0,1.0
47.94,1632863.875,1.0,1.0,1.0
47.95,1877084.875,1.0,1.0,1.0
47.96,2411745.5,1.0,1.0,1.0
47.97,3026583.5,1.0,1.0,1.0
47.98,3803715.75,1.0,1.0,1.0
47.99,4170683.25,1.0,1.0,1.0
48.0,2900455.5,1.0,1.0,1.0
48.01,1173694.625,1.0,1.0,1.0
48.02,379037,1.0,1.0,1.0
48.03,146546,1.0,1.0,1.0
48.04,83587.7,1.0,1.0,1.0
48.05,55959.9,1.0,1.0,1.0
48.06,38266.3,1.0,1.0,1.0
48.07,27112.5,1.0,1.0,1.0
48.08,19830.2,1.0,1.0,1.0
48.09,14738.4,1.0,1.0,1.0
48.1,11212.3,1.0,1.0,1.0
48.11,8728.26,1.0,1.0,1.0
48.12,7019.28,1.0,1.0,1.0
48.13,5742.51,1.0,1.0,1.0
48.14,4698.26,1.0,1.0,1.0
48.15,3888.45,1.0,1.0,1.0
48.16,3401.64,1.0,1.0,1.0
48.17,2839.01,1.0,1.0,1.0
48.18,2447.07,1.0,1.0,1.0
48.19,2161.46,1.0,1.0,1.0
48.2,1806.03,1.0,1.0,1.0
48.21,1605.57,1.0,1.0,1.0
48.22,1439.99,1.0,1.0,1.0
48.23,1331.04,1.0,1.0,1.0
48.24,1118.48,1.0,1.0,1.0
48.25,1090.51,1.0,1.0,1.0
48.26,985.0222,1.0,1.0,1.0
48.27,865.5056,1.0,1.0,1.0
48.28,691.0111,1.0,1.0,1.0
48.29,705.0444,1.0,1.0,1.0
48.3,572.9889,1.0,1.0,1.0
48.31,587.4944,1.0,1.0,1.0
48.32,556.9778,1.0,1.0,1.0
48.33,504.5167,1.0,1.0,1.0
48.34,449.0222,1.0,1.0,1.0
48.35,440.0111,1.0,1.0,1.0
48.36,366.4833,1.0,1.0,1.0
48.37,350.5056,1.0,1.0,1.0
48.38,309.9889,1.0,1.0,1.0
48.39,326.0111,1.0,1.0,1.0
48.4,266.0222,1.0,1.0,1.0
48.41,258.4944,1.0,1.0,1.0
48.42,265.4833,1.0,1.0,1.0
48.43,243.0111,1.0,1.0,1.0
48.44,221.5056,1.0,1.0,1.0
48.45,214.9889,1.0,1.0,1.0
48.46,223.9889,1.0,1.0,1.0
48.47,196.5167,1.0,1.0,1.0
48.48,163.4944,1.0,1.0,1.0
48.49,224.0,1.0,1.0,1.0
48.5,198.5056,1.0,1.0,1.0
48.51,177.5056,1.0,1.0,1.0
48.52,171.0,1.0,1.0,1.0
48.53,153.4833,1.0,1.0,1.0
48.54,165.0111,1.0,1.0,1.0
48.55,151.4944,1.0,1.0,1.0
48.56,163.5167,1.0,1.0,1.0
48.57,147.4944,1.0,1.0,1.0
48.58,135.0,1.0,1.0,1.0
48.59,144.5056,1.0,1.0,1.0
48.6,149.0,1.0,1.0,1.0
48.61,137.0,1.0,1.0,1.0
48.62,116.0111,1.0,1.0,1.0
48.63,136.9556,1.0,1.0,1.0
48.64,117.5278,1.0,1.0,1.0
48.65,132.5056,1.0,1.0,1.0
48.66,141.4944,1.0,1.0,1.0
48.67,123.4944,1.0,1.0,1.0
48.68,122.5167,1.0,1.0,1.0
48.69,129.0,1.0,1.0,1.0
48.7,124.4944,1.0,1.0,1.0
48.71,120.4722,1.0,1.0,1.0
48.72,113.0222,1.0,1.0,1.0
48.73,99.0111,1.0,1.0,1.0
48.74,113.9889,1.0,1.0,1.0
48.75,122.5056,1.0,1.0,1.0
48.76,113.5056,1.0,1.0,1.0
48.77,100.4833,1.0,1.0,1.0
48.78,91.0222,1.0,1.0,1.0
48.79,94.4944,1.0,1.0,1.0
48.8,115.9778,1.0,1.0,1.0
48.81,101.0222,1.0,1.0,1.0
48.82,89.4944,1.0,1.0,1.0
48.83,100.0111,1.0,1.0,1.0
48.84,96.4833,1.0,1.0,1.0
48.85,106.5167,1.0,1.0,1.0
48.86,106.4944,1.0,1.0,1.0
48.87,83.4833,1.0,1.0,1.0
48.88,103.5056,1.0,1.0,1.0
48.89,110.0111,1.0,1.0,1.0
48.9,74.9889,1.0,1.0,1.0
48.91,82.0,1.0,1.0,1.0
48.92,82.5167,1.0,1.0,1.0
48.93,74.4722,1.0,1.0,1.0
48.94,64.5167,1.0,1.0,1.0
48.95,49.5056,1.0,1.0,1.0
48.96,91.0,1.0,1.0,1.0
48.97,59.9889,1.0,1.0,1.0
48.98,48.0111,1.0,1.0,1.0
48.99,46.5056,1.0,1.0,1.0
49.0,48.0,1.0,1.0,1.0
49.01,53.0,1.0,1.0,1.0
49.02,51.4944,1.0,1.0,1.0
49.03,57.4944,1.0,1.0,1.0
49.04,43.0111,1.0,1.0,1.0
49.05,41.0,1.0,1.0,1.0
49.06,47.0,1.0,1.0,1.0
49.07,39.0,1.0,1.0,1.0
49.08,45.9889,1.0,1.0,1.0
49.09,53.0,1.0,1.0,1.0
49.1,46.0111,1.0,1.0,1.0
49.11,31.4944,1.0,1.0,1.0
49.12,46.0,1.0,1.0,1.0
49.13,38.5056,1.0,1.0,1.0
49.14,38.4833,1.0,1.0,1.0
49.15,24.5167,1.0,1.0,1.0
49.16,33.4944,1.0,1.0,1.0
49.17,17.0,1.0,1.0,1.0
49.18,31.0,1.0,1.0,1.0
49.19,28.5056,1.0,1.0,1.0
49.2,12.0,1.0,1.0,1.0
49.21,21.4944,1.0,1.0,1.0
49.22,27.0,1.0,1.0,1.0
49.23,11.5056,1.0,1.0,1.0
49.24,15.0,1.0,1.0,1.0
49.25,22.0,1.0,1.0,1.0
49.26,9.0,1.0,1.0,1.0
49.27,21.0,1.0,1.0,1.0
49.28,20.4944,1.0,1.0,1.0
49.29,20.5056,1.0,1.0,1.0
49.3,13.0,1.0,1.0,1.0
49.31,6.0,1.0,1.0,1.0
49.32,17.4944,1.0,1.0,1.0
49.33,12.5056,1.0,1.0,1.0
49.34,21.0,1.0,1.0,1.0
49.35,13.0,1.0,1.0,1.0
49.36,12.0,1.0,1.0,1.0
49.37,12.4944,1.0,1.0,1.0
49.38,15.5056,1.0,1.0,1.0
49.39,7.0,1.0,1.0,1.0
49.4,12.0,1.0,1.0,1.0
49.41,11.0,1.0,1.0,1.0
49.42,23.0,1.0,1.0,1.0
49.43,15.0,1.0,1.0,1.0
49.44,17.4944,1.0,1.0,1.0
49.45,16.5056,1.0,1.0,1.0
49.46,18.4833,1.0,1.0,1.0
49.47,17.5167,1.0,1.0,1.0
49.48,12.4944,1.0,1.0,1.0
49.49,25.5056,1.0,1.0,1.0
49.5,13.0,1.0,1.0,1.0
49.51,13.0,1.0,1.0,1.0
49.52,8.0,1.0,1.0,1.0
49.53,18.0,1.0,1.0,1.0
49.54,26.0,1.0,1.0,1.0
49.55,20.4944,1.0,1.0,1.0
49.56,21.5056,1.0,1.0,1.0
49.57,37.0,1.0,1.0,1.0
49.58,18.0,1.0,1.0,1.0
49.59,11.0,1.0,1.0,1.0
49.6,25.0,1.0,1.0,1.0
49.61,33.4944,1.0,1.0,1.0
49.62,13.5056,1.0,1.0,1.0
49.63,16.0,1.0,1.0,1.0
49.64,7.0,1.0,1.0,1.0
49.65,27.0,1.0,1.0,1.0
49.66,16.0,1.0,1.0,1.0
49.67,30.4944,1.0,1.0,1.0
49.68,27.5056,1.0,1.0,1.0
49.69,19.9889,1.0,1.0,1.0
49.7,24.0111,1.0,1.0,1.0
49.71,27.4944,1.0,1.0,1.0
49.72,21.5056,1.0,1.0,1.0
49.73,19.0,1.0,1.0,1.0
49.74,23.0,1.0,1.0,1.0
49.75,27.4944,1.0,1.0,1.0
49.76,16.5056,1.0,1.0,1.0
49.77,21.0,1.0,1.0,1.0
49.78,21.0,1.0,1.0,1.0
49.79,22.4944,1.0,1.0,1.0
49.8,22.5056,1.0,1.0,1.0
49.81,17.0,1.0,1.0,1.0
49.82,22.9889,1.0,1.0,1.0
49.83,28.4944,1.0,1.0,1.0
49.84,12.5167,1.0,1.0,1.0
49.85,12.0,1.0,1.0,1.0
49.86,16.0,1.0,1.0,1.0
49.87,22.4944,1.0,1.0,1.0
49.88,16.5056,1.0,1.0,1.0
49.89,6.4944,1.0,1.0,1.0
49.9,10.5056,1.0,1.0,1.0
49.91,17.4833,1.0,1.0,1.0
49.92,16.5167,1.0,1.0,1.0
49.93,24.0,1.0,1.0,1.0
49.94,17.0,1.0,1.0,1.0
49.95,21.4944,1.0,1.0,1.0
49.96,23.5056,1.0,1.0,1.0
49.97,15.4944,1.0,1.0,1.0
49.98,16.5056,1.0,1.0,1.0
49.99,8.0,1.0,1.0,1.0
50.0,13.0,1.0,1.0,1.0
50.01,15.9889,1.0,1.0,1.0
50.02,25.5056,1.0,1.0,1.0
50.03,23.4944,1.0,1.0,1.0
50.04,10.0111,1.0,1.0,1.0
50.05,8.4944,1.0,1.0,1.0
50.06,15.5056,1.0,1.0,1.0
50.07,12.0,1.0,1.0,1.0
50.08,10.0,1.0,1.0,1.0
50.09,17.0,1.0,1.0,1.0
50.1,15.0,1.0,1.0,1.0
50.11,12.0,1.0,1.0,1.0
50.12,18.0,1.0,1.0,1.0
50.13,14.0,1.0,1.0,1.0
50.14,10.0,1.0,1.0,1.0
50.15,16.0,1.0,1.0,1.0
50.16,10.0,1.0,1.0,1.0
50.17,10.0,1.0,1.0,1.0
50.18,11.0,1.0,1.0,1.0
50.19,8.4944,1.0,1.0,1.0
50.2,19.5056,1.0,1.0,1.0
50.21,8.0,1.0,1.0,1.0
50.22,21.0,1.0,1.0,1.0
50.23,13.0,1.0,1.0,1.0
50.24,18.0,1.0,1.0,1.0
50.25,14.0,1.0,1.0,1.0
50.26,10.0,1.0,1.0,1.0
50.27,6.0,1.0,1.0,1.0
50.28,10.0,1.0,1.0,1.0
50.29,6.0,1.0,1.0,1.0
50.3,5.0,1.0,1.0,1.0
50.31,3.0,1.0,1.0,1.0
50.32,4.0,1.0,1.0,1.0
50.33,7.0,1.0,1.0,1.0
50.34,2.0,1.0,1.0,1.0
50.35,4.0,1.0,1.0,1.0
50.36,5.0,1.0,1.0,1.0
50.37,9.0,1.0,1.0,1.0
50.38,5.0,1.0,1.0,1.0
50.39,12.4944,1.0,1.0,1.0
50.4,2.5056,1.0,1.0,1.0
50.41,7.0,1.0,1.0,1.0
50.42,12.0,1.0,1.0,1.0
50.43,12.0,1.0,1.0,1.0
50.44,9.4944,1.0,1.0,1.0
50.45,14.5056,1.0,1.0,1.0
50.46,13.0,1.0,1.0,1.0
50.47,15.0,1.0,1.0,1.0
50.48,10.0,1.0,1.0,1.0
50.49,6.0,1.0,1.0,1.0
50.5,2.0,1.0,1.0,1.0
50.51,5.0,1.0,1.0,1.0
50.52,13.0,1.0,1.0,1.0
50.53,8.0,1.0,1.0,1.0
50.54,12.0,1.0,1.0,1.0
50.55,19.0,1.0,1.0,1.0
50.56,6.0,1.0,1.0,1.0
50.57,9.0,1.0,1.0,1.0
50.58,5.0,1.0,1.0,1.0
50.59,14.0,1.0,1.0,1.0
50.6,15.0,1.0,1.0,1.0
50.61,11.0,1.0,1.0,1.0
50.62,13.4944,1.0,1.0,1.0
50.63,10.5056,1.0,1.0,1.0
50.64,27.0,1.0,1.0,1.0
50.65,16.0,1.0,1.0,1.0
50.66,4.0,1.0,1.0,1.0
50.67,8.0,1.0,1.0,1.0
50.68,7.0,1.0,1.0,1.0
50.69,16.0,1.0,1.0,1.0
50.7,1.0,1.0,1.0,1.0
50.71,0.0,1.0,1.0,1.0
50.72,8.0,1.0,1.0,1.0
50.73,13.0,1.0,1.0,1.0
50.74,14.0,1.0,1.0,1.0
50.75,12.0,1.0,1.0,1.0
50.76,7.0,1.0,1.0,1.0
50.77,12.0,1.0,1.0,1.0
50.78,9.0,1.0,1.0,1.0
50.79,2.0,1.0,1.0,1.0
50.8,13.4944,1.0,1.0,1.0
50.81,9.5056,1.0,1.0,1.0
50.82,16.0,1.0,1.0,1.0
50.83,2.0,1.0,1.0,1.0
50.84,12.4944,1.0,1.0,1.0
50.85,7.5056,1.0,1.0,1.0
50.86,12.0,1.0,1.0,1.0
50.87,11.4944,1.0,1.0,1.0
50.88,12.5056,1.0,1.0,1.0
50.89,14.4944,1.0,1.0,1.0
50.9,4.5056,1.0,1.0,1.0
50.91,19.0,1.0,1.0,1.0
50.92,10.0,1.0,1.0,1.0
50.93,12.0,1.0,1.0,1.0
50.94,13.0,1.0,1.0,1.0
50.95,12.0,1.0,1.0,1.0
50.96,8.4944,1.0,1.0,1.0
50.97,9.0,1.0,1.0,1.0
50.98,13.5056,1.0,1.0,1.0
50.99,4.4944,1.0,1.0,1.0
51.0,7.5056,1.0,1.0,1.0
51.01,7.0,1.0,1.0,1.0
51.02,5.4944,1.0,1.0,1.0
51.03,5.5056,1.0,1.0,1.0
51.04,9.0,1.0,1.0,1.0
51.05,8.0,1.0,1.0,1.0
51.06,12.4944,1.0,1.0,1.0
51.07,3.5056,1.0,1.0,1.0
51.08,11.0,1.0,1.0,1.0
51.09,12.0,1.0,1.0,1.0
51.1,5.0,1.0,1.0,1.0
51.11,12.4944,1.0,1.0,1.0
51.12,17.5056,1.0,1.0,1.0
51.13,0.0,1.0,1.0,1.0
51.14,8.4944,1.0,1.0,1.0
51.15,5.5056,1.0,1.0,1.0
51.16,8.0,1.0,1.0,1.0
51.17,15.0,1.0,1.0,1.0
51.18,5.0,1.0,1.0,1.0
51.19,2.0,1.0,1.0,1.0
51.2,5.0,1.0,1.0,1.0
51.21,17.9889,1.0,1.0,1.0
51.22,6.0111,1.0,1.0,1.0
51.23,6.0,1.0,1.0,1.0
51.24,7.0,1.0,1.0,1.0
51.25,9.0,1.0,1.0,1.0
51.26,6.0,1.0,1.0,1.0
51.27,11.0,1.0,1.0,1.0
51.28,7.0,1.0,1.0,1.0
51.29,10.0,1.0,1.0,1.0
51.3,8.0,1.0,1.0,1.0
51.31,6.0,1.0,1.0,1.0
51.32,6.0,1.0,1.0,1.0
51.33,6.0,1.0,1.0,1.0
51.34,12.0,1.0,1.0,1.0
51.35,11.0,1.0,1.0,1.0
51.36,4.0,1.0,1.0,1.0
51.37,10.4944,1.0,1.0,1.0
51.38,7.4944,1.0,1.0,1.0
51.39,11.0111,1.0,1.0,1.0
51.4,2.4944,1.0,1.0,1.0
51.41,9.5056,1.0,1.0,1.0
51.42,11.0,1.0,1.0,1.0
51.43,12.0,1.0,1.0,1.0
51.44,5.0,1.0,1.0,1.0
51.45,5.4944,1.0,1.0,1.0
51.46,5.5056,1.0,1.0,1.0
51.47,11.0,1.0,1.0,1.0
51.48,11.4944,1.0,1.0,1.0
51.49,16.0,1.0,1.0,1.0
51.5,12.5056,1.0,1.0,1.0
51.51,5.0,1.0,1.0,1.0
51.52,4.0,1.0,1.0,1.0
51.53,7.9889,1.0,1.0,1.0
51.54,14.0111,1.0,1.0,1.0
51.55,7.0,1.0,1.0,1.0
51.56,10.0,1.0,1.0,1.0
51.57,17.0,1.0,1.0,1.0
51.58,8.4944,1.0,1.0,1.0
51.59,8.5056,1.0,1.0,1.0
51.6,16.0,1.0,1.0,1.0
51.61,12.0,1.0,1.0,1.0
51.62,7.0,1.0,1.0,1.0
51.63,8.0,1.0,1.0,1.0
51.64,4.0,1.0,1.0,1.0
51.65,12.0,1.0,1.0,1.0
51.66,7.0,1.0,1.0,1.0
51.67,2.0,1.0,1.0,1.0
51.68,7.4944,1.0,1.0,1.0
51.69,13.5056,1.0,1.0,1.0
51.7,7.0,1.0,1.0,1.0
51.71,10.0,1.0,1.0,1.0
51.72,11.0,1.0,1.0,1.0
51.73,5.0,1.0,1.0,1.0
51.74,3.0,1.0,1.0,1.0
51.75,5.4944,1.0,1.0,1.0
51.76,10.5056,1.0,1.0,1.0
51.77,19.0,1.0,1.0,1.0
51.78,4.4944,1.0,1.0,1.0
51.79,0.5056,1.0,1.0,1.0
51.8,6.0,1.0,1.0,1.0
51.81,4.0,1.0,1.0,1.0
51.82,6.0,1.0,1.0,1.0
51.83,4.0,1.0,1.0,1.0
51.84,11.4944,1.0,1.0,1.0
51.85,9.5056,1.0,1.0,1.0
51.86,8.0,1.0,1.0,1.0
51.87,7.0,1.0,1.0,1.0
51.88,13.0,1.0,1.0,1.0
51.89,9.0,1.0,1.0,1.0
51.9,13.4944,1.0,1.0,1.0
51.91,5.5056,1.0,1.0,1.0
51.92,16.0,1.0,1.0,1.0
51.93,13.0,1.0,1.0,1.0
51.94,9.0,1.0,1.0,1.0
51.95,11.0,1.0,1.0,1.0
51.96,18.0,1.0,1.0,1.0
51.97,9.0,1.0,1.0,1.0
51.98,7.0,1.0,1.0,1.0
51.99,16.0,1.0,1.0,1.0
52.0,5.0,1.0,1.0,1.0
0.4,741964.0,1.0,1.0,1.0
0.41,754621.0,1.0,1.0,1.0
0.42,767409.0,1.0,1.0,1.0
0.43,778730.5,1.0,1.0,1.0
0.44,788356.0,1.0,1.0,1.0
0.45,799176.0,1.0,1.0,1.0
0.46,807244.5,1.0,1.0,1.0
0.47,818308.0,1.0,1.0,1.0
0.48,825967.5,1.0,1.0,1.0
0.49,830403.5,1.0,1.0,1.0
0.5,837750.5,1.0,1.0,1.0
0.51,840286.5,1.0,1.0,1.0
0.52,844548.5,1.0,1.0,1.0
0.53,843054.5,1.0,1.0,1.0
0.54,840480.5,1.0,1.0,1.0
0.55,831446.5,1.0,1.0,1.0
0.56,821783.0,1.0,1.0,1.0
0.57,807796.5,1.0,1.0,1.0
0.58,789287.0,1.0,1.0,1.0
0.59,766246,1.0,1.0,1.0
0.6,741903.0,1.0,1.0,1.0
0.61,713523,1.0,1.0,1.0
0.62,682917.5,1.0,1.0,1.0
0.63,652308,1.0,1.0,1.0
0.64,617519,1.0,1.0,1.0
0.65,581148,1.0,1.0,1.0
0.66,546997.0,1.0,1.0,1.0
0.67,512930,1.0,1.0,1.0
0.68,477053,1.0,1.0,1.0
0.69,442966,1.0,1.0,1.0
0.7,412306,1.0,1.0,1.0
0.71,379500,1.0,1.0,1.0
0.72,352557,1.0,1.0,1.0
0.73,324877,1.0,1.0,1.0
0.74,298915,1.0,1.0,1.0
0.75,275481,1.0,1.0,1.0
0.76,252505,1.0,1.0,1.0
0.77,232904,1.0,1.0,1.0
0.78,212726,1.0,1.0,1.0
0.79,195953,1.0,1.0,1.0
0.8,180038,1.0,1.0,1.0
0.81,166103,1.0,1.0,1.0
0.82,153139,1.0,1.0,1.0
0.83,140585,1.0,1.0,1.0
0.84,128836,1.0,1.0,1.0
0.85,119560.0,1.0,1.0,1.0
0.86,110482,1.0,1.0,1.0
0.87,101357,1.0,1.0,1.0
0.88,94628,1.0,1.0,1.0
0.89,87532,1.0,1.0,1.0
0.9,81309.5,1.0,1.0,1.0
0.91,75352,1.0,1.0,1.0
0.92,69906.0,1.0,1.0,1.0
0.93,65147,1.0,1.0,1.0
0.94,60723.5,1.0,1.0,1.0
0.95,56665.5,1.0,1.0,1.0
0.96,52472.5,1.0,1.0,1.0
0.97,49574.5,1.0,1.0,1.0
0.98,46380.5,1.0,1.0,1.0
0.99,43846.5,1.0,1.0,1.0
1.0,40755.0,1.0,1.0,1.0
1.01,38452,1.0,1.0,1.0
1.02,36448.0,1.0,1.0,1.0
1.03,34236.5,1.0,1.0,1.0
1.04,32147.502,1.0,1.0,1.0
1.05,30436.502,1.0,1.0,1.0
1.06,28772.002,1.0,1.0,1.0
1.07,27314,1.0,1.0,1.0
1.08,25732.502,1.0,1.0,1.0
1.09,24773.5,1.0,1.0,1.0
1.1,23896.5,1.0,1.0,1.0
1.11,22900.002,1.0,1.0,1.0
1.12,21980.002,1.0,1.0,1.0
1.13,20972.0,1.0,1.0,1.0
1.14,20064.998,1.0,1.0,1.0
1.15,19435.5,1.0,1.0,1.0
1.16,18745.498,1.0,1.0,1.0
1.17,18181.5,1.0,1.0,1.0
1.18,17538.502,1.0,1.0,1.0
1.19,17188.0,1.0,1.0,1.0
1.2,16418.502,1.0,1.0,1.0
1.21,15907.998,1.0,1.0,1.0
1.22,15811.502,1.0,1.0,1.0
1.23,15291.5,1.0,1.0,1.0
1.24,14832.002,1.0,1.0,1.0
1.25,14486.001,1.0,1.0,1.0
1.26,14084,1.0,1.0,1.0
1.27,14047,1.0,1.0,1.0
1.28,13571.5,1.0,1.0,1.0
1.29,13177.001,1.0,1.0,1.0
1.3,12832.499,1.0,1.0,1.0
1.31,12779.5,1.0,1.0,1.0
1.32,12492.502,1.0,1.0,1.0
1.33,12313.499,1.0,1.0,1.0
1.34,12012.002,1.0,1.0,1.0
1.35,11577.5,1.0,1.0,1.0
1.36,11657.5,1.0,1.0,1.0
1.37,11292.999,1.0,1.0,1.0
1.38,10778,1.0,1.0,1.0
1.39,10709.498,1.0,1.0,1.0
1.4,10477.501,1.0,1.0,1.0
1.41,10380.499,1.0,1.0,1.0
1.42,9991.0,1.0,1.0,1.0
1.43,9966.5,1.0,1.0,1.0
1.44,9527.0,1.0,1.0,1.0
1.45,9514,1.0,1.0,1.0
1.46,9135.001,1.0,1.0,1.0
1.47,8925.998,1.0,1.0,1.0
1.48,8843.002,1.0,1.0,1.0
1.49,8610.5,1.0,1.0,1.0
1.5,8307.5,1.0,1.0,1.0
1.51,8146.5,1.0,1.0,1.0
1.52,8125.501,1.0,1.0,1.0
1.53,7874.501,1.0,1.0,1.0
1.54,7595.5,1.0,1.0,1.0
1.55,7293.5,1.0,1.0,1.0
1.56,7049.5,1.0,1.0,1.0
1.57,6834,1.0,1.0,1.0
1.58,6703.5,1.0,1.0,1.0
1.59,6692,1.0,1.0,1.0
1.6,6318.5,1.0,1.0,1.0
1.61,6238.001,1.0,1.0,1.0
1.62,5883.499,1.0,1.0,1.0
1.63,5738.001,1.0,1.0,1.0
1.64,5589,1.0,1.0,1.0
1.65,5271.0,1.0,1.0,1.0
1.66,5179.5,1.0,1.0,1.0
1.67,4971.5,1.0,1.0,1.0
1.68,5004.5,1.0,1.0,1.0
1.69,4794.5,1.0,1.0,1.0
1.7,4605.5,1.0,1.0,1.0
1.71,4311,1.0,1.0,1.0
1.72,4308.499,1.0,1.0,1.0
1.73,4085,1.0,1.0,1.0
1.74,3872,1.0,1.0,1.0
1.75,3868.5,1.0,1.0,1.0
1.76,3734.5,1.0,1.0,1.0
1.77,3596.5,1.0,1.0,1.0
1.78,3507.5,1.0,1.0,1.0
1.79,3410.5,1.0,1.0,1.0
1.8,3321.5,1.0,1.0,1.0
1.81,3242.5,1.0,1.0,1.0
1.82,3209.001,1.0,1.0,1.0
1.83,3044.0,1.0,1.0,1.0
1.84,2980.5,1.0,1.0,1.0
1.85,2852.5,1.0,1.0,1.0
1.86,2789.5,1.0,1.0,1.0
1.87,2759,1.0,1.0,1.0
1.88,2633.0,1.0,1.0,1.0
1.89,2568.0,1.0,1.0,1.0
1.9,2516.5,1.0,1.0,1.0
1.91,2465.5,1.0,1.0,1.0
1.92,2317.5,1.0,1.0,1.0
1.93,2303,1.0,1.0,1.0
1.94,2364,1.0,1.0,1.0
1.95,2257.5,1.0,1.0,1.0
1.96,2269.5,1.0,1.0,1.0
1.97,2188.0,1.0,1.0,1.0
1.98,2143.5,1.0,1.0,1.0
1.99,2153.5,1.0,1.0,1.0
2.0,2077,1.0,1.0,1.0
2.01,2115.5,1.0,1.0,1.0
2.02,2049,1.0,1.0,1.0
2.03,2110,1.0,1.0,1.0
2.04,2043,1.0,1.0,1.0
2.05,1950.0,1.0,1.0,1.0
2.06,2020.5,1.0,1.0,1.0
2.07,1916,1.0,1.0,1.0
2.08,1957,1.0,1.0,1.0
2.09,1907.5,1.0,1.0,1.0
2.1,1864.5,1.0,1.0,1.0
2.11,1888.5,1.0,1.0,1.0
2.12,1893,1.0,1.0,1.0
2.13,1795,1.0,1.0,1.0
2.14,1846.5,1.0,1.0,1.0
2.15,1812,1.0,1.0,1.0
2.16,1812.5,1.0,1.0,1.0
2.17,1806.5,1.0,1.0,1.0
2.18,1768,1.0,1.0,1.0
2.19,1781.5,1.0,1.0,1.0
2.2,1710,1.0,1.0,1.0
2.21,1779,1.0,1.0,1.0
2.22,1710,1.0,1.0,1.0
2.23,1678.5,1.0,1.0,1.0
2.24,1771.5,1.0,1.0,1.0
2.25,1699,1.0,1.0,1.0
2.26,1715.5,1.0,1.0,1.0
2.27,1583.5,1.0,1.0,1.0
2.28,1659,1.0,1.0,1.0
2.29,1606.5,1.0,1.0,1.0
2.3,1627.5,1.0,1.0,1.0
2.31,1599,1.0,1.0,1.0
2.32,1499,1.0,1.0,1.0
2.33,1565,1.0,1.0,1.0
2.34,1599.5,1.0,1.0,1.0
2.35,1551.5,1.0,1.0,1.0
2.36,1567,1.0,1.0,1.0
2.37,1431.0,1.0,1.0,1.0
2.38,1473.5,1.0,1.0,1.0
2.39,1396,1.0,1.0,1.0
2.4,1456.5,1.0,1.0,1.0
2.41,1368.5,1.0,1.0,1.0
2.42,1263,1.0,1.0,1.0
2.43,1357.5,1.0,1.0,1.0
2.44,1371.5,1.0,1.0,1.0
2.45,1263.5,1.0,1.0,1.0
2.46,1303,1.0,1.0,1.0
2.47,1246.5,1.0,1.0,1.0
2.48,1239.5,1.0,1.0,1.0
2.49,1158.5,1.0,1.0,1.0
2.5,1219,1.0,1.0,1.0
2.51,1152.5,1.0,1.0,1.0
2.52,1179,1.0,1.0,1.0
2.53,1135.5,1.0,1.0,1.0
2.54,1135.5,1.0,1.0,1.0
2.55,1066,1.0,1.0,1.0
2.56,1036.5,1.0,1.0,1.0
2.57,1088.5,1.0,1.0,1.0
2.58,1051,1.0,1.0,1.0
2.59,1027,1.0,1.0,1.0
2.6,1021.5,1.0,1.0,1.0
2.61,992.0007,1.0,1.0,1.0
2.62,993.9998,1.0,1.0,1.0
2.63,893.5005,1.0,1.0,1.0
2.64,922.4998,1.0,1.0,1.0
2.65,916.4995,1.0,1.0,1.0
2.66,871.0007,1.0,1.0,1.0
2.67,883.4995,1.0,1.0,1.0
2.68,851.5004,1.0,1.0,1.0
2.69,831.9993,1.0,1.0,1.0
2.7,826.5007,1.0,1.0,1.0
2.71,798.9999,1.0,1.0,1.0
2.72,852.9996,1.0,1.0,1.0
2.73,725.5002,1.0,1.0,1.0
2.74,792.9999,1.0,1.0,1.0
2.75,799.0002,1.0,1.0,1.0
2.76,797.0003,1.0,1.0,1.0
2.77,740.4998,1.0,1.0,1.0
2.78,794.0,1.0,1.0,1.0
2.79,776.0002,1.0,1.0,1.0
2.8,733.4998,1.0,1.0,1.0
2.81,714.9998,1.0,1.0,1.0
2.82,751.5004,1.0,1.0,1.0
2.83,703.9997,1.0,1.0,1.0
2.84,693.4998,1.0,1.0,1.0
2.85,719.0007,1.0,1.0,1.0
2.86,695.4998,1.0,1.0,1.0
2.87,655.0001,1.0,1.0,1.0
2.88,728.9998,1.0,1.0,1.0
2.89,681.4996,1.0,1.0,1.0
2.9,679.5004,1.0,1.0,1.0
2.91,679.5002,1.0,1.0,1.0
2.92,692.9996,1.0,1.0,1.0
2.93,724.0004,1.0,1.0,1.0
2.94,657.4998,1.0,1.0,1.0
2.95,646.5002,1.0,1.0,1.0
2.96,643.0,1.0,1.0,1.0
2.97,662.4998,1.0,1.0,1.0
2.98,688.4999,1.0,1.0,1.0
2.99,720.0003,1.0,1.0,1.0
3.0,618.9993,1.0,1.0,1.0
3.01,712.0002,1.0,1.0,1.0
3.02,701.0002,1.0,1.0,1.0
3.03,697.9998,1.0,1.0,1.0
3.04,733.5001,1.0,1.0,1.0
3.05,686.0001,1.0,1.0,1.0
3.06,680.0002,1.0,1.0,1.0
3.07,701.4998,1.0,1.0,1.0
3.08,659.4998,1.0,1.0,1.0
3.09,698.0001,1.0,1.0,1.0
3.1,692.0001,1.0,1.0,1.0
3.11,642.4999,1.0,1.0,1.0
3.12,729.4999,1.0,1.0,1.0
3.13,664.0001,1.0,1.0,1.0
3.14,662.0,1.0,1.0,1.0
3.15,675.0002,1.0,1.0,1.0
3.16,705.9997,1.0,1.0,1.0
3.17,636.9998,1.0,1.0,1.0
3.18,671.0004,1.0,1.0,1.0
3.19,669.4999,1.0,1.0,1.0
3.2,689.0,1.0,1.0,1.0
3.21,644.5002,1.0,1.0,1.0
3.22,629.4996,1.0,1.0,1.0
3.23,622.0,1.0,1.0,1.0
3.24,585.0002,1.0,1.0,1.0
3.25,613.5002,1.0,1.0,1.0
3.26,603.9999,1.0,1.0,1.0
3.27,623.9999,1.0,1.0,1.0
3.28,662.4998,1.0,1.0,1.0
3.29,620.5002,1.0,1.0,1.0
3.3,673.0001,1.0,1.0,1.0
3.31,583.4999,1.0,1.0,1.0
3.32,657.5004,1.0,1.0,1.0
3.33,608.9996,1.0,1.0,1.0
3.34,593.5002,1.0,1.0,1.0
3.35,587.4996,1.0,1.0,1.0
3.36,633.0002,1.0,1.0,1.0
3.37,589.4999,1.0,1.0,1.0
3.38,610.5002,1.0,1.0,1.0
3.39,588.5002,1.0,1.0,1.0
3.4,569.9998,1.0,1.0,1.0
3.41,504.4998,1.0,1.0,1.0
3.42,581.0,1.0,1.0,1.0
3.43,558.4999,1.0,1.0,1.0
3.44,508.5003,1.0,1.0,1.0
3.45,514.4998,1.0,1.0,1.0
3.46,484.0001,1.0,1.0,1.0
3.47,487.0,1.0,1.0,1.0
3.48,549.4999,1.0,1.0,1.0
3.49,509.5001,1.0,1.0,1.0
3.5,501.0,1.0,1.0,1.0
3.51,513.4998,1.0,1.0,1.0
3.52,508.0004,1.0,1.0,1.0
3.53,499.9997,1.0,1.0,1.0
3.54,506.9998,1.0,1.0,1.0
3.55,525.5002,1.0,1.0,1.0
3.56,520.9999,1.0,1.0,1.0
3.57,467.5002,1.0,1.0,1.0
3.58,474.5002,1.0,1.0,1.0
3.59,514.9997,1.0,1.0,1.0
3.6,472.5001,1.0,1.0,1.0
3.61,477.5004,1.0,1.0,1.0
3.62,440.9996,1.0,1.0,1.0
3.63,450.0004,1.0,1.0,1.0
3.64,428.5001,1.0,1.0,1.0
3.65,429.9997,1.0,1.0,1.0
3.66,474.5001,1.0,1.0,1.0
3.67,439.4999,1.0,1.0,1.0
3.68,433.5002,1.0,1.0,1.0
3.69,473.0,1.0,1.0,1.0
3.7,463.9998,1.0,1.0,1.0
3.71,444.0001,1.0,1.0,1.0
3.72,453.0001,1.0,1.0,1.0
3.73,504.0001,1.0,1.0,1.0
3.74,439.9998,1.0,1.0,1.0
3.75,452.0002,1.0,1.0,1.0
3.76,485.4998,1.0,1.0,1.0
3.77,448.5003,1.0,1.0,1.0
3.78,428.4996,1.0,1.0,1.0
3.79,448.5002,1.0,1.0,1.0
3.8,455.4998,1.0,1.0,1.0
3.81,461.5004,1.0,1.0,1.0
3.82,455.9999,1.0,1.0,1.0
3.83,484.0,1.0,1.0,1.0
3.84,452.9998,1.0,1.0,1.0
3.85,475.0002,1.0,1.0,1.0
3.86,482.4995,1.0,1.0,1.0
3.87,471.5001,1.0,1.0,1.0
3.88,447.5005,1.0,1.0,1.0
3.89,431.9997,1.0,1.0,1.0
3.9,489.0002,1.0,1.0,1.0
3.91,479.0001,1.0,1.0,1.0
3.92,458.9999,1.0,1.0,1.0
3.93,488.5001,1.0,1.0,1.0
3.94,455.4997,1.0,1.0,1.0
3.95,453.5004,1.0,1.0,1.0
3.96,481.9998,1.0,1.0,1.0
3.97,456.9996,1.0,1.0,1.0
3.98,452.5003,1.0,1.0,1.0
3.99,465.5004,1.0,1.0,1.0
4.0,406.4997,1.0,1.0,1.0
4.01,450.0,1.0,1.0,1.0
4.02,479.9999,1.0,1.0,1.0
4.03,456.0003,1.0,1.0,1.0
4.04,504.4995,1.0,1.0,1.0
4.05,444.0004,1.0,1.0,1.0
4.06,455.4998,1.0,1.0,1.0
4.07,448.0001,1.0,1.0,1.0
4.08,471.5002,1.0,1.0,1.0
4.09,451.9997,1.0,1.0,1.0
4.1,470.4999,1.0,1.0,1.0
4.11,479.0003,1.0,1.0,1.0
4.12,509.9999,1.0,1.0,1.0
4.13,461.0,1.0,1.0,1.0
4.14,463.4998,1.0,1.0,1.0
4.15,475.0,1.0,1.0,1.0
4.16,474.5001,1.0,1.0,1.0
4.17,462.4998,1.0,1.0,1.0
4.18,442.5004,1.0,1.0,1.0
4.19,487.5001,1.0,1.0,1.0
4.2,469.0,1.0,1.0,1.0
4.21,424.4995,1.0,1.0,1.0
4.22,393.0004,1.0,1.0,1.0
4.23,474.4997,1.0,1.0,1.0
4.24,450.5001,1.0,1.0,1.0
4.25,435.0003,1.0,1.0,1.0
4.26,456.4997,1.0,1.0,1.0
4.27,452.4999,1.0,1.0,1.0
4.28,488.0,1.0,1.0,1.0
4.29,478.5001,1.0,1.0,1.0
4.3,460.5002,1.0,1.0,1.0
4.31,453.9998,1.0,1.0,1.0
4.32,465.9999,1.0,1.0,1.0
4.33,419.4999,1.0,1.0,1.0
4.34,442.0002,1.0,1.0,1.0
4.35,442.9999,1.0,1.0,1.0
4.36,436.0001,1.0,1.0,1.0
4.37,431.5001,1.0,1.0,1.0
4.38,440.5001,1.0,1.0,1.0
4.39,406.0,1.0,1.0,1.0
4.4,429.4999,1.0,1.0,1.0
4.41,445.0001,1.0,1.0,1.0
4.42,410.9996,1.0,1.0,1.0
4.43,414.0004,1.0,1.0,1.0
4.44,433.4999,1.0,1.0,1.0
4.45,435.4999,1.0,1.0,1.0
4.46,391.0,1.0,1.0,1.0
4.47,448.0,1.0,1.0,1.0
4.48,397.5002,1.0,1.0,1.0
4.49,414.9999,1.0,1.0,1.0
4.5,392.4999,1.0,1.0,1.0