File: XRD:XRR/SCO/22154_SCO(CL)/22154_SCO(CL)_XRD.csv
#twotheta, yobs, ycal, bkg, diff
42.0,28.5056,1.0,1.0,1.0
42.01,24.4944,1.0,1.0,1.0
42.02,11.5056,1.0,1.0,1.0
42.03,19.0,1.0,1.0,1.0
42.04,27.0,1.0,1.0,1.0
42.05,12.4944,1.0,1.0,1.0
42.06,28.9667,1.0,1.0,1.0
42.07,38.5389,1.0,1.0,1.0
42.08,19.0,1.0,1.0,1.0
42.09,20.0,1.0,1.0,1.0
42.1,8.0,1.0,1.0,1.0
42.11,23.0,1.0,1.0,1.0
42.12,16.9889,1.0,1.0,1.0
42.13,23.0111,1.0,1.0,1.0
42.14,15.4944,1.0,1.0,1.0
42.15,13.5056,1.0,1.0,1.0
42.16,21.0,1.0,1.0,1.0
42.17,25.0,1.0,1.0,1.0
42.18,18.9889,1.0,1.0,1.0
42.19,25.0111,1.0,1.0,1.0
42.2,15.0,1.0,1.0,1.0
42.21,19.0,1.0,1.0,1.0
42.22,27.0,1.0,1.0,1.0
42.23,25.0,1.0,1.0,1.0
42.24,29.4944,1.0,1.0,1.0
42.25,15.5056,1.0,1.0,1.0
42.26,6.4944,1.0,1.0,1.0
42.27,26.5056,1.0,1.0,1.0
42.28,32.0,1.0,1.0,1.0
42.29,32.0,1.0,1.0,1.0
42.3,22.0,1.0,1.0,1.0
42.31,24.0,1.0,1.0,1.0
42.32,19.0,1.0,1.0,1.0
42.33,11.0,1.0,1.0,1.0
42.34,32.0,1.0,1.0,1.0
42.35,13.4944,1.0,1.0,1.0
42.36,24.5056,1.0,1.0,1.0
42.37,38.0,1.0,1.0,1.0
42.38,21.4944,1.0,1.0,1.0
42.39,23.5056,1.0,1.0,1.0
42.4,25.9889,1.0,1.0,1.0
42.41,23.0111,1.0,1.0,1.0
42.42,25.4944,1.0,1.0,1.0
42.43,20.0,1.0,1.0,1.0
42.44,8.0,1.0,1.0,1.0
42.45,16.5056,1.0,1.0,1.0
42.46,17.0,1.0,1.0,1.0
42.47,21.0,1.0,1.0,1.0
42.48,31.0,1.0,1.0,1.0
42.49,29.9889,1.0,1.0,1.0
42.5,22.0,1.0,1.0,1.0
42.51,25.0111,1.0,1.0,1.0
42.52,25.4944,1.0,1.0,1.0
42.53,19.5056,1.0,1.0,1.0
42.54,19.0,1.0,1.0,1.0
42.55,22.0,1.0,1.0,1.0
42.56,31.9889,1.0,1.0,1.0
42.57,31.5056,1.0,1.0,1.0
42.58,24.5056,1.0,1.0,1.0
42.59,18.0,1.0,1.0,1.0
42.6,51.9889,1.0,1.0,1.0
42.61,32.0111,1.0,1.0,1.0
42.62,27.4944,1.0,1.0,1.0
42.63,17.5056,1.0,1.0,1.0
42.64,34.4833,1.0,1.0,1.0
42.65,28.5167,1.0,1.0,1.0
42.66,16.4944,1.0,1.0,1.0
42.67,28.5056,1.0,1.0,1.0
42.68,31.0,1.0,1.0,1.0
42.69,35.0,1.0,1.0,1.0
42.7,30.0,1.0,1.0,1.0
42.71,13.4944,1.0,1.0,1.0
42.72,17.5056,1.0,1.0,1.0
42.73,22.0,1.0,1.0,1.0
42.74,36.0,1.0,1.0,1.0
42.75,17.0,1.0,1.0,1.0
42.76,31.9889,1.0,1.0,1.0
42.77,21.0111,1.0,1.0,1.0
42.78,20.0,1.0,1.0,1.0
42.79,25.0,1.0,1.0,1.0
42.8,27.0,1.0,1.0,1.0
42.81,22.9889,1.0,1.0,1.0
42.82,51.0111,1.0,1.0,1.0
42.83,26.0,1.0,1.0,1.0
42.84,27.0,1.0,1.0,1.0
42.85,32.9889,1.0,1.0,1.0
42.86,38.0111,1.0,1.0,1.0
42.87,32.0,1.0,1.0,1.0
42.88,40.4944,1.0,1.0,1.0
42.89,20.5056,1.0,1.0,1.0
42.9,32.0,1.0,1.0,1.0
42.91,28.4944,1.0,1.0,1.0
42.92,20.4944,1.0,1.0,1.0
42.93,16.5056,1.0,1.0,1.0
42.94,27.5056,1.0,1.0,1.0
42.95,25.0,1.0,1.0,1.0
42.96,27.0,1.0,1.0,1.0
42.97,36.0,1.0,1.0,1.0
42.98,38.0,1.0,1.0,1.0
42.99,19.4944,1.0,1.0,1.0
43.0,34.0,1.0,1.0,1.0
43.01,28.5056,1.0,1.0,1.0
43.02,27.0,1.0,1.0,1.0
43.03,22.0,1.0,1.0,1.0
43.04,31.0,1.0,1.0,1.0
43.05,34.9889,1.0,1.0,1.0
43.06,25.0111,1.0,1.0,1.0
43.07,26.0,1.0,1.0,1.0
43.08,31.0,1.0,1.0,1.0
43.09,41.4944,1.0,1.0,1.0
43.1,37.0,1.0,1.0,1.0
43.11,37.0,1.0,1.0,1.0
43.12,32.5056,1.0,1.0,1.0
43.13,36.0,1.0,1.0,1.0
43.14,23.0,1.0,1.0,1.0
43.15,30.0,1.0,1.0,1.0
43.16,35.0,1.0,1.0,1.0
43.17,36.0,1.0,1.0,1.0
43.18,32.0,1.0,1.0,1.0
43.19,31.4944,1.0,1.0,1.0
43.2,21.0,1.0,1.0,1.0
43.21,34.0,1.0,1.0,1.0
43.22,26.0,1.0,1.0,1.0
43.23,26.5056,1.0,1.0,1.0
43.24,37.0,1.0,1.0,1.0
43.25,21.0,1.0,1.0,1.0
43.26,22.0,1.0,1.0,1.0
43.27,44.0,1.0,1.0,1.0
43.28,31.0,1.0,1.0,1.0
43.29,24.0,1.0,1.0,1.0
43.3,35.0,1.0,1.0,1.0
43.31,23.0,1.0,1.0,1.0
43.32,29.0,1.0,1.0,1.0
43.33,47.0,1.0,1.0,1.0
43.34,23.4944,1.0,1.0,1.0
43.35,31.0,1.0,1.0,1.0
43.36,126.5056,1.0,1.0,1.0
43.37,25.0,1.0,1.0,1.0
43.38,34.0,1.0,1.0,1.0
43.39,40.4944,1.0,1.0,1.0
43.4,36.0,1.0,1.0,1.0
43.41,23.5056,1.0,1.0,1.0
43.42,24.0,1.0,1.0,1.0
43.43,26.0,1.0,1.0,1.0
43.44,21.4944,1.0,1.0,1.0
43.45,30.4944,1.0,1.0,1.0
43.46,32.5056,1.0,1.0,1.0
43.47,23.5056,1.0,1.0,1.0
43.48,31.9889,1.0,1.0,1.0
43.49,31.0,1.0,1.0,1.0
43.5,32.0,1.0,1.0,1.0
43.51,12.0111,1.0,1.0,1.0
43.52,47.4944,1.0,1.0,1.0
43.53,25.5056,1.0,1.0,1.0
43.54,44.0,1.0,1.0,1.0
43.55,26.4944,1.0,1.0,1.0
43.56,31.4944,1.0,1.0,1.0
43.57,44.5056,1.0,1.0,1.0
43.58,23.9778,1.0,1.0,1.0
43.59,15.5278,1.0,1.0,1.0
43.6,31.0,1.0,1.0,1.0
43.61,32.0,1.0,1.0,1.0
43.62,33.4833,1.0,1.0,1.0
43.63,30.5167,1.0,1.0,1.0
43.64,21.0,1.0,1.0,1.0
43.65,38.0,1.0,1.0,1.0
43.66,38.4944,1.0,1.0,1.0
43.67,30.5056,1.0,1.0,1.0
43.68,39.0,1.0,1.0,1.0
43.69,25.9889,1.0,1.0,1.0
43.7,24.5056,1.0,1.0,1.0
43.71,35.5056,1.0,1.0,1.0
43.72,30.4944,1.0,1.0,1.0
43.73,20.5056,1.0,1.0,1.0
43.74,36.0,1.0,1.0,1.0
43.75,18.0,1.0,1.0,1.0
43.76,30.9889,1.0,1.0,1.0
43.77,33.0111,1.0,1.0,1.0
43.78,32.0,1.0,1.0,1.0
43.79,26.0,1.0,1.0,1.0
43.8,26.4944,1.0,1.0,1.0
43.81,25.5056,1.0,1.0,1.0
43.82,16.0,1.0,1.0,1.0
43.83,19.0,1.0,1.0,1.0
43.84,19.0,1.0,1.0,1.0
43.85,41.4944,1.0,1.0,1.0
43.86,28.5056,1.0,1.0,1.0
43.87,18.0,1.0,1.0,1.0
43.88,23.0,1.0,1.0,1.0
43.89,17.4944,1.0,1.0,1.0
43.9,35.5056,1.0,1.0,1.0
43.91,25.0,1.0,1.0,1.0
43.92,26.0,1.0,1.0,1.0
43.93,12.0,1.0,1.0,1.0
43.94,38.0,1.0,1.0,1.0
43.95,30.0,1.0,1.0,1.0
43.96,33.0,1.0,1.0,1.0
43.97,14.0,1.0,1.0,1.0
43.98,10.0,1.0,1.0,1.0
43.99,29.9889,1.0,1.0,1.0
44.0,26.5056,1.0,1.0,1.0
44.01,25.0,1.0,1.0,1.0
44.02,20.5056,1.0,1.0,1.0
44.03,31.4944,1.0,1.0,1.0
44.04,47.0,1.0,1.0,1.0
44.05,34.4944,1.0,1.0,1.0
44.06,29.5056,1.0,1.0,1.0
44.07,28.5056,1.0,1.0,1.0
44.08,33.0,1.0,1.0,1.0
44.09,26.0,1.0,1.0,1.0
44.1,24.0,1.0,1.0,1.0
44.11,25.9889,1.0,1.0,1.0
44.12,53.0111,1.0,1.0,1.0
44.13,27.4944,1.0,1.0,1.0
44.14,26.4944,1.0,1.0,1.0
44.15,42.5056,1.0,1.0,1.0
44.16,40.5056,1.0,1.0,1.0
44.17,45.0,1.0,1.0,1.0
44.18,55.0,1.0,1.0,1.0
44.19,48.0,1.0,1.0,1.0
44.2,25.4944,1.0,1.0,1.0
44.21,42.5056,1.0,1.0,1.0
44.22,36.0,1.0,1.0,1.0
44.23,53.4944,1.0,1.0,1.0
44.24,40.0,1.0,1.0,1.0
44.25,44.5056,1.0,1.0,1.0
44.26,34.0,1.0,1.0,1.0
44.27,32.9889,1.0,1.0,1.0
44.28,32.0111,1.0,1.0,1.0
44.29,46.0,1.0,1.0,1.0
44.3,58.0,1.0,1.0,1.0
44.31,43.9889,1.0,1.0,1.0
44.32,64.0,1.0,1.0,1.0
44.33,45.0,1.0,1.0,1.0
44.34,52.0,1.0,1.0,1.0
44.35,45.5056,1.0,1.0,1.0
44.36,53.5056,1.0,1.0,1.0
44.37,49.0,1.0,1.0,1.0
44.38,39.9778,1.0,1.0,1.0
44.39,64.5056,1.0,1.0,1.0
44.4,52.5167,1.0,1.0,1.0
44.41,82.4944,1.0,1.0,1.0
44.42,56.4944,1.0,1.0,1.0
44.43,63.0,1.0,1.0,1.0
44.44,73.0,1.0,1.0,1.0
44.45,61.0,1.0,1.0,1.0
44.46,63.0111,1.0,1.0,1.0
44.47,67.9889,1.0,1.0,1.0
44.48,78.5056,1.0,1.0,1.0
44.49,86.5056,1.0,1.0,1.0
44.5,83.4833,1.0,1.0,1.0
44.51,103.5056,1.0,1.0,1.0
44.52,112.4944,1.0,1.0,1.0
44.53,96.5167,1.0,1.0,1.0
44.54,102.9778,1.0,1.0,1.0
44.55,96.4944,1.0,1.0,1.0
44.56,130.5167,1.0,1.0,1.0
44.57,85.5056,1.0,1.0,1.0
44.58,126.9889,1.0,1.0,1.0
44.59,96.0111,1.0,1.0,1.0
44.6,97.4944,1.0,1.0,1.0
44.61,125.0,1.0,1.0,1.0
44.62,105.0111,1.0,1.0,1.0
44.63,124.9889,1.0,1.0,1.0
44.64,149.9889,1.0,1.0,1.0
44.65,146.5056,1.0,1.0,1.0
44.66,119.5056,1.0,1.0,1.0
44.67,127.9889,1.0,1.0,1.0
44.68,136.0111,1.0,1.0,1.0
44.69,155.0,1.0,1.0,1.0
44.7,146.9889,1.0,1.0,1.0
44.71,150.9889,1.0,1.0,1.0
44.72,164.5167,1.0,1.0,1.0
44.73,154.0,1.0,1.0,1.0
44.74,161.9889,1.0,1.0,1.0
44.75,180.4944,1.0,1.0,1.0
44.76,180.5167,1.0,1.0,1.0
44.77,193.0111,1.0,1.0,1.0
44.78,174.4944,1.0,1.0,1.0
44.79,221.9889,1.0,1.0,1.0
44.8,185.4833,1.0,1.0,1.0
44.81,198.0333,1.0,1.0,1.0
44.82,191.9667,1.0,1.0,1.0
44.83,225.0111,1.0,1.0,1.0
44.84,223.9889,1.0,1.0,1.0
44.85,205.0222,1.0,1.0,1.0
44.86,184.0,1.0,1.0,1.0
44.87,250.9778,1.0,1.0,1.0
44.88,254.5167,1.0,1.0,1.0
44.89,236.9889,1.0,1.0,1.0
44.9,271.0111,1.0,1.0,1.0
44.91,275.9556,1.0,1.0,1.0
44.92,268.0333,1.0,1.0,1.0
44.93,275.0,1.0,1.0,1.0
44.94,279.5278,1.0,1.0,1.0
44.95,285.4722,1.0,1.0,1.0
44.96,334.4833,1.0,1.0,1.0
44.97,325.0222,1.0,1.0,1.0
44.98,323.4944,1.0,1.0,1.0
44.99,331.5056,1.0,1.0,1.0
45.0,313.4722,1.0,1.0,1.0
45.01,364.0,1.0,1.0,1.0
45.02,338.5167,1.0,1.0,1.0
45.03,334.0111,1.0,1.0,1.0
45.04,358.5056,1.0,1.0,1.0
45.05,398.9667,1.0,1.0,1.0
45.06,415.5389,1.0,1.0,1.0
45.07,365.9889,1.0,1.0,1.0
45.08,367.4944,1.0,1.0,1.0
45.09,409.4833,1.0,1.0,1.0
45.1,415.0111,1.0,1.0,1.0
45.11,422.9667,1.0,1.0,1.0
45.12,430.4722,1.0,1.0,1.0
45.13,500.5389,1.0,1.0,1.0
45.14,472.5056,1.0,1.0,1.0
45.15,486.5056,1.0,1.0,1.0
45.16,508.0111,1.0,1.0,1.0
45.17,455.4944,1.0,1.0,1.0
45.18,504.0,1.0,1.0,1.0
45.19,442.4833,1.0,1.0,1.0
45.2,556.4944,1.0,1.0,1.0
45.21,557.5167,1.0,1.0,1.0
45.22,527.4944,1.0,1.0,1.0
45.23,596.4833,1.0,1.0,1.0
45.24,560.5278,1.0,1.0,1.0
45.25,560.9889,1.0,1.0,1.0
45.26,621.9667,1.0,1.0,1.0
45.27,565.0222,1.0,1.0,1.0
45.28,616.9667,1.0,1.0,1.0
45.29,650.5278,1.0,1.0,1.0
45.3,647.5278,1.0,1.0,1.0
45.31,660.45,1.0,1.0,1.0
45.32,690.0333,1.0,1.0,1.0
45.33,722.4944,1.0,1.0,1.0
45.34,628.4944,1.0,1.0,1.0
45.35,702.4833,1.0,1.0,1.0
45.36,731.5278,1.0,1.0,1.0
45.37,705.9889,1.0,1.0,1.0
45.38,742.9778,1.0,1.0,1.0
45.39,764.0111,1.0,1.0,1.0
45.4,710.9778,1.0,1.0,1.0
45.41,793.5611,1.0,1.0,1.0
45.42,749.9445,1.0,1.0,1.0
45.43,851.0333,1.0,1.0,1.0
45.44,819.9556,1.0,1.0,1.0
45.45,877.0111,1.0,1.0,1.0
45.46,818.0111,1.0,1.0,1.0
45.47,871.9667,1.0,1.0,1.0
45.48,809.5278,1.0,1.0,1.0
45.49,876.9667,1.0,1.0,1.0
45.5,905.0778,1.0,1.0,1.0
45.51,894.45,1.0,1.0,1.0
45.52,910.0222,1.0,1.0,1.0
45.53,898.9778,1.0,1.0,1.0
45.54,970.9889,1.0,1.0,1.0
45.55,974.5167,1.0,1.0,1.0
45.56,979.9333,1.0,1.0,1.0
45.57,988.0333,1.0,1.0,1.0
45.58,1076.49,1.0,1.0,1.0
45.59,1120.56,1.0,1.0,1.0
45.6,1088.44,1.0,1.0,1.0
45.61,1097.03,1.0,1.0,1.0
45.62,1129.87,1.0,1.0,1.0
45.63,1166.59,1.0,1.0,1.0
45.64,1065.0,1.0,1.0,1.0
45.65,1101.55,1.0,1.0,1.0
45.66,1148.92,1.0,1.0,1.0
45.67,1182.55,1.0,1.0,1.0
45.68,1170.97,1.0,1.0,1.0
45.69,1154.53,1.0,1.0,1.0
45.7,1278.45,1.0,1.0,1.0
45.71,1238.56,1.0,1.0,1.0
45.72,1316.46,1.0,1.0,1.0
45.73,1338.02,1.0,1.0,1.0
45.74,1234.96,1.0,1.0,1.0
45.75,1334.56,1.0,1.0,1.0
45.76,1359.98,1.0,1.0,1.0
45.77,1421.94,1.0,1.0,1.0
45.78,1459.07,1.0,1.0,1.0
45.79,1487.51,1.0,1.0,1.0
45.8,1500.98,1.0,1.0,1.0
45.81,1623.45,1.0,1.0,1.0
45.82,1500.53,1.0,1.0,1.0
45.83,1616.49,1.0,1.0,1.0
45.84,1692.53,1.0,1.0,1.0
45.85,1574.45,1.0,1.0,1.0
45.86,1689.06,1.0,1.0,1.0
45.87,1775.41,1.0,1.0,1.0
45.88,1765.55,1.0,1.0,1.0
45.89,1793.98,1.0,1.0,1.0
45.9,1821.0,1.0,1.0,1.0
45.91,1830.51,1.0,1.0,1.0
45.92,1972.99,1.0,1.0,1.0
45.93,2035.02,1.0,1.0,1.0
45.94,2052.92,1.0,1.0,1.0
45.95,2098.0,1.0,1.0,1.0
45.96,1997.01,1.0,1.0,1.0
45.97,2049.02,1.0,1.0,1.0
45.98,2122.99,1.0,1.0,1.0
45.99,2194.0,1.0,1.0,1.0
46.0,2368.51,1.0,1.0,1.0
46.01,2270.99,1.0,1.0,1.0
46.02,2124.53,1.0,1.0,1.0
46.03,2245.98,1.0,1.0,1.0
46.04,2291.97,1.0,1.0,1.0
46.05,2375.06,1.0,1.0,1.0
46.06,2494.92,1.0,1.0,1.0
46.07,2390.55,1.0,1.0,1.0
46.08,2615.98,1.0,1.0,1.0
46.09,2480.48,1.0,1.0,1.0
46.1,2517.52,1.0,1.0,1.0
46.11,2562.53,1.0,1.0,1.0
46.12,2674.43,1.0,1.0,1.0
46.13,2730.51,1.0,1.0,1.0
46.14,2858.49,1.0,1.0,1.0
46.15,2911.94,1.0,1.0,1.0
46.16,2891.63,1.0,1.0,1.0
46.17,2911.35,1.0,1.0,1.0
46.18,3078.55,1.0,1.0,1.0
46.19,3106.02,1.0,1.0,1.0
46.2,3212.99,1.0,1.0,1.0
46.21,3323.42,1.0,1.0,1.0
46.22,3387.01,1.0,1.0,1.0
46.23,3477.51,1.0,1.0,1.0
46.24,3461.46,1.0,1.0,1.0
46.25,3620.58,1.0,1.0,1.0
46.26,3624.43,1.0,1.0,1.0
46.27,3900.13,1.0,1.0,1.0
46.28,3952.38,1.0,1.0,1.0
46.29,3973.93,1.0,1.0,1.0
46.3,3931.51,1.0,1.0,1.0
46.31,4273.09,1.0,1.0,1.0
46.32,4111.47,1.0,1.0,1.0
46.33,4440.96,1.0,1.0,1.0
46.34,4340.49,1.0,1.0,1.0
46.35,4518.89,1.0,1.0,1.0
46.36,4588.07,1.0,1.0,1.0
46.37,4630.04,1.0,1.0,1.0
46.38,4654.94,1.0,1.0,1.0
46.39,4729.98,1.0,1.0,1.0
46.4,4857.99,1.0,1.0,1.0
46.41,4961.94,1.0,1.0,1.0
46.42,4840.12,1.0,1.0,1.0
46.43,4862.48,1.0,1.0,1.0
46.44,4961.91,1.0,1.0,1.0
46.45,5041.97,1.0,1.0,1.0
46.46,5020.0,1.0,1.0,1.0
46.47,4981.04,1.0,1.0,1.0
46.48,4984.65,1.0,1.0,1.0
46.49,4861.88,1.0,1.0,1.0
46.5,4976.55,1.0,1.0,1.0
46.51,5097.439,1.0,1.0,1.0
46.52,5024.55,1.0,1.0,1.0
46.53,5031.99,1.0,1.0,1.0
46.54,4840.89,1.0,1.0,1.0
46.55,4774.59,1.0,1.0,1.0
46.56,4634.62,1.0,1.0,1.0
46.57,4627.35,1.0,1.0,1.0
46.58,4562.11,1.0,1.0,1.0
46.59,4463.97,1.0,1.0,1.0
46.6,4350.02,1.0,1.0,1.0
46.61,4295.48,1.0,1.0,1.0
46.62,4277.08,1.0,1.0,1.0
46.63,4110.91,1.0,1.0,1.0
46.64,3873.51,1.0,1.0,1.0
46.65,4020.53,1.0,1.0,1.0
46.66,3845.14,1.0,1.0,1.0
46.67,3744.45,1.0,1.0,1.0
46.68,3713.03,1.0,1.0,1.0
46.69,3409.02,1.0,1.0,1.0
46.7,3449.43,1.0,1.0,1.0
46.71,3412.52,1.0,1.0,1.0
46.72,3310.07,1.0,1.0,1.0
46.73,3040.48,1.0,1.0,1.0
46.74,3049.49,1.0,1.0,1.0
46.75,2932.49,1.0,1.0,1.0
46.76,2811.54,1.0,1.0,1.0
46.77,2686.03,1.0,1.0,1.0
46.78,2688.51,1.0,1.0,1.0
46.79,2538.51,1.0,1.0,1.0
46.8,2507.51,1.0,1.0,1.0
46.81,2421.99,1.0,1.0,1.0
46.82,2258.03,1.0,1.0,1.0
46.83,2201.01,1.0,1.0,1.0
46.84,2165.0,1.0,1.0,1.0
46.85,2035.58,1.0,1.0,1.0
46.86,2000.96,1.0,1.0,1.0
46.87,1900.0,1.0,1.0,1.0
46.88,1854.49,1.0,1.0,1.0
46.89,1850.46,1.0,1.0,1.0
46.9,1703.53,1.0,1.0,1.0
46.91,1616.58,1.0,1.0,1.0
46.92,1544.44,1.0,1.0,1.0
46.93,1511.51,1.0,1.0,1.0
46.94,1460.47,1.0,1.0,1.0
46.95,1365.54,1.0,1.0,1.0
46.96,1330.03,1.0,1.0,1.0
46.97,1320.01,1.0,1.0,1.0
46.98,1277.49,1.0,1.0,1.0
46.99,1226.98,1.0,1.0,1.0
47.0,1160.55,1.0,1.0,1.0
47.01,1138.93,1.0,1.0,1.0
47.02,1130.54,1.0,1.0,1.0
47.03,1032.46,1.0,1.0,1.0
47.04,1085.52,1.0,1.0,1.0
47.05,1002.0,1.0,1.0,1.0
47.06,990.5278,1.0,1.0,1.0
47.07,992.5056,1.0,1.0,1.0
47.08,1022.04,1.0,1.0,1.0
47.09,936.9556,1.0,1.0,1.0
47.1,976.0111,1.0,1.0,1.0
47.11,911.5056,1.0,1.0,1.0
47.12,936.9556,1.0,1.0,1.0
47.13,958.0111,1.0,1.0,1.0
47.14,972.5167,1.0,1.0,1.0
47.15,935.5056,1.0,1.0,1.0
47.16,987.4833,1.0,1.0,1.0
47.17,982.4722,1.0,1.0,1.0
47.18,1010.54,1.0,1.0,1.0
47.19,965.5278,1.0,1.0,1.0
47.2,1041.46,1.0,1.0,1.0
47.21,1101.0,1.0,1.0,1.0
47.22,991.5056,1.0,1.0,1.0
47.23,1061.49,1.0,1.0,1.0
47.24,1066.51,1.0,1.0,1.0
47.25,1082.98,1.0,1.0,1.0
47.26,1135.47,1.0,1.0,1.0
47.27,1190.08,1.0,1.0,1.0
47.28,1194.99,1.0,1.0,1.0
47.29,1161.41,1.0,1.0,1.0
47.3,1251.0,1.0,1.0,1.0
47.31,1276.06,1.0,1.0,1.0
47.32,1319.48,1.0,1.0,1.0
47.33,1239.54,1.0,1.0,1.0
47.34,1375.44,1.0,1.0,1.0
47.35,1424.47,1.0,1.0,1.0
47.36,1459.55,1.0,1.0,1.0
47.37,1480.99,1.0,1.0,1.0
47.38,1500.97,1.0,1.0,1.0
47.39,1545.53,1.0,1.0,1.0
47.4,1570.0,1.0,1.0,1.0
47.41,1587.01,1.0,1.0,1.0
47.42,1660.89,1.0,1.0,1.0
47.43,1684.08,1.0,1.0,1.0
47.44,1723.47,1.0,1.0,1.0
47.45,1837.45,1.0,1.0,1.0
47.46,1899.03,1.0,1.0,1.0
47.47,1917.01,1.0,1.0,1.0
47.48,2036.97,1.0,1.0,1.0
47.49,2060.06,1.0,1.0,1.0
47.5,2138.49,1.0,1.0,1.0
47.51,2214.96,1.0,1.0,1.0
47.52,2233.52,1.0,1.0,1.0
47.53,2338.38,1.0,1.0,1.0
47.54,2217.58,1.0,1.0,1.0
47.55,2600.49,1.0,1.0,1.0
47.56,2550.0,1.0,1.0,1.0
47.57,2664.03,1.0,1.0,1.0
47.58,2719.91,1.0,1.0,1.0
47.59,2949.47,1.0,1.0,1.0
47.6,3003.93,1.0,1.0,1.0
47.61,3189.57,1.0,1.0,1.0
47.62,3491.37,1.0,1.0,1.0
47.63,3554.04,1.0,1.0,1.0
47.64,3581.03,1.0,1.0,1.0
47.65,3883.49,1.0,1.0,1.0
47.66,4180.96,1.0,1.0,1.0
47.67,4455.93,1.0,1.0,1.0
47.68,4688.96,1.0,1.0,1.0
47.69,5050.49,1.0,1.0,1.0
47.7,5460.49,1.0,1.0,1.0
47.71,5695.39,1.0,1.0,1.0
47.72,6276.99,1.0,1.0,1.0
47.73,6745.86,1.0,1.0,1.0
47.74,7433.35,1.0,1.0,1.0
47.75,8495.61,1.0,1.0,1.0
47.76,9409.57,1.0,1.0,1.0
47.77,10489.1,1.0,1.0,1.0
47.78,11607.9,1.0,1.0,1.0
47.79,13274.3,1.0,1.0,1.0
47.8,15209.2,1.0,1.0,1.0
47.81,17791.3,1.0,1.0,1.0
47.82,21056.916,1.0,1.0,1.0
47.83,25010.3,1.0,1.0,1.0
47.84,30262.3,1.0,1.0,1.0
47.85,38121.9,1.0,1.0,1.0
47.86,48078.1,1.0,1.0,1.0
47.87,62040.8,1.0,1.0,1.0
47.88,80394.3,1.0,1.0,1.0
47.89,106205,1.0,1.0,1.0
47.9,143719,1.0,1.0,1.0
47.91,199878,1.0,1.0,1.0
47.92,289846,1.0,1.0,1.0
47.93,439331,1.0,1.0,1.0
47.94,722743.25,1.0,1.0,1.0
47.95,1688141.5,1.0,1.0,1.0
47.96,8545320.0,1.0,1.0,1.0
47.97,22793234.0,1.0,1.0,1.0
47.98,31314806.0,1.0,1.0,1.0
47.99,34584904.0,1.0,1.0,1.0
48.0,30049754.0,1.0,1.0,1.0
48.01,14340137.0,1.0,1.0,1.0
48.02,9554620.0,1.0,1.0,1.0
48.03,4582317.5,1.0,1.0,1.0
48.04,982106.25,1.0,1.0,1.0
48.05,384488,1.0,1.0,1.0
48.06,237536,1.0,1.0,1.0
48.07,159940,1.0,1.0,1.0
48.08,111944,1.0,1.0,1.0
48.09,79772.7,1.0,1.0,1.0
48.1,58643.5,1.0,1.0,1.0
48.11,45015.1,1.0,1.0,1.0
48.12,35020.3,1.0,1.0,1.0
48.13,28151.4,1.0,1.0,1.0
48.14,23289.7,1.0,1.0,1.0
48.15,18885.8,1.0,1.0,1.0
48.16,15858.3,1.0,1.0,1.0
48.17,13427.3,1.0,1.0,1.0
48.18,11660.6,1.0,1.0,1.0
48.19,10175.7,1.0,1.0,1.0
48.2,8897.08,1.0,1.0,1.0
48.21,7484.67,1.0,1.0,1.0
48.22,6488.01,1.0,1.0,1.0
48.23,5863.1,1.0,1.0,1.0
48.24,5229.1,1.0,1.0,1.0
48.25,4550.01,1.0,1.0,1.0
48.26,4193.18,1.0,1.0,1.0
48.27,3687.93,1.0,1.0,1.0
48.28,3299.07,1.0,1.0,1.0
48.29,3100.48,1.0,1.0,1.0
48.3,2710.09,1.0,1.0,1.0
48.31,2560.98,1.0,1.0,1.0
48.32,2356.561,1.0,1.0,1.0
48.33,2187.99,1.0,1.0,1.0
48.34,2031.53,1.0,1.0,1.0
48.35,1814.55,1.0,1.0,1.0
48.36,1656.0,1.0,1.0,1.0
48.37,1378.53,1.0,1.0,1.0
48.38,1325.98,1.0,1.0,1.0
48.39,1336.48,1.0,1.0,1.0
48.4,1176.53,1.0,1.0,1.0
48.41,1080.49,1.0,1.0,1.0
48.42,1007.51,1.0,1.0,1.0
48.43,960.0222,1.0,1.0,1.0
48.44,842.4833,1.0,1.0,1.0
48.45,833.5389,1.0,1.0,1.0
48.46,743.0,1.0,1.0,1.0
48.47,735.0111,1.0,1.0,1.0
48.48,630.9778,1.0,1.0,1.0
48.49,623.0222,1.0,1.0,1.0
48.5,599.5167,1.0,1.0,1.0
48.51,611.9778,1.0,1.0,1.0
48.52,535.5167,1.0,1.0,1.0
48.53,516.9889,1.0,1.0,1.0
48.54,508.5167,1.0,1.0,1.0
48.55,429.5167,1.0,1.0,1.0
48.56,370.0,1.0,1.0,1.0
48.57,393.4944,1.0,1.0,1.0
48.58,425.5278,1.0,1.0,1.0
48.59,394.9778,1.0,1.0,1.0
48.6,377.4833,1.0,1.0,1.0
48.61,344.5278,1.0,1.0,1.0
48.62,361.4833,1.0,1.0,1.0
48.63,374.5056,1.0,1.0,1.0
48.64,314.9667,1.0,1.0,1.0
48.65,312.5278,1.0,1.0,1.0
48.66,308.5056,1.0,1.0,1.0
48.67,252.0222,1.0,1.0,1.0
48.68,263.4833,1.0,1.0,1.0
48.69,238.5167,1.0,1.0,1.0
48.7,233.9889,1.0,1.0,1.0
48.71,243.0222,1.0,1.0,1.0
48.72,219.9778,1.0,1.0,1.0
48.73,201.0,1.0,1.0,1.0
48.74,189.0111,1.0,1.0,1.0
48.75,207.9889,1.0,1.0,1.0
48.76,189.9778,1.0,1.0,1.0
48.77,154.5278,1.0,1.0,1.0
48.78,195.5056,1.0,1.0,1.0
48.79,178.5056,1.0,1.0,1.0
48.8,205.9889,1.0,1.0,1.0
48.81,171.5167,1.0,1.0,1.0
48.82,143.4944,1.0,1.0,1.0
48.83,164.0,1.0,1.0,1.0
48.84,176.0,1.0,1.0,1.0
48.85,155.0,1.0,1.0,1.0
48.86,126.9889,1.0,1.0,1.0
48.87,172.5056,1.0,1.0,1.0
48.88,145.9889,1.0,1.0,1.0
48.89,104.5056,1.0,1.0,1.0
48.9,128.0,1.0,1.0,1.0
48.91,118.5056,1.0,1.0,1.0
48.92,111.5056,1.0,1.0,1.0
48.93,121.9889,1.0,1.0,1.0
48.94,100.4944,1.0,1.0,1.0
48.95,103.5056,1.0,1.0,1.0
48.96,120.5167,1.0,1.0,1.0
48.97,89.4944,1.0,1.0,1.0
48.98,91.0,1.0,1.0,1.0
48.99,108.4944,1.0,1.0,1.0
49.0,82.4944,1.0,1.0,1.0
49.01,117.0111,1.0,1.0,1.0
49.02,79.0111,1.0,1.0,1.0
49.03,92.4944,1.0,1.0,1.0
49.04,83.9889,1.0,1.0,1.0
49.05,91.0,1.0,1.0,1.0
49.06,63.4944,1.0,1.0,1.0
49.07,84.0111,1.0,1.0,1.0
49.08,82.0,1.0,1.0,1.0
49.09,75.5056,1.0,1.0,1.0
49.1,84.5056,1.0,1.0,1.0
49.11,58.9889,1.0,1.0,1.0
49.12,82.0,1.0,1.0,1.0
49.13,61.4944,1.0,1.0,1.0
49.14,76.5056,1.0,1.0,1.0
49.15,57.5056,1.0,1.0,1.0
49.16,101.4833,1.0,1.0,1.0
49.17,65.0111,1.0,1.0,1.0
49.18,71.0,1.0,1.0,1.0
49.19,58.5056,1.0,1.0,1.0
49.2,76.9889,1.0,1.0,1.0
49.21,48.0,1.0,1.0,1.0
49.22,67.5167,1.0,1.0,1.0
49.23,55.4944,1.0,1.0,1.0
49.24,61.5056,1.0,1.0,1.0
49.25,45.4944,1.0,1.0,1.0
49.26,71.4944,1.0,1.0,1.0
49.27,55.0,1.0,1.0,1.0
49.28,58.9889,1.0,1.0,1.0
49.29,60.0222,1.0,1.0,1.0
49.3,45.4944,1.0,1.0,1.0
49.31,61.4833,1.0,1.0,1.0
49.32,46.5167,1.0,1.0,1.0
49.33,36.4944,1.0,1.0,1.0
49.34,46.0,1.0,1.0,1.0
49.35,39.0111,1.0,1.0,1.0
49.36,56.9889,1.0,1.0,1.0
49.37,60.5056,1.0,1.0,1.0
49.38,49.5056,1.0,1.0,1.0
49.39,39.9889,1.0,1.0,1.0
49.4,52.5056,1.0,1.0,1.0
49.41,65.0,1.0,1.0,1.0
49.42,48.0,1.0,1.0,1.0
49.43,58.5056,1.0,1.0,1.0
49.44,56.0,1.0,1.0,1.0
49.45,57.0,1.0,1.0,1.0
49.46,61.0,1.0,1.0,1.0
49.47,43.4944,1.0,1.0,1.0
49.48,46.5056,1.0,1.0,1.0
49.49,52.0,1.0,1.0,1.0
49.5,43.4944,1.0,1.0,1.0
49.51,81.0,1.0,1.0,1.0
49.52,55.5056,1.0,1.0,1.0
49.53,40.0,1.0,1.0,1.0
49.54,38.4944,1.0,1.0,1.0
49.55,37.5056,1.0,1.0,1.0
49.56,46.0,1.0,1.0,1.0
49.57,40.9889,1.0,1.0,1.0
49.58,52.5056,1.0,1.0,1.0
49.59,48.4944,1.0,1.0,1.0
49.6,37.0111,1.0,1.0,1.0
49.61,42.4944,1.0,1.0,1.0
49.62,38.5056,1.0,1.0,1.0
49.63,47.0,1.0,1.0,1.0
49.64,41.9889,1.0,1.0,1.0
49.65,35.5056,1.0,1.0,1.0
49.66,46.4944,1.0,1.0,1.0
49.67,41.0111,1.0,1.0,1.0
49.68,35.0,1.0,1.0,1.0
49.69,20.0,1.0,1.0,1.0
49.7,26.0,1.0,1.0,1.0
49.71,51.0,1.0,1.0,1.0
49.72,28.0,1.0,1.0,1.0
49.73,32.0,1.0,1.0,1.0
49.74,36.4944,1.0,1.0,1.0
49.75,40.5056,1.0,1.0,1.0
49.76,35.9889,1.0,1.0,1.0
49.77,50.0,1.0,1.0,1.0
49.78,40.5056,1.0,1.0,1.0
49.79,22.5056,1.0,1.0,1.0
49.8,31.9889,1.0,1.0,1.0
49.81,31.5056,1.0,1.0,1.0
49.82,34.5056,1.0,1.0,1.0
49.83,26.0,1.0,1.0,1.0
49.84,30.4944,1.0,1.0,1.0
49.85,25.5056,1.0,1.0,1.0
49.86,44.0,1.0,1.0,1.0
49.87,38.4944,1.0,1.0,1.0
49.88,44.0,1.0,1.0,1.0
49.89,30.5056,1.0,1.0,1.0
49.9,38.4944,1.0,1.0,1.0
49.91,29.0,1.0,1.0,1.0
49.92,28.0,1.0,1.0,1.0
49.93,35.5056,1.0,1.0,1.0
49.94,23.9889,1.0,1.0,1.0
49.95,35.5056,1.0,1.0,1.0
49.96,45.0,1.0,1.0,1.0
49.97,26.5056,1.0,1.0,1.0
49.98,28.0,1.0,1.0,1.0
49.99,32.9889,1.0,1.0,1.0
50.0,36.4944,1.0,1.0,1.0
50.01,21.5167,1.0,1.0,1.0
50.02,23.0,1.0,1.0,1.0
50.03,24.0,1.0,1.0,1.0
50.04,29.0,1.0,1.0,1.0
50.05,26.0,1.0,1.0,1.0
50.06,44.0,1.0,1.0,1.0
50.07,29.9889,1.0,1.0,1.0
50.08,30.0111,1.0,1.0,1.0
50.09,34.4944,1.0,1.0,1.0
50.1,30.5056,1.0,1.0,1.0
50.11,30.4944,1.0,1.0,1.0
50.12,40.5056,1.0,1.0,1.0
50.13,24.0,1.0,1.0,1.0
50.14,36.0,1.0,1.0,1.0
50.15,28.9889,1.0,1.0,1.0
50.16,28.0111,1.0,1.0,1.0
50.17,35.9889,1.0,1.0,1.0
50.18,29.0,1.0,1.0,1.0
50.19,42.5056,1.0,1.0,1.0
50.2,17.5056,1.0,1.0,1.0
50.21,23.0,1.0,1.0,1.0
50.22,28.0,1.0,1.0,1.0
50.23,28.9889,1.0,1.0,1.0
50.24,16.0111,1.0,1.0,1.0
50.25,20.4944,1.0,1.0,1.0
50.26,30.0,1.0,1.0,1.0
50.27,32.4944,1.0,1.0,1.0
50.28,39.0,1.0,1.0,1.0
50.29,25.5056,1.0,1.0,1.0
50.3,35.0,1.0,1.0,1.0
50.31,24.4944,1.0,1.0,1.0
50.32,31.5056,1.0,1.0,1.0
50.33,41.0,1.0,1.0,1.0
50.34,18.5056,1.0,1.0,1.0
50.35,24.0,1.0,1.0,1.0
50.36,19.0,1.0,1.0,1.0
50.37,41.9889,1.0,1.0,1.0
50.38,27.0111,1.0,1.0,1.0
50.39,29.0,1.0,1.0,1.0
50.4,35.0,1.0,1.0,1.0
50.41,27.4944,1.0,1.0,1.0
50.42,24.5056,1.0,1.0,1.0
50.43,14.0,1.0,1.0,1.0
50.44,20.4944,1.0,1.0,1.0
50.45,24.5056,1.0,1.0,1.0
50.46,36.9889,1.0,1.0,1.0
50.47,32.0111,1.0,1.0,1.0
50.48,24.0,1.0,1.0,1.0
50.49,30.0,1.0,1.0,1.0
50.5,20.4944,1.0,1.0,1.0
50.51,34.0,1.0,1.0,1.0
50.52,26.0,1.0,1.0,1.0
50.53,32.5056,1.0,1.0,1.0
50.54,38.4944,1.0,1.0,1.0
50.55,24.0,1.0,1.0,1.0
50.56,50.0,1.0,1.0,1.0
50.57,17.4944,1.0,1.0,1.0
50.58,23.5056,1.0,1.0,1.0
50.59,31.0,1.0,1.0,1.0
50.6,24.5056,1.0,1.0,1.0
50.61,14.0,1.0,1.0,1.0
50.62,15.0,1.0,1.0,1.0
50.63,28.4944,1.0,1.0,1.0
50.64,28.0,1.0,1.0,1.0
50.65,20.0,1.0,1.0,1.0
50.66,25.5056,1.0,1.0,1.0
50.67,28.0,1.0,1.0,1.0
50.68,31.0,1.0,1.0,1.0
50.69,23.4944,1.0,1.0,1.0
50.7,33.5056,1.0,1.0,1.0
50.71,28.0,1.0,1.0,1.0
50.72,48.9889,1.0,1.0,1.0
50.73,15.0111,1.0,1.0,1.0
50.74,24.0,1.0,1.0,1.0
50.75,25.0,1.0,1.0,1.0
50.76,48.0,1.0,1.0,1.0
50.77,28.0,1.0,1.0,1.0
50.78,22.0,1.0,1.0,1.0
50.79,23.9889,1.0,1.0,1.0
50.8,66.5056,1.0,1.0,1.0
50.81,32.5056,1.0,1.0,1.0
50.82,27.0,1.0,1.0,1.0
50.83,20.0,1.0,1.0,1.0
50.84,12.0,1.0,1.0,1.0
50.85,27.0,1.0,1.0,1.0
50.86,23.0,1.0,1.0,1.0
50.87,35.0,1.0,1.0,1.0
50.88,15.9889,1.0,1.0,1.0
50.89,25.0111,1.0,1.0,1.0
50.9,30.0,1.0,1.0,1.0
50.91,18.0,1.0,1.0,1.0
50.92,21.0,1.0,1.0,1.0
50.93,13.0,1.0,1.0,1.0
50.94,27.0,1.0,1.0,1.0
50.95,17.0,1.0,1.0,1.0
50.96,30.0,1.0,1.0,1.0
50.97,18.0,1.0,1.0,1.0
50.98,25.0,1.0,1.0,1.0
50.99,21.0,1.0,1.0,1.0
51.0,19.4944,1.0,1.0,1.0
51.01,38.5056,1.0,1.0,1.0
51.02,32.0,1.0,1.0,1.0
51.03,43.0,1.0,1.0,1.0
51.04,27.0,1.0,1.0,1.0
51.05,19.0,1.0,1.0,1.0
51.06,58.0,1.0,1.0,1.0
51.07,4.0,1.0,1.0,1.0
51.08,18.4944,1.0,1.0,1.0
51.09,25.0,1.0,1.0,1.0
51.1,26.5056,1.0,1.0,1.0
51.11,13.0,1.0,1.0,1.0
51.12,27.4944,1.0,1.0,1.0
51.13,22.5056,1.0,1.0,1.0
51.14,13.0,1.0,1.0,1.0
51.15,19.9889,1.0,1.0,1.0
51.16,21.0111,1.0,1.0,1.0
51.17,27.0,1.0,1.0,1.0
51.18,15.0,1.0,1.0,1.0
51.19,22.0,1.0,1.0,1.0
51.2,22.0,1.0,1.0,1.0
51.21,21.4944,1.0,1.0,1.0
51.22,28.5056,1.0,1.0,1.0
51.23,17.0,1.0,1.0,1.0
51.24,20.9889,1.0,1.0,1.0
51.25,27.0,1.0,1.0,1.0
51.26,20.0,1.0,1.0,1.0
51.27,16.0111,1.0,1.0,1.0
51.28,14.0,1.0,1.0,1.0
51.29,19.4944,1.0,1.0,1.0
51.3,17.5056,1.0,1.0,1.0
51.31,20.0,1.0,1.0,1.0
51.32,24.4944,1.0,1.0,1.0
51.33,16.5056,1.0,1.0,1.0
51.34,18.4944,1.0,1.0,1.0
51.35,16.5056,1.0,1.0,1.0
51.36,29.0,1.0,1.0,1.0
51.37,11.0,1.0,1.0,1.0
51.38,19.4944,1.0,1.0,1.0
51.39,23.0,1.0,1.0,1.0
51.4,22.0,1.0,1.0,1.0
51.41,28.0,1.0,1.0,1.0
51.42,19.5056,1.0,1.0,1.0
51.43,18.9889,1.0,1.0,1.0
51.44,17.0111,1.0,1.0,1.0
51.45,19.4944,1.0,1.0,1.0
51.46,14.0,1.0,1.0,1.0
51.47,17.0,1.0,1.0,1.0
51.48,24.0,1.0,1.0,1.0
51.49,27.5056,1.0,1.0,1.0
51.5,21.4944,1.0,1.0,1.0
51.51,21.5056,1.0,1.0,1.0
51.52,20.4944,1.0,1.0,1.0
51.53,24.5056,1.0,1.0,1.0
51.54,38.0,1.0,1.0,1.0
51.55,38.4944,1.0,1.0,1.0
51.56,28.5056,1.0,1.0,1.0
51.57,17.0,1.0,1.0,1.0
51.58,35.0,1.0,1.0,1.0
51.59,17.0,1.0,1.0,1.0
51.6,21.0,1.0,1.0,1.0
51.61,21.0,1.0,1.0,1.0
51.62,22.0,1.0,1.0,1.0
51.63,10.0,1.0,1.0,1.0
51.64,14.0,1.0,1.0,1.0
51.65,19.0,1.0,1.0,1.0
51.66,20.4944,1.0,1.0,1.0
51.67,33.5056,1.0,1.0,1.0
51.68,25.0,1.0,1.0,1.0
51.69,25.0,1.0,1.0,1.0
51.7,24.0,1.0,1.0,1.0
51.71,21.0,1.0,1.0,1.0
51.72,29.0,1.0,1.0,1.0
51.73,8.0,1.0,1.0,1.0
51.74,29.0,1.0,1.0,1.0
51.75,28.4944,1.0,1.0,1.0
51.76,20.9778,1.0,1.0,1.0
51.77,22.0111,1.0,1.0,1.0
51.78,21.5167,1.0,1.0,1.0
51.79,13.0,1.0,1.0,1.0
51.8,23.4944,1.0,1.0,1.0
51.81,42.0,1.0,1.0,1.0
51.82,26.5056,1.0,1.0,1.0
51.83,16.0,1.0,1.0,1.0
51.84,18.0,1.0,1.0,1.0
51.85,15.0,1.0,1.0,1.0
51.86,14.4944,1.0,1.0,1.0
51.87,25.5056,1.0,1.0,1.0
51.88,30.0,1.0,1.0,1.0
51.89,22.0,1.0,1.0,1.0
51.9,21.0,1.0,1.0,1.0
51.91,24.0,1.0,1.0,1.0
51.92,21.0,1.0,1.0,1.0
51.93,35.0,1.0,1.0,1.0
51.94,16.0,1.0,1.0,1.0
51.95,30.0,1.0,1.0,1.0
51.96,8.0,1.0,1.0,1.0
51.97,16.4944,1.0,1.0,1.0
51.98,15.0,1.0,1.0,1.0
51.99,25.5056,1.0,1.0,1.0
52.0,16.0,1.0,1.0,1.0
0.4,1479944.5,1.0,1.0,1.0
0.41,1508963.5,1.0,1.0,1.0
0.42,1539180.25,1.0,1.0,1.0
0.43,1612482.625,1.0,1.0,1.0
0.44,1589889.0,1.0,1.0,1.0
0.45,1611739.5,1.0,1.0,1.0
0.46,1635762.0,1.0,1.0,1.0
0.47,1657427.5,1.0,1.0,1.0
0.48,1674577.5,1.0,1.0,1.0
0.49,1688963.0,1.0,1.0,1.0
0.5,1703140.0,1.0,1.0,1.0
0.51,1783890.625,1.0,1.0,1.0
0.52,2070489.5,1.0,1.0,1.0
0.53,2063487.0,1.0,1.0,1.0
0.54,2041863.5,1.0,1.0,1.0
0.55,2010300.0,1.0,1.0,1.0
0.56,1960724.625,1.0,1.0,1.0
0.57,1893116.625,1.0,1.0,1.0
0.58,1809034.125,1.0,1.0,1.0
0.59,1711478.125,1.0,1.0,1.0
0.6,1594154.125,1.0,1.0,1.0
0.61,1457523.625,1.0,1.0,1.0
0.62,1309120.75,1.0,1.0,1.0
0.63,1145970.625,1.0,1.0,1.0
0.64,984384,1.0,1.0,1.0
0.65,833495,1.0,1.0,1.0
0.66,705600.125,1.0,1.0,1.0
0.67,615802,1.0,1.0,1.0
0.68,551822,1.0,1.0,1.0
0.69,512235,1.0,1.0,1.0
0.7,484279,1.0,1.0,1.0
0.71,460296,1.0,1.0,1.0
0.72,436251,1.0,1.0,1.0
0.73,409294,1.0,1.0,1.0
0.74,372129,1.0,1.0,1.0
0.75,329271,1.0,1.0,1.0
0.76,281893,1.0,1.0,1.0
0.77,235736,1.0,1.0,1.0
0.78,192534,1.0,1.0,1.0
0.79,153997,1.0,1.0,1.0
0.8,122397,1.0,1.0,1.0
0.81,98702.5,1.0,1.0,1.0
0.82,82306.5,1.0,1.0,1.0
0.83,73352.5,1.0,1.0,1.0
0.84,69982.0,1.0,1.0,1.0
0.85,71209,1.0,1.0,1.0
0.86,74909.0,1.0,1.0,1.0
0.87,80095.5,1.0,1.0,1.0
0.88,86017.5,1.0,1.0,1.0
0.89,90728,1.0,1.0,1.0
0.9,94315.0,1.0,1.0,1.0
0.91,96294.0,1.0,1.0,1.0
0.92,96214.5,1.0,1.0,1.0
0.93,93991.0,1.0,1.0,1.0
0.94,89104.5,1.0,1.0,1.0
0.95,83373,1.0,1.0,1.0
0.96,75630,1.0,1.0,1.0
0.97,67076,1.0,1.0,1.0
0.98,58122,1.0,1.0,1.0
0.99,49721,1.0,1.0,1.0
1.0,41181,1.0,1.0,1.0
1.01,33595,1.0,1.0,1.0
1.02,27029,1.0,1.0,1.0
1.03,21418,1.0,1.0,1.0
1.04,17464,1.0,1.0,1.0
1.05,14280.0,1.0,1.0,1.0
1.06,12868.5,1.0,1.0,1.0
1.07,12227.5,1.0,1.0,1.0
1.08,12674.498,1.0,1.0,1.0
1.09,13864.5,1.0,1.0,1.0
1.1,15632,1.0,1.0,1.0
1.11,17504.998,1.0,1.0,1.0
1.12,19799,1.0,1.0,1.0
1.13,21940.5,1.0,1.0,1.0
1.14,23580.498,1.0,1.0,1.0
1.15,24651.0,1.0,1.0,1.0
1.16,25308.502,1.0,1.0,1.0
1.17,25985.998,1.0,1.0,1.0
1.18,25894.998,1.0,1.0,1.0
1.19,25167.0,1.0,1.0,1.0
1.2,24063,1.0,1.0,1.0
1.21,22578.0,1.0,1.0,1.0
1.22,20355,1.0,1.0,1.0
1.23,18271.502,1.0,1.0,1.0
1.24,15856.5,1.0,1.0,1.0
1.25,13876.5,1.0,1.0,1.0
1.26,11675.501,1.0,1.0,1.0
1.27,9611.002,1.0,1.0,1.0
1.28,7653.5,1.0,1.0,1.0
1.29,5967,1.0,1.0,1.0
1.3,4857,1.0,1.0,1.0
1.31,4078,1.0,1.0,1.0
1.32,3225.5,1.0,1.0,1.0
1.33,3016,1.0,1.0,1.0
1.34,2755,1.0,1.0,1.0
1.35,2850.499,1.0,1.0,1.0
1.36,3229.0,1.0,1.0,1.0
1.37,3728.5,1.0,1.0,1.0
1.38,4244.001,1.0,1.0,1.0
1.39,4855.998,1.0,1.0,1.0
1.4,5370.5,1.0,1.0,1.0
1.41,5953,1.0,1.0,1.0
1.42,6471.502,1.0,1.0,1.0
1.43,6753,1.0,1.0,1.0
1.44,6963,1.0,1.0,1.0
1.45,7155.0,1.0,1.0,1.0
1.46,7152.5,1.0,1.0,1.0
1.47,7036,1.0,1.0,1.0
1.48,6657.5,1.0,1.0,1.0
1.49,6361.001,1.0,1.0,1.0
1.5,5943.0,1.0,1.0,1.0
1.51,5353.0,1.0,1.0,1.0
1.52,4765.501,1.0,1.0,1.0
1.53,4209,1.0,1.0,1.0
1.54,3741.5,1.0,1.0,1.0
1.55,3159.999,1.0,1.0,1.0
1.56,2698,1.0,1.0,1.0
1.57,2192.501,1.0,1.0,1.0
1.58,1866.5,1.0,1.0,1.0
1.59,1484.5,1.0,1.0,1.0
1.6,1220.5,1.0,1.0,1.0
1.61,1046.5,1.0,1.0,1.0
1.62,869.4998,1.0,1.0,1.0
1.63,878.4999,1.0,1.0,1.0
1.64,838.0001,1.0,1.0,1.0
1.65,941.5001,1.0,1.0,1.0
1.66,960.5001,1.0,1.0,1.0
1.67,1056.5,1.0,1.0,1.0
1.68,1172.5,1.0,1.0,1.0
1.69,1270,1.0,1.0,1.0
1.7,1482,1.0,1.0,1.0
1.71,1553,1.0,1.0,1.0
1.72,1725.5,1.0,1.0,1.0
1.73,1789.5,1.0,1.0,1.0
1.74,1785,1.0,1.0,1.0
1.75,1685,1.0,1.0,1.0
1.76,1880,1.0,1.0,1.0
1.77,1784,1.0,1.0,1.0
1.78,1869,1.0,1.0,1.0
1.79,1780.5,1.0,1.0,1.0
1.8,1747.5,1.0,1.0,1.0
1.81,1535,1.0,1.0,1.0
1.82,1464,1.0,1.0,1.0
1.83,1397,1.0,1.0,1.0
1.84,1250,1.0,1.0,1.0
1.85,1160.5,1.0,1.0,1.0
1.86,1040.5,1.0,1.0,1.0
1.87,927.4999,1.0,1.0,1.0
1.88,810.4998,1.0,1.0,1.0
1.89,754.0005,1.0,1.0,1.0
1.9,626.0001,1.0,1.0,1.0
1.91,601.4999,1.0,1.0,1.0
1.92,539.0,1.0,1.0,1.0
1.93,474.5005,1.0,1.0,1.0
1.94,407.4998,1.0,1.0,1.0
1.95,432.5001,1.0,1.0,1.0
1.96,375.4999,1.0,1.0,1.0
1.97,372.9999,1.0,1.0,1.0
1.98,371.0002,1.0,1.0,1.0
1.99,402.9995,1.0,1.0,1.0
2.0,426.5005,1.0,1.0,1.0
2.01,458.0001,1.0,1.0,1.0
2.02,396.0001,1.0,1.0,1.0
2.03,455.4997,1.0,1.0,1.0
2.04,505.9999,1.0,1.0,1.0
2.05,507.9997,1.0,1.0,1.0
2.06,521.5002,1.0,1.0,1.0
2.07,550.4996,1.0,1.0,1.0
2.08,599.5002,1.0,1.0,1.0
2.09,553.0001,1.0,1.0,1.0
2.1,599.0,1.0,1.0,1.0
2.11,566.0001,1.0,1.0,1.0
2.12,639.0001,1.0,1.0,1.0
2.13,625.4996,1.0,1.0,1.0
2.14,625.9999,1.0,1.0,1.0
2.15,643.5002,1.0,1.0,1.0
2.16,646.4999,1.0,1.0,1.0
2.17,586.0005,1.0,1.0,1.0
2.18,574.4993,1.0,1.0,1.0
2.19,588.0003,1.0,1.0,1.0
2.2,556.0,1.0,1.0,1.0
2.21,553.0001,1.0,1.0,1.0
2.22,491.9998,1.0,1.0,1.0
2.23,520.0,1.0,1.0,1.0
2.24,449.5003,1.0,1.0,1.0
2.25,386.4999,1.0,1.0,1.0
2.26,370.4998,1.0,1.0,1.0
2.27,391.0002,1.0,1.0,1.0
2.28,340.5001,1.0,1.0,1.0
2.29,340.0,1.0,1.0,1.0
2.3,336.0001,1.0,1.0,1.0
2.31,322.9998,1.0,1.0,1.0
2.32,335.0,1.0,1.0,1.0
2.33,307.5001,1.0,1.0,1.0
2.34,287.5001,1.0,1.0,1.0
2.35,308.5001,1.0,1.0,1.0
2.36,310.9999,1.0,1.0,1.0
2.37,303.0003,1.0,1.0,1.0
2.38,277.4997,1.0,1.0,1.0
2.39,370.0,1.0,1.0,1.0
2.4,377.9999,1.0,1.0,1.0
2.41,340.0001,1.0,1.0,1.0
2.42,355.9999,1.0,1.0,1.0
2.43,463.0001,1.0,1.0,1.0
2.44,400.0,1.0,1.0,1.0
2.45,442.0,1.0,1.0,1.0
2.46,480.9997,1.0,1.0,1.0
2.47,494.0003,1.0,1.0,1.0
2.48,457.4996,1.0,1.0,1.0
2.49,479.5002,1.0,1.0,1.0
2.5,513.4996,1.0,1.0,1.0
2.51,549.5004,1.0,1.0,1.0
2.52,510.5001,1.0,1.0,1.0
2.53,541.9999,1.0,1.0,1.0
2.54,494.0,1.0,1.0,1.0
2.55,491.0,1.0,1.0,1.0
2.56,415.0001,1.0,1.0,1.0
2.57,453.0,1.0,1.0,1.0
2.58,417.0001,1.0,1.0,1.0
2.59,404.0,1.0,1.0,1.0
2.6,335.0,1.0,1.0,1.0
2.61,377.5002,1.0,1.0,1.0
2.62,346.4996,1.0,1.0,1.0
2.63,337.5003,1.0,1.0,1.0
2.64,325.4999,1.0,1.0,1.0
2.65,316.0002,1.0,1.0,1.0
2.66,312.0,1.0,1.0,1.0
2.67,299.9998,1.0,1.0,1.0
2.68,313.5002,1.0,1.0,1.0
2.69,262.9998,1.0,1.0,1.0
2.7,263.0002,1.0,1.0,1.0
2.71,271.4997,1.0,1.0,1.0
2.72,303.0,1.0,1.0,1.0
2.73,306.5002,1.0,1.0,1.0
2.74,309.0,1.0,1.0,1.0
2.75,326.5001,1.0,1.0,1.0
2.76,359.4997,1.0,1.0,1.0
2.77,397.0001,1.0,1.0,1.0
2.78,428.0,1.0,1.0,1.0
2.79,387.4999,1.0,1.0,1.0
2.8,421.9999,1.0,1.0,1.0
2.81,471.0002,1.0,1.0,1.0
2.82,410.9998,1.0,1.0,1.0
2.83,428.0004,1.0,1.0,1.0
2.84,468.4996,1.0,1.0,1.0
2.85,396.5002,1.0,1.0,1.0
2.86,421.4996,1.0,1.0,1.0
2.87,404.0004,1.0,1.0,1.0
2.88,411.5002,1.0,1.0,1.0
2.89,402.4996,1.0,1.0,1.0
2.9,382.0,1.0,1.0,1.0
2.91,366.5002,1.0,1.0,1.0
2.92,358.4997,1.0,1.0,1.0
2.93,349.0002,1.0,1.0,1.0
2.94,361.5002,1.0,1.0,1.0
2.95,275.5001,1.0,1.0,1.0
2.96,301.0,1.0,1.0,1.0
2.97,257.0001,1.0,1.0,1.0
2.98,280.5001,1.0,1.0,1.0
2.99,232.4999,1.0,1.0,1.0
3.0,259.4999,1.0,1.0,1.0
3.01,276.9999,1.0,1.0,1.0
3.02,251.4998,1.0,1.0,1.0
3.03,276.9998,1.0,1.0,1.0
3.04,256.0004,1.0,1.0,1.0
3.05,252.0,1.0,1.0,1.0
3.06,289.5002,1.0,1.0,1.0
3.07,259.4995,1.0,1.0,1.0
3.08,281.5003,1.0,1.0,1.0
3.09,327.4997,1.0,1.0,1.0
3.1,314.0002,1.0,1.0,1.0
3.11,297.0001,1.0,1.0,1.0
3.12,316.4998,1.0,1.0,1.0
3.13,308.0002,1.0,1.0,1.0
3.14,344.5001,1.0,1.0,1.0
3.15,327.4996,1.0,1.0,1.0
3.16,374.5001,1.0,1.0,1.0
3.17,325.5001,1.0,1.0,1.0
3.18,341.5001,1.0,1.0,1.0
3.19,328.0002,1.0,1.0,1.0
3.2,300.4998,1.0,1.0,1.0
3.21,281.9999,1.0,1.0,1.0
3.22,316.4999,1.0,1.0,1.0
3.23,326.0,1.0,1.0,1.0
3.24,297.9999,1.0,1.0,1.0
3.25,297.5003,1.0,1.0,1.0
3.26,244.0,1.0,1.0,1.0
3.27,226.4999,1.0,1.0,1.0
3.28,258.0001,1.0,1.0,1.0
3.29,222.5002,1.0,1.0,1.0
3.3,210.9999,1.0,1.0,1.0
3.31,217.4998,1.0,1.0,1.0
3.32,238.0001,1.0,1.0,1.0
3.33,222.4998,1.0,1.0,1.0
3.34,230.0002,1.0,1.0,1.0
3.35,232.5001,1.0,1.0,1.0
3.36,212.9999,1.0,1.0,1.0
3.37,243.0,1.0,1.0,1.0
3.38,233.9999,1.0,1.0,1.0
3.39,270.0,1.0,1.0,1.0
3.4,206.0001,1.0,1.0,1.0
3.41,236.4998,1.0,1.0,1.0
3.42,247.5003,1.0,1.0,1.0
3.43,259.9998,1.0,1.0,1.0
3.44,267.9998,1.0,1.0,1.0
3.45,265.0005,1.0,1.0,1.0
3.46,260.9997,1.0,1.0,1.0
3.47,243.0,1.0,1.0,1.0
3.48,264.0,1.0,1.0,1.0
3.49,238.5001,1.0,1.0,1.0
3.5,271.9999,1.0,1.0,1.0
3.51,309.5002,1.0,1.0,1.0
3.52,258.0,1.0,1.0,1.0
3.53,248.5001,1.0,1.0,1.0
3.54,223.4997,1.0,1.0,1.0
3.55,230.5001,1.0,1.0,1.0
3.56,230.5002,1.0,1.0,1.0
3.57,262.5001,1.0,1.0,1.0
3.58,254.5002,1.0,1.0,1.0
3.59,223.9997,1.0,1.0,1.0
3.6,233.9999,1.0,1.0,1.0
3.61,208.0002,1.0,1.0,1.0
3.62,239.4996,1.0,1.0,1.0
3.63,213.5005,1.0,1.0,1.0
3.64,253.4999,1.0,1.0,1.0
3.65,216.9998,1.0,1.0,1.0
3.66,223.0002,1.0,1.0,1.0
3.67,233.0,1.0,1.0,1.0
3.68,192.4997,1.0,1.0,1.0
3.69,211.0003,1.0,1.0,1.0
3.7,213.4999,1.0,1.0,1.0
3.71,164.4997,1.0,1.0,1.0
3.72,253.0001,1.0,1.0,1.0
3.73,217.0,1.0,1.0,1.0
3.74,194.0,1.0,1.0,1.0
3.75,221.0002,1.0,1.0,1.0
3.76,259.4999,1.0,1.0,1.0
3.77,237.5001,1.0,1.0,1.0
3.78,243.9999,1.0,1.0,1.0
3.79,219.0,1.0,1.0,1.0
3.8,248.9999,1.0,1.0,1.0
3.81,260.4999,1.0,1.0,1.0
3.82,231.4998,1.0,1.0,1.0
3.83,214.5002,1.0,1.0,1.0
3.84,252.0001,1.0,1.0,1.0
3.85,263.4999,1.0,1.0,1.0
3.86,211.0001,1.0,1.0,1.0
3.87,246.9999,1.0,1.0,1.0
3.88,191.0002,1.0,1.0,1.0
3.89,248.5001,1.0,1.0,1.0
3.9,225.4998,1.0,1.0,1.0
3.91,229.0,1.0,1.0,1.0
3.92,225.5001,1.0,1.0,1.0
3.93,210.0001,1.0,1.0,1.0
3.94,226.4998,1.0,1.0,1.0
3.95,218.0,1.0,1.0,1.0
3.96,204.5001,1.0,1.0,1.0
3.97,231.9998,1.0,1.0,1.0
3.98,223.0002,1.0,1.0,1.0
3.99,229.9998,1.0,1.0,1.0
4.0,234.5002,1.0,1.0,1.0
4.01,202.0,1.0,1.0,1.0
4.02,199.0001,1.0,1.0,1.0
4.03,205.0,1.0,1.0,1.0
4.04,214.4999,1.0,1.0,1.0
4.05,225.4999,1.0,1.0,1.0
4.06,219.4998,1.0,1.0,1.0
4.07,184.5001,1.0,1.0,1.0
4.08,238.5001,1.0,1.0,1.0
4.09,237.9999,1.0,1.0,1.0
4.1,200.4999,1.0,1.0,1.0
4.11,230.0,1.0,1.0,1.0
4.12,226.0001,1.0,1.0,1.0
4.13,253.0,1.0,1.0,1.0
4.14,225.0,1.0,1.0,1.0
4.15,208.5002,1.0,1.0,1.0
4.16,220.4999,1.0,1.0,1.0
4.17,220.4999,1.0,1.0,1.0
4.18,204.5001,1.0,1.0,1.0
4.19,232.4999,1.0,1.0,1.0
4.2,228.5003,1.0,1.0,1.0
4.21,244.4995,1.0,1.0,1.0
4.22,254.0003,1.0,1.0,1.0
4.23,229.4999,1.0,1.0,1.0
4.24,240.0,1.0,1.0,1.0
4.25,210.4999,1.0,1.0,1.0
4.26,199.4999,1.0,1.0,1.0
4.27,197.0001,1.0,1.0,1.0
4.28,260.4999,1.0,1.0,1.0
4.29,209.0001,1.0,1.0,1.0
4.3,225.9998,1.0,1.0,1.0
4.31,241.5003,1.0,1.0,1.0
4.32,198.4999,1.0,1.0,1.0
4.33,199.4999,1.0,1.0,1.0
4.34,210.9998,1.0,1.0,1.0
4.35,178.5002,1.0,1.0,1.0
4.36,233.0001,1.0,1.0,1.0
4.37,228.0001,1.0,1.0,1.0
4.38,181.4999,1.0,1.0,1.0
4.39,217.9998,1.0,1.0,1.0
4.4,218.4999,1.0,1.0,1.0
4.41,237.5002,1.0,1.0,1.0
4.42,215.4999,1.0,1.0,1.0
4.43,229.5002,1.0,1.0,1.0
4.44,203.9998,1.0,1.0,1.0
4.45,197.5002,1.0,1.0,1.0
4.46,249.4999,1.0,1.0,1.0
4.47,181.0001,1.0,1.0,1.0
4.48,228.0,1.0,1.0,1.0
4.49,185.9999,1.0,1.0,1.0
4.5,215.0,1.0,1.0,1.0